ImageFile,FD,Contrast,trials_4.thisRepN,trials_4.thisTrialN,trials_4.thisN,trials_4.thisIndex,trials.thisRepN,trials.thisTrialN,trials.thisN,trials.thisIndex,trials_2.thisRepN,trials_2.thisTrialN,trials_2.thisN,trials_2.thisIndex,trials_3.thisRepN,trials_3.thisTrialN,trials_3.thisN,trials_3.thisIndex,end_instructions.keys,end_instructions.rt,key_resp_4.keys,key_resp_4.rt,key_resp_6.keys,key_resp_6.rt,Fatigue.response,Fatigue.rt,key_resp_5.keys,key_resp_5.rt,n_objets.response,reaction_time.keys,reaction_time.rt,vividness.response,vividness.rt,key_resp_2.keys,key_resp_2.rt,key_resp_3.keys,key_resp_3.rt,date,frameRate,expName,session,participant,
,,,,,,,,,,,,,,,,,,,space,12.8361644159,,,,,,,,,,,,,,,,,,2019_Jan_09_1622,60.03913493842969,Cloud_Experiment_FR,001,01,
,,,,,,,,,,,,,,,,,,,,,space,33.4904853211,,,,,,,,,,,,,,,,2019_Jan_09_1622,60.03913493842969,Cloud_Experiment_FR,001,01,
,,,,,,,,,,,,,,,,,,,,,,,space,28.7595262452,,,,,,,,,,,,,,2019_Jan_09_1622,60.03913493842969,Cloud_Experiment_FR,001,01,
,,,,,,,,,,,,,,,,,,,,,,,,,7,18.213,,,,,,,,,,,,2019_Jan_09_1622,60.03913493842969,Cloud_Experiment_FR,001,01,
,,,,,,,,,,,,,,,,,,,,,,,,,,,space,3.60019071517,,,,,,,,,,2019_Jan_09_1622,60.03913493842969,Cloud_Experiment_FR,001,01,
pratique/fcloud65-35_D1.6_30,1.6,1,0,0,0,2,,,,,,,,,,,,,,,,,,,,,,,2,space,2.64927492267,2,7.628,,,,,2019_Jan_09_1622,60.03913493842969,Cloud_Experiment_FR,001,01,
pratique/fcloud_D0.8_30,0.8,0,0,1,1,0,,,,,,,,,,,,,,,,,,,,,,,1,space,5.23523859947,1,2.234,,,,,2019_Jan_09_1622,60.03913493842969,Cloud_Experiment_FR,001,01,
pratique/fcloud_D1.4_30,1.4,0,0,2,2,1,,,,,,,,,,,,,,,,,,,,,,,2,space,2.99342469836,1,1.885,,,,,2019_Jan_09_1622,60.03913493842969,Cloud_Experiment_FR,001,01,
pratique/fcloud65-35_D1.2_30,1.2,1,0,3,3,3,,,,,,,,,,,,,,,,,,,,,,,None,None,,None,12.091,,,,,2019_Jan_09_1622,60.03913493842969,Cloud_Experiment_FR,001,01,
pratique/fcloud80-20_D1.8_30,1.8,2,0,4,4,4,,,,,,,,,,,,,,,,,,,,,,,None,None,,None,22.599,,,,,2019_Jan_09_1622,60.03913493842969,Cloud_Experiment_FR,001,01,
,,,,,,,,,,,,,,,,,,,,,,,,,,,,,,,,,,space,65.711314392,,,2019_Jan_09_1622,60.03913493842969,Cloud_Experiment_FR,001,01,
images/fcloud65-35_D1.4_3.tif,1.4,1,,,,,0,0,0,56,,,,,,,,,,,,,,,,,,,1,space,3.79775974003,3,2.784,,,,,2019_Jan_09_1622,60.03913493842969,Cloud_Experiment_FR,001,01,
images/fcloud_D1.4_3.tif,1.4,0,,,,,0,1,1,20,,,,,,,,,,,,,,,,,,,1,space,3.34844060848,2,4.649,,,,,2019_Jan_09_1622,60.03913493842969,Cloud_Experiment_FR,001,01,
images/fcloud_D1.4_1.tif,1.4,0,,,,,0,2,2,18,,,,,,,,,,,,,,,,,,,2,space,4.27943978086,2,1.635,,,,,2019_Jan_09_1622,60.03913493842969,Cloud_Experiment_FR,001,01,
images/fcloud_D1.5_3.tif,1.5,0,,,,,0,3,3,23,,,,,,,,,,,,,,,,,,,None,None,,None,11.026,,,,,2019_Jan_09_1622,60.03913493842969,Cloud_Experiment_FR,001,01,
images/fcloud80-20_D0.8_2.tif,0.8,2,,,,,0,4,4,73,,,,,,,,,,,,,,,,,,,1,space,4.36066128267,5,4.815,,,,,2019_Jan_09_1622,60.03913493842969,Cloud_Experiment_FR,001,01,
images/fcloud80-20_D1.3_1.tif,1.3,2,,,,,0,5,5,87,,,,,,,,,,,,,,,,,,,None,None,,None,14.156,,,,,2019_Jan_09_1622,60.03913493842969,Cloud_Experiment_FR,001,01,
images/fcloud80-20_D1.6_3.tif,1.6,2,,,,,0,6,6,98,,,,,,,,,,,,,,,,,,,1,space,4.83535631851,2,1.001,,,,,2019_Jan_09_1622,60.03913493842969,Cloud_Experiment_FR,001,01,
images/fcloud80-20_D0.8_1.tif,0.8,2,,,,,0,7,7,72,,,,,,,,,,,,,,,,,,,1,space,5.83729174268,1,0.784,,,,,2019_Jan_09_1622,60.03913493842969,Cloud_Experiment_FR,001,01,
images/fcloud_D1.5_2.tif,1.5,0,,,,,0,8,8,22,,,,,,,,,,,,,,,,,,,1,space,3.33747474698,1,0.602,,,,,2019_Jan_09_1622,60.03913493842969,Cloud_Experiment_FR,001,01,
images/fcloud_D0.8_2.tif,0.8,0,,,,,0,9,9,1,,,,,,,,,,,,,,,,,,,2,space,3.05850481417,4,2.001,,,,,2019_Jan_09_1622,60.03913493842969,Cloud_Experiment_FR,001,01,
images/fcloud80-20_D0.9_2.tif,0.9,2,,,,,0,10,10,76,,,,,,,,,,,,,,,,,,,None,None,,None,11.408,,,,,2019_Jan_09_1622,60.03913493842969,Cloud_Experiment_FR,001,01,
images/fcloud_D1.6_2.tif,1.6,0,,,,,0,11,11,25,,,,,,,,,,,,,,,,,,,1,space,6.56460975367,1,0.603,,,,,2019_Jan_09_1622,60.03913493842969,Cloud_Experiment_FR,001,01,
images/fcloud_D1.4_2.tif,1.4,0,,,,,0,12,12,19,,,,,,,,,,,,,,,,,,,None,None,,None,9.576,,,,,2019_Jan_09_1622,60.03913493842969,Cloud_Experiment_FR,001,01,
images/fcloud80-20_D1.5_1.tif,1.5,2,,,,,0,13,13,93,,,,,,,,,,,,,,,,,,,2,space,3.12967856019,3,1.001,,,,,2019_Jan_09_1622,60.03913493842969,Cloud_Experiment_FR,001,01,
images/fcloud65-35_D1.6_1.tif,1.6,1,,,,,0,14,14,60,,,,,,,,,,,,,,,,,,,3,space,4.75785350404,2,3.949,,,,,2019_Jan_09_1622,60.03913493842969,Cloud_Experiment_FR,001,01,
images/fcloud65-35_D1.4_2.tif,1.4,1,,,,,0,15,15,55,,,,,,,,,,,,,,,,,,,None,None,,None,12.957,,,,,2019_Jan_09_1622,60.03913493842969,Cloud_Experiment_FR,001,01,
images/fcloud80-20_D1.7_2.tif,1.7,2,,,,,0,16,16,100,,,,,,,,,,,,,,,,,,,3,space,2.41368265217,4,0.97,,,,,2019_Jan_09_1622,60.03913493842969,Cloud_Experiment_FR,001,01,
images/fcloud80-20_D1_2.tif,1.0,2,,,,,0,17,17,79,,,,,,,,,,,,,,,,,,,1,space,1.90395515366,5,0.652,,,,,2019_Jan_09_1622,60.03913493842969,Cloud_Experiment_FR,001,01,
images/fcloud65-35_D1.3_3.tif,1.3,1,,,,,0,18,18,53,,,,,,,,,,,,,,,,,,,1,space,4.32082187419,4,0.852,,,,,2019_Jan_09_1622,60.03913493842969,Cloud_Experiment_FR,001,01,
images/fcloud80-20_D1_3.tif,1.0,2,,,,,0,19,19,80,,,,,,,,,,,,,,,,,,,1,space,1.54222360451,5,0.553,,,,,2019_Jan_09_1622,60.03913493842969,Cloud_Experiment_FR,001,01,
images/fcloud80-20_D1.7_3.tif,1.7,2,,,,,0,20,20,101,,,,,,,,,,,,,,,,,,,1,space,7.40370635013,3,0.519,,,,,2019_Jan_09_1622,60.03913493842969,Cloud_Experiment_FR,001,01,
images/fcloud_D1_3.tif,1.0,0,,,,,0,21,21,8,,,,,,,,,,,,,,,,,,,1,space,7.12215379556,2,0.735,,,,,2019_Jan_09_1622,60.03913493842969,Cloud_Experiment_FR,001,01,
images/fcloud65-35_D1.8_3.tif,1.8,1,,,,,0,22,22,68,,,,,,,,,,,,,,,,,,,None,None,,None,10.409,,,,,2019_Jan_09_1622,60.03913493842969,Cloud_Experiment_FR,001,01,
images/fcloud_D1_1.tif,1.0,0,,,,,0,23,23,6,,,,,,,,,,,,,,,,,,,3,space,3.06928047456,4,4.399,,,,,2019_Jan_09_1622,60.03913493842969,Cloud_Experiment_FR,001,01,
images/fcloud_D1.2_2.tif,1.2,0,,,,,0,24,24,13,,,,,,,,,,,,,,,,,,,1,space,1.90553793474,5,0.486,,,,,2019_Jan_09_1622,60.03913493842969,Cloud_Experiment_FR,001,01,
images/fcloud65-35_D1.7_3.tif,1.7,1,,,,,0,25,25,65,,,,,,,,,,,,,,,,,,,None,None,,None,10.208,,,,,2019_Jan_09_1622,60.03913493842969,Cloud_Experiment_FR,001,01,
images/fcloud65-35_D1.1_3.tif,1.1,1,,,,,0,26,26,47,,,,,,,,,,,,,,,,,,,1,None,,1,0.519,,,,,2019_Jan_09_1622,60.03913493842969,Cloud_Experiment_FR,001,01,
images/fcloud80-20_D1.1_3.tif,1.1,2,,,,,0,27,27,83,,,,,,,,,,,,,,,,,,,1,space,4.50739059586,3,0.669,,,,,2019_Jan_09_1622,60.03913493842969,Cloud_Experiment_FR,001,01,
images/fcloud_D1.5_1.tif,1.5,0,,,,,0,28,28,21,,,,,,,,,,,,,,,,,,,1,space,5.40556517988,3,0.419,,,,,2019_Jan_09_1622,60.03913493842969,Cloud_Experiment_FR,001,01,
images/fcloud_D1.3_1.tif,1.3,0,,,,,0,29,29,15,,,,,,,,,,,,,,,,,,,2,space,4.83905752806,2,0.985,,,,,2019_Jan_09_1622,60.03913493842969,Cloud_Experiment_FR,001,01,
images/fcloud65-35_D1.6_2.tif,1.6,1,,,,,0,30,30,61,,,,,,,,,,,,,,,,,,,2,space,5.77255758725,2,0.636,,,,,2019_Jan_09_1622,60.03913493842969,Cloud_Experiment_FR,001,01,
images/fcloud80-20_D1.8_1.tif,1.8,2,,,,,0,31,31,102,,,,,,,,,,,,,,,,,,,2,space,5.45544360543,2,2.77,,,,,2019_Jan_09_1622,60.03913493842969,Cloud_Experiment_FR,001,01,
images/fcloud_D1.6_1.tif,1.6,0,,,,,0,32,32,24,,,,,,,,,,,,,,,,,,,1,space,4.89652703167,3,0.619,,,,,2019_Jan_09_1622,60.03913493842969,Cloud_Experiment_FR,001,01,
images/fcloud65-35_D1.1_1.tif,1.1,1,,,,,0,33,33,45,,,,,,,,,,,,,,,,,,,None,None,,None,10.126,,,,,2019_Jan_09_1622,60.03913493842969,Cloud_Experiment_FR,001,01,
images/fcloud80-20_D1.4_2.tif,1.4,2,,,,,0,34,34,91,,,,,,,,,,,,,,,,,,,1,space,2.68702417612,1,0.735,,,,,2019_Jan_09_1622,60.03913493842969,Cloud_Experiment_FR,001,01,
images/fcloud65-35_D0.8_2.tif,0.8,1,,,,,0,35,35,37,,,,,,,,,,,,,,,,,,,1,space,3.4055502722,2,4.099,,,,,2019_Jan_09_1622,60.03913493842969,Cloud_Experiment_FR,001,01,
images/fcloud80-20_D1.2_3.tif,1.2,2,,,,,0,36,36,86,,,,,,,,,,,,,,,,,,,1,space,7.0124854137,3,0.436,,,,,2019_Jan_09_1622,60.03913493842969,Cloud_Experiment_FR,001,01,
images/fcloud80-20_D1.3_3.tif,1.3,2,,,,,0,37,37,89,,,,,,,,,,,,,,,,,,,None,None,,None,11.776,,,,,2019_Jan_09_1622,60.03913493842969,Cloud_Experiment_FR,001,01,
images/fcloud_D1.9_3.tif,1.9,0,,,,,0,38,38,35,,,,,,,,,,,,,,,,,,,None,None,,None,21.133,,,,,2019_Jan_09_1622,60.03913493842969,Cloud_Experiment_FR,001,01,
images/fcloud80-20_D1.2_1.tif,1.2,2,,,,,0,39,39,84,,,,,,,,,,,,,,,,,,,1,space,1.86735841585,5,0.736,,,,,2019_Jan_09_1622,60.03913493842969,Cloud_Experiment_FR,001,01,
images/fcloud_D0.9_3.tif,0.9,0,,,,,0,40,40,5,,,,,,,,,,,,,,,,,,,1,space,1.70305761031,5,0.701,,,,,2019_Jan_09_1622,60.03913493842969,Cloud_Experiment_FR,001,01,
images/fcloud_D0.9_1.tif,0.9,0,,,,,0,41,41,3,,,,,,,,,,,,,,,,,,,None,None,,None,10.393,,,,,2019_Jan_09_1622,60.03913493842969,Cloud_Experiment_FR,001,01,
images/fcloud65-35_D1.9_3.tif,1.9,1,,,,,0,42,42,71,,,,,,,,,,,,,,,,,,,None,None,,None,19.705,,,,,2019_Jan_09_1622,60.03913493842969,Cloud_Experiment_FR,001,01,
images/fcloud65-35_D1.3_2.tif,1.3,1,,,,,0,43,43,52,,,,,,,,,,,,,,,,,,,2,space,1.21684050362,5,0.819,,,,,2019_Jan_09_1622,60.03913493842969,Cloud_Experiment_FR,001,01,
images/fcloud80-20_D0.8_3.tif,0.8,2,,,,,0,44,44,74,,,,,,,,,,,,,,,,,,,1,space,1.50502182171,4,1.502,,,,,2019_Jan_09_1622,60.03913493842969,Cloud_Experiment_FR,001,01,
images/fcloud80-20_D1.8_2.tif,1.8,2,,,,,0,45,45,103,,,,,,,,,,,,,,,,,,,1,None,,2,0.436,,,,,2019_Jan_09_1622,60.03913493842969,Cloud_Experiment_FR,001,01,
images/fcloud80-20_D1.6_1.tif,1.6,2,,,,,0,46,46,96,,,,,,,,,,,,,,,,,,,1,space,7.73225604137,1,0.453,,,,,2019_Jan_09_1622,60.03913493842969,Cloud_Experiment_FR,001,01,
images/fcloud65-35_D1.1_2.tif,1.1,1,,,,,0,47,47,46,,,,,,,,,,,,,,,,,,,None,None,,None,9.526,,,,,2019_Jan_09_1622,60.03913493842969,Cloud_Experiment_FR,001,01,
images/fcloud65-35_D1.2_1.tif,1.2,1,,,,,0,48,48,48,,,,,,,,,,,,,,,,,,,None,None,,None,18.585,,,,,2019_Jan_09_1622,60.03913493842969,Cloud_Experiment_FR,001,01,
images/fcloud65-35_D1.5_3.tif,1.5,1,,,,,0,49,49,59,,,,,,,,,,,,,,,,,,,1,space,5.98626799835,1,1.851,,,,,2019_Jan_09_1622,60.03913493842969,Cloud_Experiment_FR,001,01,
images/fcloud65-35_D1.3_1.tif,1.3,1,,,,,0,50,50,51,,,,,,,,,,,,,,,,,,,1,space,2.65267181059,3,2.784,,,,,2019_Jan_09_1622,60.03913493842969,Cloud_Experiment_FR,001,01,
images/fcloud65-35_D0.9_1.tif,0.9,1,,,,,0,51,51,39,,,,,,,,,,,,,,,,,,,1,space,4.73533421417,2,0.586,,,,,2019_Jan_09_1622,60.03913493842969,Cloud_Experiment_FR,001,01,
images/fcloud_D1.9_1.tif,1.9,0,,,,,0,52,52,33,,,,,,,,,,,,,,,,,,,4,space,6.68113308423,3,1.218,,,,,2019_Jan_09_1622,60.03913493842969,Cloud_Experiment_FR,001,01,
images/fcloud65-35_D1.8_1.tif,1.8,1,,,,,0,53,53,66,,,,,,,,,,,,,,,,,,,None,None,,None,10.658,,,,,2019_Jan_09_1622,60.03913493842969,Cloud_Experiment_FR,001,01,
images/fcloud80-20_D1.5_2.tif,1.5,2,,,,,0,54,54,94,,,,,,,,,,,,,,,,,,,1,space,5.98073571816,3,0.653,,,,,2019_Jan_09_1622,60.03913493842969,Cloud_Experiment_FR,001,01,
images/fcloud65-35_D1.5_2.tif,1.5,1,,,,,0,55,55,58,,,,,,,,,,,,,,,,,,,2,space,2.60747490113,3,3.282,,,,,2019_Jan_09_1622,60.03913493842969,Cloud_Experiment_FR,001,01,
images/fcloud65-35_D1.8_2.tif,1.8,1,,,,,0,56,56,67,,,,,,,,,,,,,,,,,,,1,space,2.84135022177,2,0.469,,,,,2019_Jan_09_1622,60.03913493842969,Cloud_Experiment_FR,001,01,
images/fcloud65-35_D1.9_1.tif,1.9,1,,,,,0,57,57,69,,,,,,,,,,,,,,,,,,,1,space,5.85180716706,1,1.102,,,,,2019_Jan_09_1622,60.03913493842969,Cloud_Experiment_FR,001,01,
images/fcloud80-20_D1.4_1.tif,1.4,2,,,,,0,58,58,90,,,,,,,,,,,,,,,,,,,None,None,,None,10.561,,,,,2019_Jan_09_1622,60.03913493842969,Cloud_Experiment_FR,001,01,
images/fcloud80-20_D1.7_1.tif,1.7,2,,,,,0,59,59,99,,,,,,,,,,,,,,,,,,,1,space,1.39319697116,3,1.585,,,,,2019_Jan_09_1622,60.03913493842969,Cloud_Experiment_FR,001,01,
images/fcloud80-20_D1.1_2.tif,1.1,2,,,,,0,60,60,82,,,,,,,,,,,,,,,,,,,1,space,5.52024818666,4,0.503,,,,,2019_Jan_09_1622,60.03913493842969,Cloud_Experiment_FR,001,01,
images/fcloud_D1.8_3.tif,1.8,0,,,,,0,61,61,32,,,,,,,,,,,,,,,,,,,1,None,,2,1.351,,,,,2019_Jan_09_1622,60.03913493842969,Cloud_Experiment_FR,001,01,
images/fcloud65-35_D1.5_1.tif,1.5,1,,,,,0,62,62,57,,,,,,,,,,,,,,,,,,,2,space,6.43603384553,3,1.168,,,,,2019_Jan_09_1622,60.03913493842969,Cloud_Experiment_FR,001,01,
images/fcloud65-35_D1.2_3.tif,1.2,1,,,,,0,63,63,50,,,,,,,,,,,,,,,,,,,None,None,,None,10.376,,,,,2019_Jan_09_1622,60.03913493842969,Cloud_Experiment_FR,001,01,
images/fcloud_D1.3_3.tif,1.3,0,,,,,0,64,64,17,,,,,,,,,,,,,,,,,,,1,space,1.84416879574,4,0.585,,,,,2019_Jan_09_1622,60.03913493842969,Cloud_Experiment_FR,001,01,
images/fcloud65-35_D1.9_2.tif,1.9,1,,,,,0,65,65,70,,,,,,,,,,,,,,,,,,,1,space,5.51120592607,4,0.469,,,,,2019_Jan_09_1622,60.03913493842969,Cloud_Experiment_FR,001,01,
images/fcloud_D1.1_1.tif,1.1,0,,,,,0,66,66,9,,,,,,,,,,,,,,,,,,,None,None,,None,9.527,,,,,2019_Jan_09_1622,60.03913493842969,Cloud_Experiment_FR,001,01,
images/fcloud65-35_D0.8_1.tif,0.8,1,,,,,0,67,67,36,,,,,,,,,,,,,,,,,,,None,None,,None,18.469,,,,,2019_Jan_09_1622,60.03913493842969,Cloud_Experiment_FR,001,01,
images/fcloud_D1.9_2.tif,1.9,0,,,,,0,68,68,34,,,,,,,,,,,,,,,,,,,3,space,4.03996381036,2,0.42,,,,,2019_Jan_09_1622,60.03913493842969,Cloud_Experiment_FR,001,01,
images/fcloud80-20_D1.8_3.tif,1.8,2,,,,,0,69,69,104,,,,,,,,,,,,,,,,,,,1,None,,1,1.685,,,,,2019_Jan_09_1622,60.03913493842969,Cloud_Experiment_FR,001,01,
images/fcloud_D1.6_3.tif,1.6,0,,,,,0,70,70,26,,,,,,,,,,,,,,,,,,,None,None,,None,10.542,,,,,2019_Jan_09_1622,60.03913493842969,Cloud_Experiment_FR,001,01,
images/fcloud80-20_D1.1_1.tif,1.1,2,,,,,0,71,71,81,,,,,,,,,,,,,,,,,,,1,space,5.10243251722,2,1.036,,,,,2019_Jan_09_1622,60.03913493842969,Cloud_Experiment_FR,001,01,
images/fcloud65-35_D1.4_1.tif,1.4,1,,,,,0,72,72,54,,,,,,,,,,,,,,,,,,,1,space,6.90497966902,4,0.52,,,,,2019_Jan_09_1622,60.03913493842969,Cloud_Experiment_FR,001,01,
images/fcloud_D1.2_1.tif,1.2,0,,,,,0,73,73,12,,,,,,,,,,,,,,,,,,,None,None,,None,9.643,,,,,2019_Jan_09_1622,60.03913493842969,Cloud_Experiment_FR,001,01,
images/fcloud65-35_D1_3.tif,1.0,1,,,,,0,74,74,44,,,,,,,,,,,,,,,,,,,1,space,6.35954063875,2,0.803,,,,,2019_Jan_09_1622,60.03913493842969,Cloud_Experiment_FR,001,01,
images/fcloud65-35_D1_2.tif,1.0,1,,,,,0,75,75,43,,,,,,,,,,,,,,,,,,,1,space,3.69785792497,3,1.518,,,,,2019_Jan_09_1622,60.03913493842969,Cloud_Experiment_FR,001,01,
images/fcloud65-35_D0.9_3.tif,0.9,1,,,,,0,76,76,41,,,,,,,,,,,,,,,,,,,1,space,2.82686409878,5,0.719,,,,,2019_Jan_09_1622,60.03913493842969,Cloud_Experiment_FR,001,01,
images/fcloud_D1_2.tif,1.0,0,,,,,0,77,77,7,,,,,,,,,,,,,,,,,,,1,None,,2,2.035,,,,,2019_Jan_09_1622,60.03913493842969,Cloud_Experiment_FR,001,01,
images/fcloud_D0.8_3.tif,0.8,0,,,,,0,78,78,2,,,,,,,,,,,,,,,,,,,1,space,4.18536788481,1,0.585,,,,,2019_Jan_09_1622,60.03913493842969,Cloud_Experiment_FR,001,01,
images/fcloud_D1.8_2.tif,1.8,0,,,,,0,79,79,31,,,,,,,,,,,,,,,,,,,1,None,,1,0.819,,,,,2019_Jan_09_1622,60.03913493842969,Cloud_Experiment_FR,001,01,
images/fcloud80-20_D1.3_2.tif,1.3,2,,,,,0,80,80,88,,,,,,,,,,,,,,,,,,,1,space,7.1954583074,2,0.436,,,,,2019_Jan_09_1622,60.03913493842969,Cloud_Experiment_FR,001,01,
images/fcloud80-20_D1_1.tif,1.0,2,,,,,0,81,81,78,,,,,,,,,,,,,,,,,,,1,space,3.47044995404,2,0.819,,,,,2019_Jan_09_1622,60.03913493842969,Cloud_Experiment_FR,001,01,
images/fcloud65-35_D0.8_3.tif,0.8,1,,,,,0,82,82,38,,,,,,,,,,,,,,,,,,,1,space,6.85287537728,2,0.669,,,,,2019_Jan_09_1622,60.03913493842969,Cloud_Experiment_FR,001,01,
images/fcloud80-20_D1.2_2.tif,1.2,2,,,,,0,83,83,85,,,,,,,,,,,,,,,,,,,None,None,,None,9.526,,,,,2019_Jan_09_1622,60.03913493842969,Cloud_Experiment_FR,001,01,
images/fcloud_D1.1_3.tif,1.1,0,,,,,0,84,84,11,,,,,,,,,,,,,,,,,,,2,space,4.49245775747,3,1.37,,,,,2019_Jan_09_1622,60.03913493842969,Cloud_Experiment_FR,001,01,
images/fcloud_D1.2_3.tif,1.2,0,,,,,0,85,85,14,,,,,,,,,,,,,,,,,,,3,space,3.43715346139,4,0.786,,,,,2019_Jan_09_1622,60.03913493842969,Cloud_Experiment_FR,001,01,
images/fcloud80-20_D1.9_2.tif,1.9,2,,,,,0,86,86,106,,,,,,,,,,,,,,,,,,,None,None,,None,10.159,,,,,2019_Jan_09_1622,60.03913493842969,Cloud_Experiment_FR,001,01,
images/fcloud_D1.8_1.tif,1.8,0,,,,,0,87,87,30,,,,,,,,,,,,,,,,,,,None,None,,None,19.402,,,,,2019_Jan_09_1622,60.03913493842969,Cloud_Experiment_FR,001,01,
images/fcloud65-35_D1.2_2.tif,1.2,1,,,,,0,88,88,49,,,,,,,,,,,,,,,,,,,2,space,2.98050079425,3,1.152,,,,,2019_Jan_09_1622,60.03913493842969,Cloud_Experiment_FR,001,01,
images/fcloud_D1.7_3.tif,1.7,0,,,,,0,89,89,29,,,,,,,,,,,,,,,,,,,1,space,1.68848255544,2,0.536,,,,,2019_Jan_09_1622,60.03913493842969,Cloud_Experiment_FR,001,01,
images/fcloud_D0.9_2.tif,0.9,0,,,,,0,90,90,4,,,,,,,,,,,,,,,,,,,1,space,1.38890562428,5,0.569,,,,,2019_Jan_09_1622,60.03913493842969,Cloud_Experiment_FR,001,01,
images/fcloud_D1.7_2.tif,1.7,0,,,,,0,91,91,28,,,,,,,,,,,,,,,,,,,1,space,3.80428363592,4,0.635,,,,,2019_Jan_09_1622,60.03913493842969,Cloud_Experiment_FR,001,01,
images/fcloud_D0.8_1.tif,0.8,0,,,,,0,92,92,0,,,,,,,,,,,,,,,,,,,1,space,2.71070780489,2,0.969,,,,,2019_Jan_09_1622,60.03913493842969,Cloud_Experiment_FR,001,01,
images/fcloud65-35_D1_1.tif,1.0,1,,,,,0,93,93,42,,,,,,,,,,,,,,,,,,,2,space,7.75167402625,2,0.569,,,,,2019_Jan_09_1622,60.03913493842969,Cloud_Experiment_FR,001,01,
images/fcloud80-20_D1.9_3.tif,1.9,2,,,,,0,94,94,107,,,,,,,,,,,,,,,,,,,None,None,,None,10.195,,,,,2019_Jan_09_1622,60.03913493842969,Cloud_Experiment_FR,001,01,
images/fcloud65-35_D1.7_1.tif,1.7,1,,,,,0,95,95,63,,,,,,,,,,,,,,,,,,,1,space,5.26213045733,1,0.569,,,,,2019_Jan_09_1622,60.03913493842969,Cloud_Experiment_FR,001,01,
images/fcloud80-20_D0.9_1.tif,0.9,2,,,,,0,96,96,75,,,,,,,,,,,,,,,,,,,None,None,,None,9.693,,,,,2019_Jan_09_1622,60.03913493842969,Cloud_Experiment_FR,001,01,
images/fcloud80-20_D0.9_3.tif,0.9,2,,,,,0,97,97,77,,,,,,,,,,,,,,,,,,,1,space,2.45272630069,5,0.619,,,,,2019_Jan_09_1622,60.03913493842969,Cloud_Experiment_FR,001,01,
images/fcloud80-20_D1.4_3.tif,1.4,2,,,,,0,98,98,92,,,,,,,,,,,,,,,,,,,1,space,3.00374130602,4,0.502,,,,,2019_Jan_09_1622,60.03913493842969,Cloud_Experiment_FR,001,01,
images/fcloud80-20_D1.9_1.tif,1.9,2,,,,,0,99,99,105,,,,,,,,,,,,,,,,,,,1,space,5.32284108957,3,0.735,,,,,2019_Jan_09_1622,60.03913493842969,Cloud_Experiment_FR,001,01,
images/fcloud_D1.1_2.tif,1.1,0,,,,,0,100,100,10,,,,,,,,,,,,,,,,,,,1,None,,1,0.42,,,,,2019_Jan_09_1622,60.03913493842969,Cloud_Experiment_FR,001,01,
images/fcloud65-35_D1.6_3.tif,1.6,1,,,,,0,101,101,62,,,,,,,,,,,,,,,,,,,2,space,2.55585536489,2,0.769,,,,,2019_Jan_09_1622,60.03913493842969,Cloud_Experiment_FR,001,01,
images/fcloud80-20_D1.6_2.tif,1.6,2,,,,,0,102,102,97,,,,,,,,,,,,,,,,,,,2,space,2.22450920416,5,0.802,,,,,2019_Jan_09_1622,60.03913493842969,Cloud_Experiment_FR,001,01,
images/fcloud_D1.3_2.tif,1.3,0,,,,,0,103,103,16,,,,,,,,,,,,,,,,,,,1,space,2.16099541972,5,0.669,,,,,2019_Jan_09_1622,60.03913493842969,Cloud_Experiment_FR,001,01,
images/fcloud80-20_D1.5_3.tif,1.5,2,,,,,0,104,104,95,,,,,,,,,,,,,,,,,,,1,space,3.88728223275,2,0.687,,,,,2019_Jan_09_1622,60.03913493842969,Cloud_Experiment_FR,001,01,
images/fcloud65-35_D0.9_2.tif,0.9,1,,,,,0,105,105,40,,,,,,,,,,,,,,,,,,,1,space,1.89000056544,2,0.636,,,,,2019_Jan_09_1622,60.03913493842969,Cloud_Experiment_FR,001,01,
images/fcloud_D1.7_1.tif,1.7,0,,,,,0,106,106,27,,,,,,,,,,,,,,,,,,,1,None,,1,1.085,,,,,2019_Jan_09_1622,60.03913493842969,Cloud_Experiment_FR,001,01,
images/fcloud65-35_D1.7_2.tif,1.7,1,,,,,0,107,107,64,,,,,,,,,,,,,,,,,,,None,None,,None,10.527,,,,,2019_Jan_09_1622,60.03913493842969,Cloud_Experiment_FR,001,01,
,,,,,,,,,,,,,,,,,,,,,,,,,7,103.425,,,,,,,,,,,,2019_Jan_09_1622,60.03913493842969,Cloud_Experiment_FR,001,01,
,,,,,,,,,,,,,,,,,,,,,,,,,,,,,,,,,,,,space,1.55060735822,2019_Jan_09_1622,60.03913493842969,Cloud_Experiment_FR,001,01,
images/fcloud65-35_D1.5_4.tif,1.5,1,,,,,,,,,0,0,0,57,,,,,,,,,,,,,,,1,space,5.73780631367,2,0.653,,,,,2019_Jan_09_1622,60.03913493842969,Cloud_Experiment_FR,001,01,
images/fcloud80-20_D1.6_5.tif,1.6,2,,,,,,,,,0,1,1,97,,,,,,,,,,,,,,,1,space,5.85369067139,3,1.202,,,,,2019_Jan_09_1622,60.03913493842969,Cloud_Experiment_FR,001,01,
images/fcloud_D1.2_6.tif,1.2,0,,,,,,,,,0,2,2,14,,,,,,,,,,,,,,,None,None,,None,10.543,,,,,2019_Jan_09_1622,60.03913493842969,Cloud_Experiment_FR,001,01,
images/fcloud_D1.7_6.tif,1.7,0,,,,,,,,,0,3,3,29,,,,,,,,,,,,,,,1,space,6.10070837033,4,0.619,,,,,2019_Jan_09_1622,60.03913493842969,Cloud_Experiment_FR,001,01,
images/fcloud80-20_D0.8_6.tif,0.8,2,,,,,,,,,0,4,4,74,,,,,,,,,,,,,,,None,space,9.48266240349,None,11.225,,,,,2019_Jan_09_1622,60.03913493842969,Cloud_Experiment_FR,001,01,
images/fcloud_D0.9_4.tif,0.9,0,,,,,,,,,0,5,5,3,,,,,,,,,,,,,,,1,space,2.54511209007,4,0.655,,,,,2019_Jan_09_1622,60.03913493842969,Cloud_Experiment_FR,001,01,
images/fcloud80-20_D1.8_5.tif,1.8,2,,,,,,,,,0,6,6,103,,,,,,,,,,,,,,,None,None,,None,9.693,,,,,2019_Jan_09_1622,60.03913493842969,Cloud_Experiment_FR,001,01,
images/fcloud65-35_D1.1_5.tif,1.1,1,,,,,,,,,0,7,7,46,,,,,,,,,,,,,,,2,space,5.26820403943,3,1.068,,,,,2019_Jan_09_1622,60.03913493842969,Cloud_Experiment_FR,001,01,
images/fcloud65-35_D1.9_6.tif,1.9,1,,,,,,,,,0,8,8,71,,,,,,,,,,,,,,,None,None,,None,10.575,,,,,2019_Jan_09_1622,60.03913493842969,Cloud_Experiment_FR,001,01,
images/fcloud65-35_D0.8_6.tif,0.8,1,,,,,,,,,0,9,9,38,,,,,,,,,,,,,,,1,space,1.60902324051,4,1.019,,,,,2019_Jan_09_1622,60.03913493842969,Cloud_Experiment_FR,001,01,
images/fcloud80-20_D1.4_4.tif,1.4,2,,,,,,,,,0,10,10,90,,,,,,,,,,,,,,,None,None,,None,10.525,,,,,2019_Jan_09_1622,60.03913493842969,Cloud_Experiment_FR,001,01,
images/fcloud65-35_D0.8_5.tif,0.8,1,,,,,,,,,0,11,11,37,,,,,,,,,,,,,,,1,space,3.47148423642,4,0.619,,,,,2019_Jan_09_1622,60.03913493842969,Cloud_Experiment_FR,001,01,
images/fcloud80-20_D1.7_4.tif,1.7,2,,,,,,,,,0,12,12,99,,,,,,,,,,,,,,,1,space,5.80646580749,5,1.868,,,,,2019_Jan_09_1622,60.03913493842969,Cloud_Experiment_FR,001,01,
images/fcloud_D1.8_5.tif,1.8,0,,,,,,,,,0,13,13,31,,,,,,,,,,,,,,,1,None,,1,1.085,,,,,2019_Jan_09_1622,60.03913493842969,Cloud_Experiment_FR,001,01,
images/fcloud_D1.9_6.tif,1.9,0,,,,,,,,,0,14,14,35,,,,,,,,,,,,,,,None,None,,None,10.392,,,,,2019_Jan_09_1622,60.03913493842969,Cloud_Experiment_FR,001,01,
images/fcloud65-35_D1.2_6.tif,1.2,1,,,,,,,,,0,15,15,50,,,,,,,,,,,,,,,1,space,3.37207437376,3,1.269,,,,,2019_Jan_09_1622,60.03913493842969,Cloud_Experiment_FR,001,01,
images/fcloud80-20_D1_6.tif,1.0,2,,,,,,,,,0,16,16,80,,,,,,,,,,,,,,,1,space,1.75670098851,3,1.019,,,,,2019_Jan_09_1622,60.03913493842969,Cloud_Experiment_FR,001,01,
images/fcloud65-35_D1.2_4.tif,1.2,1,,,,,,,,,0,17,17,48,,,,,,,,,,,,,,,None,None,,None,11.327,,,,,2019_Jan_09_1622,60.03913493842969,Cloud_Experiment_FR,001,01,
images/fcloud_D1.7_5.tif,1.7,0,,,,,,,,,0,18,18,28,,,,,,,,,,,,,,,1,space,6.37521063478,2,1.568,,,,,2019_Jan_09_1622,60.03913493842969,Cloud_Experiment_FR,001,01,
images/fcloud80-20_D1_4.tif,1.0,2,,,,,,,,,0,19,19,78,,,,,,,,,,,,,,,None,None,,None,11.16,,,,,2019_Jan_09_1622,60.03913493842969,Cloud_Experiment_FR,001,01,
images/fcloud_D0.9_5.tif,0.9,0,,,,,,,,,0,20,20,4,,,,,,,,,,,,,,,1,space,6.40811952855,3,0.751,,,,,2019_Jan_09_1622,60.03913493842969,Cloud_Experiment_FR,001,01,
images/fcloud65-35_D1.6_4.tif,1.6,1,,,,,,,,,0,21,21,60,,,,,,,,,,,,,,,1,space,5.57916784473,4,1.052,,,,,2019_Jan_09_1622,60.03913493842969,Cloud_Experiment_FR,001,01,
images/fcloud_D1_5.tif,1.0,0,,,,,,,,,0,22,22,7,,,,,,,,,,,,,,,1,space,2.60277590714,1,5.448,,,,,2019_Jan_09_1622,60.03913493842969,Cloud_Experiment_FR,001,01,
images/fcloud80-20_D1.9_6.tif,1.9,2,,,,,,,,,0,23,23,107,,,,,,,,,,,,,,,None,None,,None,14.939,,,,,2019_Jan_09_1622,60.03913493842969,Cloud_Experiment_FR,001,01,
images/fcloud65-35_D1_6.tif,1.0,1,,,,,,,,,0,24,24,44,,,,,,,,,,,,,,,1,space,2.62944209413,2,1.252,,,,,2019_Jan_09_1622,60.03913493842969,Cloud_Experiment_FR,001,01,
images/fcloud65-35_D0.9_5.tif,0.9,1,,,,,,,,,0,25,25,40,,,,,,,,,,,,,,,None,None,,None,10.825,,,,,2019_Jan_09_1622,60.03913493842969,Cloud_Experiment_FR,001,01,
images/fcloud65-35_D1.1_4.tif,1.1,1,,,,,,,,,0,26,26,45,,,,,,,,,,,,,,,2,space,1.67939454387,4,0.553,,,,,2019_Jan_09_1622,60.03913493842969,Cloud_Experiment_FR,001,01,
images/fcloud_D1.8_4.tif,1.8,0,,,,,,,,,0,27,27,30,,,,,,,,,,,,,,,None,None,,None,9.66,,,,,2019_Jan_09_1622,60.03913493842969,Cloud_Experiment_FR,001,01,
images/fcloud_D1.5_4.tif,1.5,0,,,,,,,,,0,28,28,21,,,,,,,,,,,,,,,1,space,5.77901002928,3,0.469,,,,,2019_Jan_09_1622,60.03913493842969,Cloud_Experiment_FR,001,01,
images/fcloud65-35_D0.9_6.tif,0.9,1,,,,,,,,,0,29,29,41,,,,,,,,,,,,,,,1,space,6.48472891212,1,0.652,,,,,2019_Jan_09_1622,60.03913493842969,Cloud_Experiment_FR,001,01,
images/fcloud65-35_D1.3_5.tif,1.3,1,,,,,,,,,0,30,30,52,,,,,,,,,,,,,,,2,space,2.37376048032,4,0.42,,,,,2019_Jan_09_1622,60.03913493842969,Cloud_Experiment_FR,001,01,
images/fcloud80-20_D1.1_4.tif,1.1,2,,,,,,,,,0,31,31,81,,,,,,,,,,,,,,,1,space,5.96606967528,3,0.436,,,,,2019_Jan_09_1622,60.03913493842969,Cloud_Experiment_FR,001,01,
images/fcloud65-35_D1_4.tif,1.0,1,,,,,,,,,0,32,32,42,,,,,,,,,,,,,,,1,space,1.3083960911,5,0.936,,,,,2019_Jan_09_1622,60.03913493842969,Cloud_Experiment_FR,001,01,
images/fcloud_D1.6_4.tif,1.6,0,,,,,,,,,0,33,33,24,,,,,,,,,,,,,,,1,space,7.40046059492,2,0.485,,,,,2019_Jan_09_1622,60.03913493842969,Cloud_Experiment_FR,001,01,
images/fcloud80-20_D0.8_5.tif,0.8,2,,,,,,,,,0,34,34,73,,,,,,,,,,,,,,,1,space,1.52697976155,3,1.119,,,,,2019_Jan_09_1622,60.03913493842969,Cloud_Experiment_FR,001,01,
images/fcloud80-20_D1.3_4.tif,1.3,2,,,,,,,,,0,35,35,87,,,,,,,,,,,,,,,None,None,,None,10.544,,,,,2019_Jan_09_1622,60.03913493842969,Cloud_Experiment_FR,001,01,
images/fcloud_D1.3_6.tif,1.3,0,,,,,,,,,0,36,36,17,,,,,,,,,,,,,,,2,space,3.05677861115,4,0.986,,,,,2019_Jan_09_1622,60.03913493842969,Cloud_Experiment_FR,001,01,
images/fcloud_D1.3_4.tif,1.3,0,,,,,,,,,0,37,37,15,,,,,,,,,,,,,,,2,space,2.75291238935,2,0.952,,,,,2019_Jan_09_1622,60.03913493842969,Cloud_Experiment_FR,001,01,
images/fcloud_D0.8_5.tif,0.8,0,,,,,,,,,0,38,38,1,,,,,,,,,,,,,,,2,space,4.09051410831,3,2.367,,,,,2019_Jan_09_1622,60.03913493842969,Cloud_Experiment_FR,001,01,
images/fcloud80-20_D1.7_6.tif,1.7,2,,,,,,,,,0,39,39,101,,,,,,,,,,,,,,,2,space,5.30395206937,4,2.384,,,,,2019_Jan_09_1622,60.03913493842969,Cloud_Experiment_FR,001,01,
images/fcloud80-20_D1.2_4.tif,1.2,2,,,,,,,,,0,40,40,84,,,,,,,,,,,,,,,None,None,,None,11.659,,,,,2019_Jan_09_1622,60.03913493842969,Cloud_Experiment_FR,001,01,
images/fcloud_D1.9_5.tif,1.9,0,,,,,,,,,0,41,41,34,,,,,,,,,,,,,,,3,space,3.21879957442,4,0.902,,,,,2019_Jan_09_1622,60.03913493842969,Cloud_Experiment_FR,001,01,
images/fcloud80-20_D0.8_4.tif,0.8,2,,,,,,,,,0,42,42,72,,,,,,,,,,,,,,,1,space,6.66957811359,2,3.033,,,,,2019_Jan_09_1622,60.03913493842969,Cloud_Experiment_FR,001,01,
images/fcloud65-35_D1.5_5.tif,1.5,1,,,,,,,,,0,43,43,58,,,,,,,,,,,,,,,None,space,3.03482889617,None,12.508,,,,,2019_Jan_09_1622,60.03913493842969,Cloud_Experiment_FR,001,01,
images/fcloud_D1_4.tif,1.0,0,,,,,,,,,0,44,44,6,,,,,,,,,,,,,,,3,space,4.27166158601,4,1.202,,,,,2019_Jan_09_1622,60.03913493842969,Cloud_Experiment_FR,001,01,
images/fcloud65-35_D1_5.tif,1.0,1,,,,,,,,,0,45,45,43,,,,,,,,,,,,,,,1,space,3.70318252617,3,4.05,,,,,2019_Jan_09_1622,60.03913493842969,Cloud_Experiment_FR,001,01,
images/fcloud80-20_D1.5_5.tif,1.5,2,,,,,,,,,0,46,46,94,,,,,,,,,,,,,,,None,None,,None,13.208,,,,,2019_Jan_09_1622,60.03913493842969,Cloud_Experiment_FR,001,01,
images/fcloud80-20_D0.9_4.tif,0.9,2,,,,,,,,,0,47,47,75,,,,,,,,,,,,,,,None,None,,None,22.534,,,,,2019_Jan_09_1622,60.03913493842969,Cloud_Experiment_FR,001,01,
images/fcloud65-35_D1.7_4.tif,1.7,1,,,,,,,,,0,48,48,63,,,,,,,,,,,,,,,2,space,1.79200230294,3,1.319,,,,,2019_Jan_09_1622,60.03913493842969,Cloud_Experiment_FR,001,01,
images/fcloud_D0.8_4.tif,0.8,0,,,,,,,,,0,49,49,0,,,,,,,,,,,,,,,2,space,2.90578776645,4,1.202,,,,,2019_Jan_09_1622,60.03913493842969,Cloud_Experiment_FR,001,01,
images/fcloud65-35_D1.7_6.tif,1.7,1,,,,,,,,,0,50,50,65,,,,,,,,,,,,,,,None,None,,None,11.393,,,,,2019_Jan_09_1622,60.03913493842969,Cloud_Experiment_FR,001,01,
images/fcloud80-20_D1.1_5.tif,1.1,2,,,,,,,,,0,51,51,82,,,,,,,,,,,,,,,1,space,6.54965275456,2,1.069,,,,,2019_Jan_09_1622,60.03913493842969,Cloud_Experiment_FR,001,01,
images/fcloud80-20_D1.3_5.tif,1.3,2,,,,,,,,,0,52,52,88,,,,,,,,,,,,,,,1,space,7.0804735492,4,1.418,,,,,2019_Jan_09_1622,60.03913493842969,Cloud_Experiment_FR,001,01,
images/fcloud65-35_D0.8_4.tif,0.8,1,,,,,,,,,0,53,53,36,,,,,,,,,,,,,,,1,space,6.58528306545,3,1.102,,,,,2019_Jan_09_1622,60.03913493842969,Cloud_Experiment_FR,001,01,
images/fcloud65-35_D1.3_4.tif,1.3,1,,,,,,,,,0,54,54,51,,,,,,,,,,,,,,,1,space,6.13455901633,3,1.452,,,,,2019_Jan_09_1622,60.03913493842969,Cloud_Experiment_FR,001,01,
images/fcloud80-20_D1.6_4.tif,1.6,2,,,,,,,,,0,55,55,96,,,,,,,,,,,,,,,1,space,4.30317224504,2,1.802,,,,,2019_Jan_09_1622,60.03913493842969,Cloud_Experiment_FR,001,01,
images/fcloud65-35_D1.3_6.tif,1.3,1,,,,,,,,,0,56,56,53,,,,,,,,,,,,,,,1,space,3.78660264937,3,1.502,,,,,2019_Jan_09_1622,60.03913493842969,Cloud_Experiment_FR,001,01,
images/fcloud_D1_6.tif,1.0,0,,,,,,,,,0,57,57,8,,,,,,,,,,,,,,,2,space,1.68983709533,4,1.285,,,,,2019_Jan_09_1622,60.03913493842969,Cloud_Experiment_FR,001,01,
images/fcloud_D1.3_5.tif,1.3,0,,,,,,,,,0,58,58,16,,,,,,,,,,,,,,,2,space,2.15463345172,4,1.219,,,,,2019_Jan_09_1622,60.03913493842969,Cloud_Experiment_FR,001,01,
images/fcloud65-35_D1.6_5.tif,1.6,1,,,,,,,,,0,59,59,61,,,,,,,,,,,,,,,1,None,,2,1.002,,,,,2019_Jan_09_1622,60.03913493842969,Cloud_Experiment_FR,001,01,
images/fcloud_D1.4_6.tif,1.4,0,,,,,,,,,0,60,60,20,,,,,,,,,,,,,,,1,space,4.1876754862,1,1.251,,,,,2019_Jan_09_1622,60.03913493842969,Cloud_Experiment_FR,001,01,
images/fcloud80-20_D0.9_6.tif,0.9,2,,,,,,,,,0,61,61,77,,,,,,,,,,,,,,,1,space,4.9563658234,4,0.852,,,,,2019_Jan_09_1622,60.03913493842969,Cloud_Experiment_FR,001,01,
images/fcloud65-35_D1.6_6.tif,1.6,1,,,,,,,,,0,62,62,62,,,,,,,,,,,,,,,1,space,5.20387084829,4,0.819,,,,,2019_Jan_09_1622,60.03913493842969,Cloud_Experiment_FR,001,01,
images/fcloud65-35_D1.1_6.tif,1.1,1,,,,,,,,,0,63,63,47,,,,,,,,,,,,,,,None,None,,None,10.159,,,,,2019_Jan_09_1622,60.03913493842969,Cloud_Experiment_FR,001,01,
images/fcloud_D1.1_4.tif,1.1,0,,,,,,,,,0,64,64,9,,,,,,,,,,,,,,,1,space,7.46093578916,3,0.952,,,,,2019_Jan_09_1622,60.03913493842969,Cloud_Experiment_FR,001,01,
images/fcloud_D1.2_4.tif,1.2,0,,,,,,,,,0,65,65,12,,,,,,,,,,,,,,,None,None,,None,10.043,,,,,2019_Jan_09_1622,60.03913493842969,Cloud_Experiment_FR,001,01,
images/fcloud80-20_D1.8_4.tif,1.8,2,,,,,,,,,0,66,66,102,,,,,,,,,,,,,,,1,space,5.04879376548,4,0.819,,,,,2019_Jan_09_1622,60.03913493842969,Cloud_Experiment_FR,001,01,
images/fcloud80-20_D1.9_4.tif,1.9,2,,,,,,,,,0,67,67,105,,,,,,,,,,,,,,,1,space,7.56269900419,2,0.836,,,,,2019_Jan_09_1622,60.03913493842969,Cloud_Experiment_FR,001,01,
images/fcloud80-20_D0.9_5.tif,0.9,2,,,,,,,,,0,68,68,76,,,,,,,,,,,,,,,None,None,,None,9.893,,,,,2019_Jan_09_1622,60.03913493842969,Cloud_Experiment_FR,001,01,
images/fcloud80-20_D1.2_5.tif,1.2,2,,,,,,,,,0,69,69,85,,,,,,,,,,,,,,,1,space,1.44941166195,3,1.085,,,,,2019_Jan_09_1622,60.03913493842969,Cloud_Experiment_FR,001,01,
images/fcloud65-35_D1.4_6.tif,1.4,1,,,,,,,,,0,70,70,56,,,,,,,,,,,,,,,None,None,,None,11.374,,,,,2019_Jan_09_1622,60.03913493842969,Cloud_Experiment_FR,001,01,
images/fcloud65-35_D1.4_4.tif,1.4,1,,,,,,,,,0,71,71,54,,,,,,,,,,,,,,,2,space,1.82592337474,3,1.07,,,,,2019_Jan_09_1622,60.03913493842969,Cloud_Experiment_FR,001,01,
images/fcloud_D1.4_4.tif,1.4,0,,,,,,,,,0,72,72,18,,,,,,,,,,,,,,,2,space,4.79163321014,3,1.202,,,,,2019_Jan_09_1622,60.03913493842969,Cloud_Experiment_FR,001,01,
images/fcloud_D1.9_4.tif,1.9,0,,,,,,,,,0,73,73,33,,,,,,,,,,,,,,,5,space,6.38579455204,4,2.018,,,,,2019_Jan_09_1622,60.03913493842969,Cloud_Experiment_FR,001,01,
images/fcloud_D1.1_6.tif,1.1,0,,,,,,,,,0,74,74,11,,,,,,,,,,,,,,,2,space,1.90593273053,3,1.218,,,,,2019_Jan_09_1622,60.03913493842969,Cloud_Experiment_FR,001,01,
images/fcloud65-35_D0.9_4.tif,0.9,1,,,,,,,,,0,75,75,39,,,,,,,,,,,,,,,1,space,7.73737296369,3,0.819,,,,,2019_Jan_09_1622,60.03913493842969,Cloud_Experiment_FR,001,01,
images/fcloud65-35_D1.9_4.tif,1.9,1,,,,,,,,,0,76,76,69,,,,,,,,,,,,,,,None,None,,None,10.027,,,,,2019_Jan_09_1622,60.03913493842969,Cloud_Experiment_FR,001,01,
images/fcloud_D1.7_4.tif,1.7,0,,,,,,,,,0,77,77,27,,,,,,,,,,,,,,,1,space,7.89023857389,3,0.901,,,,,2019_Jan_09_1622,60.03913493842969,Cloud_Experiment_FR,001,01,
images/fcloud80-20_D1.4_6.tif,1.4,2,,,,,,,,,0,78,78,92,,,,,,,,,,,,,,,1,space,4.12685227545,4,0.752,,,,,2019_Jan_09_1622,60.03913493842969,Cloud_Experiment_FR,001,01,
images/fcloud_D1.6_6.tif,1.6,0,,,,,,,,,0,79,79,26,,,,,,,,,,,,,,,3,space,1.62052988983,4,1.335,,,,,2019_Jan_09_1622,60.03913493842969,Cloud_Experiment_FR,001,01,
images/fcloud65-35_D1.8_5.tif,1.8,1,,,,,,,,,0,80,80,67,,,,,,,,,,,,,,,None,None,,None,10.659,,,,,2019_Jan_09_1622,60.03913493842969,Cloud_Experiment_FR,001,01,
images/fcloud80-20_D1.1_6.tif,1.1,2,,,,,,,,,0,81,81,83,,,,,,,,,,,,,,,1,space,6.26201993506,1,2.334,,,,,2019_Jan_09_1622,60.03913493842969,Cloud_Experiment_FR,001,01,
images/fcloud80-20_D1.6_6.tif,1.6,2,,,,,,,,,0,82,82,98,,,,,,,,,,,,,,,None,None,,None,11.809,,,,,2019_Jan_09_1622,60.03913493842969,Cloud_Experiment_FR,001,01,
images/fcloud_D0.8_6.tif,0.8,0,,,,,,,,,0,83,83,2,,,,,,,,,,,,,,,1,space,5.19197762816,2,1.153,,,,,2019_Jan_09_1622,60.03913493842969,Cloud_Experiment_FR,001,01,
images/fcloud65-35_D1.2_5.tif,1.2,1,,,,,,,,,0,84,84,49,,,,,,,,,,,,,,,3,space,4.53731795959,4,1.134,,,,,2019_Jan_09_1622,60.03913493842969,Cloud_Experiment_FR,001,01,
images/fcloud80-20_D1.5_6.tif,1.5,2,,,,,,,,,0,85,85,95,,,,,,,,,,,,,,,None,None,,None,10.693,,,,,2019_Jan_09_1622,60.03913493842969,Cloud_Experiment_FR,001,01,
images/fcloud_D1.6_5.tif,1.6,0,,,,,,,,,0,86,86,25,,,,,,,,,,,,,,,None,None,,None,20.302,,,,,2019_Jan_09_1622,60.03913493842969,Cloud_Experiment_FR,001,01,
images/fcloud_D1.5_6.tif,1.5,0,,,,,,,,,0,87,87,23,,,,,,,,,,,,,,,1,space,6.32576812943,3,0.785,,,,,2019_Jan_09_1622,60.03913493842969,Cloud_Experiment_FR,001,01,
images/fcloud65-35_D1.5_6.tif,1.5,1,,,,,,,,,0,88,88,59,,,,,,,,,,,,,,,None,None,,None,9.776,,,,,2019_Jan_09_1622,60.03913493842969,Cloud_Experiment_FR,001,01,
images/fcloud65-35_D1.9_5.tif,1.9,1,,,,,,,,,0,89,89,70,,,,,,,,,,,,,,,3,space,2.93701723625,5,0.735,,,,,2019_Jan_09_1622,60.03913493842969,Cloud_Experiment_FR,001,01,
images/fcloud80-20_D1.8_6.tif,1.8,2,,,,,,,,,0,90,90,104,,,,,,,,,,,,,,,1,space,4.57225583587,3,0.788,,,,,2019_Jan_09_1622,60.03913493842969,Cloud_Experiment_FR,001,01,
images/fcloud_D1.5_5.tif,1.5,0,,,,,,,,,0,91,91,22,,,,,,,,,,,,,,,None,None,,None,10.026,,,,,2019_Jan_09_1622,60.03913493842969,Cloud_Experiment_FR,001,01,
images/fcloud80-20_D1_5.tif,1.0,2,,,,,,,,,0,92,92,79,,,,,,,,,,,,,,,1,space,6.16641666368,3,3.001,,,,,2019_Jan_09_1622,60.03913493842969,Cloud_Experiment_FR,001,01,
images/fcloud80-20_D1.9_5.tif,1.9,2,,,,,,,,,0,93,93,106,,,,,,,,,,,,,,,None,None,,None,12.258,,,,,2019_Jan_09_1622,60.03913493842969,Cloud_Experiment_FR,001,01,
images/fcloud65-35_D1.8_4.tif,1.8,1,,,,,,,,,0,94,94,66,,,,,,,,,,,,,,,2,space,3.24548066896,4,0.684,,,,,2019_Jan_09_1622,60.03913493842969,Cloud_Experiment_FR,001,01,
images/fcloud65-35_D1.4_5.tif,1.4,1,,,,,,,,,0,95,95,55,,,,,,,,,,,,,,,1,space,1.7068282176,4,1.652,,,,,2019_Jan_09_1622,60.03913493842969,Cloud_Experiment_FR,001,01,
images/fcloud_D1.4_5.tif,1.4,0,,,,,,,,,0,96,96,19,,,,,,,,,,,,,,,1,space,4.33184119756,3,1.985,,,,,2019_Jan_09_1622,60.03913493842969,Cloud_Experiment_FR,001,01,
images/fcloud80-20_D1.5_4.tif,1.5,2,,,,,,,,,0,97,97,93,,,,,,,,,,,,,,,None,None,,None,11.641,,,,,2019_Jan_09_1622,60.03913493842969,Cloud_Experiment_FR,001,01,
images/fcloud65-35_D1.8_6.tif,1.8,1,,,,,,,,,0,98,98,68,,,,,,,,,,,,,,,1,space,3.76516904763,3,1.45,,,,,2019_Jan_09_1622,60.03913493842969,Cloud_Experiment_FR,001,01,
images/fcloud65-35_D1.7_5.tif,1.7,1,,,,,,,,,0,99,99,64,,,,,,,,,,,,,,,1,space,6.76885020896,4,1.319,,,,,2019_Jan_09_1622,60.03913493842969,Cloud_Experiment_FR,001,01,
images/fcloud80-20_D1.2_6.tif,1.2,2,,,,,,,,,0,100,100,86,,,,,,,,,,,,,,,1,None,,1,1.468,,,,,2019_Jan_09_1622,60.03913493842969,Cloud_Experiment_FR,001,01,
images/fcloud_D0.9_6.tif,0.9,0,,,,,,,,,0,101,101,5,,,,,,,,,,,,,,,None,None,,None,11.074,,,,,2019_Jan_09_1622,60.03913493842969,Cloud_Experiment_FR,001,01,
images/fcloud80-20_D1.3_6.tif,1.3,2,,,,,,,,,0,102,102,89,,,,,,,,,,,,,,,None,None,,None,20.949,,,,,2019_Jan_09_1622,60.03913493842969,Cloud_Experiment_FR,001,01,
images/fcloud_D1.2_5.tif,1.2,0,,,,,,,,,0,103,103,13,,,,,,,,,,,,,,,None,None,,None,30.175,,,,,2019_Jan_09_1622,60.03913493842969,Cloud_Experiment_FR,001,01,
images/fcloud_D1.8_6.tif,1.8,0,,,,,,,,,0,104,104,32,,,,,,,,,,,,,,,1,space,6.03481244633,3,0.951,,,,,2019_Jan_09_1622,60.03913493842969,Cloud_Experiment_FR,001,01,
images/fcloud80-20_D1.4_5.tif,1.4,2,,,,,,,,,0,105,105,91,,,,,,,,,,,,,,,None,None,,None,11.257,,,,,2019_Jan_09_1622,60.03913493842969,Cloud_Experiment_FR,001,01,
images/fcloud80-20_D1.7_5.tif,1.7,2,,,,,,,,,0,106,106,100,,,,,,,,,,,,,,,2,space,3.15602654591,3,1.602,,,,,2019_Jan_09_1622,60.03913493842969,Cloud_Experiment_FR,001,01,
images/fcloud_D1.1_5.tif,1.1,0,,,,,,,,,0,107,107,10,,,,,,,,,,,,,,,None,None,,None,10.777,,,,,2019_Jan_09_1622,60.03913493842969,Cloud_Experiment_FR,001,01,
,,,,,,,,,,,,,,,,,,,,,,,,,5,514.639,,,,,,,,,,,,2019_Jan_09_1622,60.03913493842969,Cloud_Experiment_FR,001,01,
,,,,,,,,,,,,,,,,,,,,,,,,,,,,,,,,,,,,space,1.28438655019,2019_Jan_09_1622,60.03913493842969,Cloud_Experiment_FR,001,01,
images/fcloud80-20_D0.8_9.tif,0.8,2,,,,,,,,,,,,,0,0,0,98,,,,,,,,,,,None,None,,None,535.818,,,,,2019_Jan_09_1622,60.03913493842969,Cloud_Experiment_FR,001,01,
images/fcloud65-35_D1.2_9.tif,1.2,1,,,,,,,,,,,,,0,1,1,66,,,,,,,,,,,None,None,,None,545.177,,,,,2019_Jan_09_1622,60.03913493842969,Cloud_Experiment_FR,001,01,
images/fcloud65-35_D1.6_9.tif,1.6,1,,,,,,,,,,,,,0,2,2,82,,,,,,,,,,,1,space,5.18803172768,3,1.235,,,,,2019_Jan_09_1622,60.03913493842969,Cloud_Experiment_FR,001,01,
images/fcloud65-35_D1.7_8.tif,1.7,1,,,,,,,,,,,,,0,3,3,85,,,,,,,,,,,2,space,6.25276691117,3,1.086,,,,,2019_Jan_09_1622,60.03913493842969,Cloud_Experiment_FR,001,01,
images/fcloud_D1.6_8.tif,1.6,0,,,,,,,,,,,,,0,4,4,33,,,,,,,,,,,1,space,6.54838611837,3,0.652,,,,,2019_Jan_09_1622,60.03913493842969,Cloud_Experiment_FR,001,01,
images/fcloud80-20_D1.3_9.tif,1.3,2,,,,,,,,,,,,,0,5,5,118,,,,,,,,,,,None,None,,None,10.625,,,,,2019_Jan_09_1622,60.03913493842969,Cloud_Experiment_FR,001,01,
images/fcloud65-35_D0.8_7.tif,0.8,1,,,,,,,,,,,,,0,6,6,48,,,,,,,,,,,2,space,2.7222221652,2,0.684,,,,,2019_Jan_09_1622,60.03913493842969,Cloud_Experiment_FR,001,01,
images/fcloud_D1.7_10.tif,1.7,0,,,,,,,,,,,,,0,7,7,39,,,,,,,,,,,None,None,,None,10.11,,,,,2019_Jan_09_1622,60.03913493842969,Cloud_Experiment_FR,001,01,
images/fcloud65-35_D0.8_8.tif,0.8,1,,,,,,,,,,,,,0,8,8,49,,,,,,,,,,,1,space,1.62894500105,5,1.136,,,,,2019_Jan_09_1622,60.03913493842969,Cloud_Experiment_FR,001,01,
images/fcloud65-35_D1_9.tif,1.0,1,,,,,,,,,,,,,0,9,9,58,,,,,,,,,,,2,space,6.420775095,2,1.201,,,,,2019_Jan_09_1622,60.03913493842969,Cloud_Experiment_FR,001,01,
images/fcloud80-20_D1.7_7.tif,1.7,2,,,,,,,,,,,,,0,10,10,132,,,,,,,,,,,None,None,,None,11.109,,,,,2019_Jan_09_1622,60.03913493842969,Cloud_Experiment_FR,001,01,
images/fcloud80-20_D1.1_7.tif,1.1,2,,,,,,,,,,,,,0,11,11,108,,,,,,,,,,,1,space,1.6249980724,3,1.801,,,,,2019_Jan_09_1622,60.03913493842969,Cloud_Experiment_FR,001,01,
images/fcloud80-20_D1.4_8.tif,1.4,2,,,,,,,,,,,,,0,12,12,121,,,,,,,,,,,None,None,,None,11.142,,,,,2019_Jan_09_1622,60.03913493842969,Cloud_Experiment_FR,001,01,
images/fcloud80-20_D1.9_7.tif,1.9,2,,,,,,,,,,,,,0,13,13,140,,,,,,,,,,,None,None,,None,20.517,,,,,2019_Jan_09_1622,60.03913493842969,Cloud_Experiment_FR,001,01,
images/fcloud65-35_D1.7_10.tif,1.7,1,,,,,,,,,,,,,0,14,14,87,,,,,,,,,,,1,None,,1,1.319,,,,,2019_Jan_09_1622,60.03913493842969,Cloud_Experiment_FR,001,01,
images/fcloud65-35_D1.1_8.tif,1.1,1,,,,,,,,,,,,,0,15,15,61,,,,,,,,,,,2,space,4.93635410292,3,1.35,,,,,2019_Jan_09_1622,60.03913493842969,Cloud_Experiment_FR,001,01,
images/fcloud65-35_D1.8_7.tif,1.8,1,,,,,,,,,,,,,0,16,16,88,,,,,,,,,,,None,None,,None,10.692,,,,,2019_Jan_09_1622,60.03913493842969,Cloud_Experiment_FR,001,01,
images/fcloud_D1.2_7.tif,1.2,0,,,,,,,,,,,,,0,17,17,16,,,,,,,,,,,None,None,,None,19.968,,,,,2019_Jan_09_1622,60.03913493842969,Cloud_Experiment_FR,001,01,
images/fcloud65-35_D1.3_7.tif,1.3,1,,,,,,,,,,,,,0,18,18,68,,,,,,,,,,,None,None,,None,29.259,,,,,2019_Jan_09_1622,60.03913493842969,Cloud_Experiment_FR,001,01,
images/fcloud65-35_D1.5_10.tif,1.5,1,,,,,,,,,,,,,0,19,19,79,,,,,,,,,,,None,None,,None,38.318,,,,,2019_Jan_09_1622,60.03913493842969,Cloud_Experiment_FR,001,01,
images/fcloud_D1_10.tif,1.0,0,,,,,,,,,,,,,0,20,20,11,,,,,,,,,,,1,space,1.40723792091,3,1.135,,,,,2019_Jan_09_1622,60.03913493842969,Cloud_Experiment_FR,001,01,
images/fcloud65-35_D1.5_8.tif,1.5,1,,,,,,,,,,,,,0,21,21,77,,,,,,,,,,,None,None,,None,10.308,,,,,2019_Jan_09_1622,60.03913493842969,Cloud_Experiment_FR,001,01,
images/fcloud65-35_D0.8_10.tif,0.8,1,,,,,,,,,,,,,0,22,22,51,,,,,,,,,,,1,space,5.01256817684,2,1.118,,,,,2019_Jan_09_1622,60.03913493842969,Cloud_Experiment_FR,001,01,
images/fcloud_D0.8_8.tif,0.8,0,,,,,,,,,,,,,0,23,23,1,,,,,,,,,,,None,None,,None,10.642,,,,,2019_Jan_09_1622,60.03913493842969,Cloud_Experiment_FR,001,01,
images/fcloud80-20_D0.8_8.tif,0.8,2,,,,,,,,,,,,,0,24,24,97,,,,,,,,,,,1,space,3.36569081538,3,1.585,,,,,2019_Jan_09_1622,60.03913493842969,Cloud_Experiment_FR,001,01,
images/fcloud80-20_D1.8_8.tif,1.8,2,,,,,,,,,,,,,0,25,25,137,,,,,,,,,,,None,None,,None,10.475,,,,,2019_Jan_09_1622,60.03913493842969,Cloud_Experiment_FR,001,01,
images/fcloud80-20_D0.9_10.tif,0.9,2,,,,,,,,,,,,,0,26,26,103,,,,,,,,,,,None,None,,None,20.117,,,,,2019_Jan_09_1622,60.03913493842969,Cloud_Experiment_FR,001,01,
images/fcloud65-35_D1.5_9.tif,1.5,1,,,,,,,,,,,,,0,27,27,78,,,,,,,,,,,1,space,7.94388914877,1,1.585,,,,,2019_Jan_09_1622,60.03913493842969,Cloud_Experiment_FR,001,01,
images/fcloud80-20_D1.6_9.tif,1.6,2,,,,,,,,,,,,,0,28,28,130,,,,,,,,,,,None,None,,None,12.857,,,,,2019_Jan_09_1622,60.03913493842969,Cloud_Experiment_FR,001,01,
images/fcloud65-35_D1.9_8.tif,1.9,1,,,,,,,,,,,,,0,29,29,93,,,,,,,,,,,None,None,,None,22.467,,,,,2019_Jan_09_1622,60.03913493842969,Cloud_Experiment_FR,001,01,
images/fcloud80-20_D1.2_10.tif,1.2,2,,,,,,,,,,,,,0,30,30,115,,,,,,,,,,,None,None,,None,31.624,,,,,2019_Jan_09_1622,60.03913493842969,Cloud_Experiment_FR,001,01,
images/fcloud_D1.3_8.tif,1.3,0,,,,,,,,,,,,,0,31,31,21,,,,,,,,,,,1,space,5.03993039671,1,1.418,,,,,2019_Jan_09_1622,60.03913493842969,Cloud_Experiment_FR,001,01,
images/fcloud_D1.2_9.tif,1.2,0,,,,,,,,,,,,,0,32,32,18,,,,,,,,,,,1,space,4.07113159343,5,0.936,,,,,2019_Jan_09_1622,60.03913493842969,Cloud_Experiment_FR,001,01,
images/fcloud_D0.9_8.tif,0.9,0,,,,,,,,,,,,,0,33,33,5,,,,,,,,,,,None,None,,None,10.476,,,,,2019_Jan_09_1622,60.03913493842969,Cloud_Experiment_FR,001,01,
images/fcloud80-20_D1.6_10.tif,1.6,2,,,,,,,,,,,,,0,34,34,131,,,,,,,,,,,2,space,5.48147081956,2,1.402,,,,,2019_Jan_09_1622,60.03913493842969,Cloud_Experiment_FR,001,01,
images/fcloud_D1.1_9.tif,1.1,0,,,,,,,,,,,,,0,35,35,14,,,,,,,,,,,2,space,4.25215466949,4,1.068,,,,,2019_Jan_09_1622,60.03913493842969,Cloud_Experiment_FR,001,01,
images/fcloud_D1.8_7.tif,1.8,0,,,,,,,,,,,,,0,36,36,40,,,,,,,,,,,2,space,7.13125979924,2,1.135,,,,,2019_Jan_09_1622,60.03913493842969,Cloud_Experiment_FR,001,01,
images/fcloud65-35_D1.8_10.tif,1.8,1,,,,,,,,,,,,,0,37,37,91,,,,,,,,,,,None,None,,None,10.976,,,,,2019_Jan_09_1622,60.03913493842969,Cloud_Experiment_FR,001,01,
images/fcloud_D1.1_10.tif,1.1,0,,,,,,,,,,,,,0,38,38,15,,,,,,,,,,,1,space,4.9593941326,4,1.702,,,,,2019_Jan_09_1622,60.03913493842969,Cloud_Experiment_FR,001,01,
images/fcloud80-20_D1.1_10.tif,1.1,2,,,,,,,,,,,,,0,39,39,111,,,,,,,,,,,1,space,1.35712508543,4,1.218,,,,,2019_Jan_09_1622,60.03913493842969,Cloud_Experiment_FR,001,01,
images/fcloud_D1.7_9.tif,1.7,0,,,,,,,,,,,,,0,40,40,38,,,,,,,,,,,None,None,,None,11.095,,,,,2019_Jan_09_1622,60.03913493842969,Cloud_Experiment_FR,001,01,
images/fcloud65-35_D1_8.tif,1.0,1,,,,,,,,,,,,,0,41,41,57,,,,,,,,,,,1,space,5.48483223759,1,1.052,,,,,2019_Jan_09_1622,60.03913493842969,Cloud_Experiment_FR,001,01,
images/fcloud_D1.9_8.tif,1.9,0,,,,,,,,,,,,,0,42,42,45,,,,,,,,,,,None,None,,None,10.46,,,,,2019_Jan_09_1622,60.03913493842969,Cloud_Experiment_FR,001,01,
images/fcloud65-35_D1.9_7.tif,1.9,1,,,,,,,,,,,,,0,43,43,92,,,,,,,,,,,None,None,,None,20.334,,,,,2019_Jan_09_1622,60.03913493842969,Cloud_Experiment_FR,001,01,
images/fcloud80-20_D1_9.tif,1.0,2,,,,,,,,,,,,,0,44,44,106,,,,,,,,,,,1,space,3.06969737471,2,1.436,,,,,2019_Jan_09_1622,60.03913493842969,Cloud_Experiment_FR,001,01,
images/fcloud80-20_D1.9_9.tif,1.9,2,,,,,,,,,,,,,0,45,45,142,,,,,,,,,,,None,None,,None,11.008,,,,,2019_Jan_09_1622,60.03913493842969,Cloud_Experiment_FR,001,01,
images/fcloud_D1.5_9.tif,1.5,0,,,,,,,,,,,,,0,46,46,30,,,,,,,,,,,2,space,2.35664906877,2,1.484,,,,,2019_Jan_09_1622,60.03913493842969,Cloud_Experiment_FR,001,01,
images/fcloud_D1.9_7.tif,1.9,0,,,,,,,,,,,,,0,47,47,44,,,,,,,,,,,None,None,,None,10.877,,,,,2019_Jan_09_1622,60.03913493842969,Cloud_Experiment_FR,001,01,
images/fcloud_D1.1_7.tif,1.1,0,,,,,,,,,,,,,0,48,48,12,,,,,,,,,,,None,None,,None,20.401,,,,,2019_Jan_09_1622,60.03913493842969,Cloud_Experiment_FR,001,01,
images/fcloud80-20_D1.6_8.tif,1.6,2,,,,,,,,,,,,,0,49,49,129,,,,,,,,,,,None,None,,None,30.209,,,,,2019_Jan_09_1622,60.03913493842969,Cloud_Experiment_FR,001,01,
images/fcloud65-35_D0.9_8.tif,0.9,1,,,,,,,,,,,,,0,50,50,53,,,,,,,,,,,1,space,8.02490554203,4,1.602,,,,,2019_Jan_09_1622,60.03913493842969,Cloud_Experiment_FR,001,01,
images/fcloud80-20_D1.3_7.tif,1.3,2,,,,,,,,,,,,,0,51,51,116,,,,,,,,,,,None,None,,None,10.909,,,,,2019_Jan_09_1622,60.03913493842969,Cloud_Experiment_FR,001,01,
images/fcloud80-20_D1_10.tif,1.0,2,,,,,,,,,,,,,0,52,52,107,,,,,,,,,,,None,None,,None,23.148,,,,,2019_Jan_09_1622,60.03913493842969,Cloud_Experiment_FR,001,01,
images/fcloud65-35_D0.8_9.tif,0.8,1,,,,,,,,,,,,,0,53,53,50,,,,,,,,,,,None,None,,None,32.125,,,,,2019_Jan_09_1622,60.03913493842969,Cloud_Experiment_FR,001,01,
images/fcloud80-20_D1.5_10.tif,1.5,2,,,,,,,,,,,,,0,54,54,127,,,,,,,,,,,1,space,1.85767049983,2,1.301,,,,,2019_Jan_09_1622,60.03913493842969,Cloud_Experiment_FR,001,01,
images/fcloud_D1.8_8.tif,1.8,0,,,,,,,,,,,,,0,55,55,41,,,,,,,,,,,None,None,,None,10.627,,,,,2019_Jan_09_1622,60.03913493842969,Cloud_Experiment_FR,001,01,
images/fcloud80-20_D0.8_7.tif,0.8,2,,,,,,,,,,,,,0,56,56,96,,,,,,,,,,,None,None,,None,19.651,,,,,2019_Jan_09_1622,60.03913493842969,Cloud_Experiment_FR,001,01,
images/fcloud65-35_D1.4_9.tif,1.4,1,,,,,,,,,,,,,0,57,57,74,,,,,,,,,,,None,None,,None,28.975,,,,,2019_Jan_09_1622,60.03913493842969,Cloud_Experiment_FR,001,01,
images/fcloud80-20_D1.4_9.tif,1.4,2,,,,,,,,,,,,,0,58,58,122,,,,,,,,,,,None,None,,None,37.869,,,,,2019_Jan_09_1622,60.03913493842969,Cloud_Experiment_FR,001,01,
images/fcloud65-35_D1_7.tif,1.0,1,,,,,,,,,,,,,0,59,59,56,,,,,,,,,,,1,space,1.91717875295,4,0.869,,,,,2019_Jan_09_1622,60.03913493842969,Cloud_Experiment_FR,001,01,
images/fcloud_D1.3_10.tif,1.3,0,,,,,,,,,,,,,0,60,60,23,,,,,,,,,,,1,space,5.08613948419,4,1.185,,,,,2019_Jan_09_1622,60.03913493842969,Cloud_Experiment_FR,001,01,
images/fcloud65-35_D1.1_9.tif,1.1,1,,,,,,,,,,,,,0,61,61,62,,,,,,,,,,,None,None,,None,10.31,,,,,2019_Jan_09_1622,60.03913493842969,Cloud_Experiment_FR,001,01,
images/fcloud65-35_D1.9_9.tif,1.9,1,,,,,,,,,,,,,0,62,62,94,,,,,,,,,,,None,None,,None,19.435,,,,,2019_Jan_09_1622,60.03913493842969,Cloud_Experiment_FR,001,01,
images/fcloud80-20_D1.2_9.tif,1.2,2,,,,,,,,,,,,,0,63,63,114,,,,,,,,,,,None,None,,None,28.626,,,,,2019_Jan_09_1622,60.03913493842969,Cloud_Experiment_FR,001,01,
images/fcloud80-20_D1.4_7.tif,1.4,2,,,,,,,,,,,,,0,64,64,120,,,,,,,,,,,None,None,,None,37.753,,,,,2019_Jan_09_1622,60.03913493842969,Cloud_Experiment_FR,001,01,
images/fcloud80-20_D1.7_8.tif,1.7,2,,,,,,,,,,,,,0,65,65,133,,,,,,,,,,,None,None,,None,46.793,,,,,2019_Jan_09_1622,60.03913493842969,Cloud_Experiment_FR,001,01,
images/fcloud80-20_D1_8.tif,1.0,2,,,,,,,,,,,,,0,66,66,105,,,,,,,,,,,None,None,,None,56.353,,,,,2019_Jan_09_1622,60.03913493842969,Cloud_Experiment_FR,001,01,
images/fcloud65-35_D1.3_8.tif,1.3,1,,,,,,,,,,,,,0,67,67,69,,,,,,,,,,,1,space,3.7819314145,3,1.052,,,,,2019_Jan_09_1622,60.03913493842969,Cloud_Experiment_FR,001,01,
images/fcloud_D1.6_7.tif,1.6,0,,,,,,,,,,,,,0,68,68,32,,,,,,,,,,,None,None,,None,10.293,,,,,2019_Jan_09_1622,60.03913493842969,Cloud_Experiment_FR,001,01,
images/fcloud_D1_9.tif,1.0,0,,,,,,,,,,,,,0,69,69,10,,,,,,,,,,,2,space,7.46270208864,2,1.002,,,,,2019_Jan_09_1622,60.03913493842969,Cloud_Experiment_FR,001,01,
images/fcloud80-20_D0.8_10.tif,0.8,2,,,,,,,,,,,,,0,70,70,99,,,,,,,,,,,None,None,,None,10.858,,,,,2019_Jan_09_1622,60.03913493842969,Cloud_Experiment_FR,001,01,
images/fcloud_D1.7_8.tif,1.7,0,,,,,,,,,,,,,0,71,71,37,,,,,,,,,,,None,None,,None,19.902,,,,,2019_Jan_09_1622,60.03913493842969,Cloud_Experiment_FR,001,01,
images/fcloud_D0.8_10.tif,0.8,0,,,,,,,,,,,,,0,72,72,3,,,,,,,,,,,1,None,,1,1.119,,,,,2019_Jan_09_1622,60.03913493842969,Cloud_Experiment_FR,001,01,
images/fcloud_D0.8_7.tif,0.8,0,,,,,,,,,,,,,0,73,73,0,,,,,,,,,,,None,None,,None,10.21,,,,,2019_Jan_09_1622,60.03913493842969,Cloud_Experiment_FR,001,01,
images/fcloud80-20_D1.3_8.tif,1.3,2,,,,,,,,,,,,,0,74,74,117,,,,,,,,,,,None,None,,None,19.434,,,,,2019_Jan_09_1622,60.03913493842969,Cloud_Experiment_FR,001,01,
images/fcloud80-20_D1.7_10.tif,1.7,2,,,,,,,,,,,,,0,75,75,135,,,,,,,,,,,None,None,,None,28.827,,,,,2019_Jan_09_1622,60.03913493842969,Cloud_Experiment_FR,001,01,
images/fcloud65-35_D1.5_7.tif,1.5,1,,,,,,,,,,,,,0,76,76,76,,,,,,,,,,,1,space,5.01405637152,4,0.853,,,,,2019_Jan_09_1622,60.03913493842969,Cloud_Experiment_FR,001,01,
images/fcloud65-35_D1.3_10.tif,1.3,1,,,,,,,,,,,,,0,77,77,71,,,,,,,,,,,None,None,,None,10.126,,,,,2019_Jan_09_1622,60.03913493842969,Cloud_Experiment_FR,001,01,
images/fcloud65-35_D1.2_8.tif,1.2,1,,,,,,,,,,,,,0,78,78,65,,,,,,,,,,,1,None,,1,0.917,,,,,2019_Jan_09_1622,60.03913493842969,Cloud_Experiment_FR,001,01,
images/fcloud_D1.2_8.tif,1.2,0,,,,,,,,,,,,,0,79,79,17,,,,,,,,,,,1,space,3.00362975558,2,1.019,,,,,2019_Jan_09_1622,60.03913493842969,Cloud_Experiment_FR,001,01,
images/fcloud_D1.8_10.tif,1.8,0,,,,,,,,,,,,,0,80,80,43,,,,,,,,,,,1,space,6.3422467371,1,1.351,,,,,2019_Jan_09_1622,60.03913493842969,Cloud_Experiment_FR,001,01,
images/fcloud80-20_D0.9_9.tif,0.9,2,,,,,,,,,,,,,0,81,81,102,,,,,,,,,,,1,space,5.35568932467,1,1.318,,,,,2019_Jan_09_1622,60.03913493842969,Cloud_Experiment_FR,001,01,
images/fcloud65-35_D1.8_8.tif,1.8,1,,,,,,,,,,,,,0,82,82,89,,,,,,,,,,,None,None,,None,10.825,,,,,2019_Jan_09_1622,60.03913493842969,Cloud_Experiment_FR,001,01,
images/fcloud_D1_7.tif,1.0,0,,,,,,,,,,,,,0,83,83,8,,,,,,,,,,,None,None,,None,19.75,,,,,2019_Jan_09_1622,60.03913493842969,Cloud_Experiment_FR,001,01,
images/fcloud_D1.4_10.tif,1.4,0,,,,,,,,,,,,,0,84,84,27,,,,,,,,,,,1,space,6.86302028992,3,0.869,,,,,2019_Jan_09_1622,60.03913493842969,Cloud_Experiment_FR,001,01,
images/fcloud80-20_D1.9_10.tif,1.9,2,,,,,,,,,,,,,0,85,85,143,,,,,,,,,,,None,None,,None,10.126,,,,,2019_Jan_09_1622,60.03913493842969,Cloud_Experiment_FR,001,01,
images/fcloud_D1.7_7.tif,1.7,0,,,,,,,,,,,,,0,86,86,36,,,,,,,,,,,None,space,8.99160185258,None,20.849,,,,,2019_Jan_09_1622,60.03913493842969,Cloud_Experiment_FR,001,01,
images/fcloud80-20_D1.6_7.tif,1.6,2,,,,,,,,,,,,,0,87,87,128,,,,,,,,,,,1,space,4.90035264299,2,1.368,,,,,2019_Jan_09_1622,60.03913493842969,Cloud_Experiment_FR,001,01,
images/fcloud65-35_D0.9_7.tif,0.9,1,,,,,,,,,,,,,0,88,88,52,,,,,,,,,,,1,None,,1,1.002,,,,,2019_Jan_09_1622,60.03913493842969,Cloud_Experiment_FR,001,01,
images/fcloud_D1.8_9.tif,1.8,0,,,,,,,,,,,,,0,89,89,42,,,,,,,,,,,None,None,,None,10.925,,,,,2019_Jan_09_1622,60.03913493842969,Cloud_Experiment_FR,001,01,
images/fcloud_D0.9_7.tif,0.9,0,,,,,,,,,,,,,0,90,90,4,,,,,,,,,,,2,space,1.76982074836,5,1.235,,,,,2019_Jan_09_1622,60.03913493842969,Cloud_Experiment_FR,001,01,
images/fcloud80-20_D1.3_10.tif,1.3,2,,,,,,,,,,,,,0,91,91,119,,,,,,,,,,,1,space,6.41890598414,2,1.951,,,,,2019_Jan_09_1622,60.03913493842969,Cloud_Experiment_FR,001,01,
images/fcloud_D0.9_9.tif,0.9,0,,,,,,,,,,,,,0,92,92,6,,,,,,,,,,,None,None,,None,11.259,,,,,2019_Jan_09_1622,60.03913493842969,Cloud_Experiment_FR,001,01,
images/fcloud80-20_D1.9_8.tif,1.9,2,,,,,,,,,,,,,0,93,93,141,,,,,,,,,,,None,None,,None,21.433,,,,,2019_Jan_09_1622,60.03913493842969,Cloud_Experiment_FR,001,01,
images/fcloud80-20_D0.9_8.tif,0.9,2,,,,,,,,,,,,,0,94,94,101,,,,,,,,,,,None,None,,None,30.525,,,,,2019_Jan_09_1622,60.03913493842969,Cloud_Experiment_FR,001,01,
images/fcloud80-20_D1.8_7.tif,1.8,2,,,,,,,,,,,,,0,95,95,136,,,,,,,,,,,None,None,,None,40.05,,,,,2019_Jan_09_1622,60.03913493842969,Cloud_Experiment_FR,001,01,
images/fcloud65-35_D1_10.tif,1.0,1,,,,,,,,,,,,,0,96,96,59,,,,,,,,,,,1,space,2.36731523508,3,1.035,,,,,2019_Jan_09_1622,60.03913493842969,Cloud_Experiment_FR,001,01,
images/fcloud_D1_8.tif,1.0,0,,,,,,,,,,,,,0,97,97,9,,,,,,,,,,,None,None,,None,9.927,,,,,2019_Jan_09_1622,60.03913493842969,Cloud_Experiment_FR,001,01,
images/fcloud80-20_D1.5_9.tif,1.5,2,,,,,,,,,,,,,0,98,98,126,,,,,,,,,,,None,None,,None,19.087,,,,,2019_Jan_09_1622,60.03913493842969,Cloud_Experiment_FR,001,01,
images/fcloud_D1.5_10.tif,1.5,0,,,,,,,,,,,,,0,99,99,31,,,,,,,,,,,1,space,2.17209390784,4,1.269,,,,,2019_Jan_09_1622,60.03913493842969,Cloud_Experiment_FR,001,01,
images/fcloud80-20_D1_7.tif,1.0,2,,,,,,,,,,,,,0,100,100,104,,,,,,,,,,,1,space,5.88643301069,4,0.885,,,,,2019_Jan_09_1622,60.03913493842969,Cloud_Experiment_FR,001,01,
images/fcloud80-20_D1.5_7.tif,1.5,2,,,,,,,,,,,,,0,101,101,124,,,,,,,,,,,None,None,,None,9.86,,,,,2019_Jan_09_1622,60.03913493842969,Cloud_Experiment_FR,001,01,
images/fcloud65-35_D1.4_8.tif,1.4,1,,,,,,,,,,,,,0,102,102,73,,,,,,,,,,,1,space,7.03881180892,1,1.435,,,,,2019_Jan_09_1622,60.03913493842969,Cloud_Experiment_FR,001,01,
images/fcloud_D1.5_8.tif,1.5,0,,,,,,,,,,,,,0,103,103,29,,,,,,,,,,,2,space,5.61620255897,3,2.068,,,,,2019_Jan_09_1622,60.03913493842969,Cloud_Experiment_FR,001,01,
images/fcloud_D1.6_9.tif,1.6,0,,,,,,,,,,,,,0,104,104,34,,,,,,,,,,,None,None,,None,11.375,,,,,2019_Jan_09_1622,60.03913493842969,Cloud_Experiment_FR,001,01,
images/fcloud65-35_D1.6_10.tif,1.6,1,,,,,,,,,,,,,0,105,105,83,,,,,,,,,,,1,None,,2,1.485,,,,,2019_Jan_09_1622,60.03913493842969,Cloud_Experiment_FR,001,01,
images/fcloud65-35_D1.9_10.tif,1.9,1,,,,,,,,,,,,,0,106,106,95,,,,,,,,,,,None,None,,None,11.441,,,,,2019_Jan_09_1622,60.03913493842969,Cloud_Experiment_FR,001,01,
images/fcloud65-35_D1.6_8.tif,1.6,1,,,,,,,,,,,,,0,107,107,81,,,,,,,,,,,None,None,,None,20.818,,,,,2019_Jan_09_1622,60.03913493842969,Cloud_Experiment_FR,001,01,
images/fcloud80-20_D1.1_9.tif,1.1,2,,,,,,,,,,,,,0,108,108,110,,,,,,,,,,,1,space,5.96862042556,1,1.37,,,,,2019_Jan_09_1622,60.03913493842969,Cloud_Experiment_FR,001,01,
images/fcloud_D1.4_8.tif,1.4,0,,,,,,,,,,,,,0,109,109,25,,,,,,,,,,,None,None,,None,11.677,,,,,2019_Jan_09_1622,60.03913493842969,Cloud_Experiment_FR,001,01,
images/fcloud65-35_D1.7_7.tif,1.7,1,,,,,,,,,,,,,0,110,110,84,,,,,,,,,,,None,None,,None,21.917,,,,,2019_Jan_09_1622,60.03913493842969,Cloud_Experiment_FR,001,01,
images/fcloud80-20_D1.8_10.tif,1.8,2,,,,,,,,,,,,,0,111,111,139,,,,,,,,,,,1,None,,1,1.818,,,,,2019_Jan_09_1622,60.03913493842969,Cloud_Experiment_FR,001,01,
images/fcloud65-35_D0.9_10.tif,0.9,1,,,,,,,,,,,,,0,112,112,55,,,,,,,,,,,None,None,,None,13.707,,,,,2019_Jan_09_1622,60.03913493842969,Cloud_Experiment_FR,001,01,
images/fcloud_D0.8_9.tif,0.8,0,,,,,,,,,,,,,0,113,113,2,,,,,,,,,,,1,None,,1,1.519,,,,,2019_Jan_09_1622,60.03913493842969,Cloud_Experiment_FR,001,01,
images/fcloud_D1.4_7.tif,1.4,0,,,,,,,,,,,,,0,114,114,24,,,,,,,,,,,1,space,7.91548287938,2,1.316,,,,,2019_Jan_09_1622,60.03913493842969,Cloud_Experiment_FR,001,01,
images/fcloud65-35_D1.2_10.tif,1.2,1,,,,,,,,,,,,,0,115,115,67,,,,,,,,,,,None,None,,None,11.209,,,,,2019_Jan_09_1622,60.03913493842969,Cloud_Experiment_FR,001,01,
images/fcloud_D1.4_9.tif,1.4,0,,,,,,,,,,,,,0,116,116,26,,,,,,,,,,,None,None,,None,20.951,,,,,2019_Jan_09_1622,60.03913493842969,Cloud_Experiment_FR,001,01,
images/fcloud_D1.2_10.tif,1.2,0,,,,,,,,,,,,,0,117,117,19,,,,,,,,,,,None,None,,None,30.459,,,,,2019_Jan_09_1622,60.03913493842969,Cloud_Experiment_FR,001,01,
images/fcloud80-20_D1.8_9.tif,1.8,2,,,,,,,,,,,,,0,118,118,138,,,,,,,,,,,None,None,,None,39.968,,,,,2019_Jan_09_1622,60.03913493842969,Cloud_Experiment_FR,001,01,
images/fcloud65-35_D1.3_9.tif,1.3,1,,,,,,,,,,,,,0,119,119,70,,,,,,,,,,,None,None,,None,49.608,,,,,2019_Jan_09_1622,60.03913493842969,Cloud_Experiment_FR,001,01,
images/fcloud80-20_D1.4_10.tif,1.4,2,,,,,,,,,,,,,0,120,120,123,,,,,,,,,,,None,None,,None,60.016,,,,,2019_Jan_09_1622,60.03913493842969,Cloud_Experiment_FR,001,01,
images/fcloud65-35_D1.1_7.tif,1.1,1,,,,,,,,,,,,,0,121,121,60,,,,,,,,,,,None,None,,None,69.108,,,,,2019_Jan_09_1622,60.03913493842969,Cloud_Experiment_FR,001,01,
images/fcloud_D1.9_10.tif,1.9,0,,,,,,,,,,,,,0,122,122,47,,,,,,,,,,,1,space,3.74363417656,2,0.885,,,,,2019_Jan_09_1622,60.03913493842969,Cloud_Experiment_FR,001,01,
images/fcloud80-20_D1.2_7.tif,1.2,2,,,,,,,,,,,,,0,123,123,112,,,,,,,,,,,None,None,,None,10.211,,,,,2019_Jan_09_1622,60.03913493842969,Cloud_Experiment_FR,001,01,
images/fcloud65-35_D1.8_9.tif,1.8,1,,,,,,,,,,,,,0,124,124,90,,,,,,,,,,,1,space,2.86365155166,4,0.936,,,,,2019_Jan_09_1622,60.03913493842969,Cloud_Experiment_FR,001,01,
images/fcloud80-20_D1.1_8.tif,1.1,2,,,,,,,,,,,,,0,125,125,109,,,,,,,,,,,None,None,,None,10.026,,,,,2019_Jan_09_1622,60.03913493842969,Cloud_Experiment_FR,001,01,
images/fcloud_D1.9_9.tif,1.9,0,,,,,,,,,,,,,0,126,126,46,,,,,,,,,,,None,None,,None,19.585,,,,,2019_Jan_09_1622,60.03913493842969,Cloud_Experiment_FR,001,01,
images/fcloud65-35_D1.1_10.tif,1.1,1,,,,,,,,,,,,,0,127,127,63,,,,,,,,,,,None,None,,None,28.512,,,,,2019_Jan_09_1622,60.03913493842969,Cloud_Experiment_FR,001,01,
images/fcloud80-20_D0.9_7.tif,0.9,2,,,,,,,,,,,,,0,128,128,100,,,,,,,,,,,1,space,1.44095542619,5,0.868,,,,,2019_Jan_09_1622,60.03913493842969,Cloud_Experiment_FR,001,01,
images/fcloud65-35_D1.7_9.tif,1.7,1,,,,,,,,,,,,,0,129,129,86,,,,,,,,,,,None,None,,None,10.226,,,,,2019_Jan_09_1622,60.03913493842969,Cloud_Experiment_FR,001,01,
images/fcloud65-35_D0.9_9.tif,0.9,1,,,,,,,,,,,,,0,130,130,54,,,,,,,,,,,None,None,,None,19.218,,,,,2019_Jan_09_1622,60.03913493842969,Cloud_Experiment_FR,001,01,
images/fcloud80-20_D1.2_8.tif,1.2,2,,,,,,,,,,,,,0,131,131,113,,,,,,,,,,,None,None,,None,28.71,,,,,2019_Jan_09_1622,60.03913493842969,Cloud_Experiment_FR,001,01,
images/fcloud80-20_D1.5_8.tif,1.5,2,,,,,,,,,,,,,0,132,132,125,,,,,,,,,,,None,None,,None,37.188,,,,,2019_Jan_09_1622,60.03913493842969,Cloud_Experiment_FR,001,01,
images/fcloud_D1.3_7.tif,1.3,0,,,,,,,,,,,,,0,133,133,20,,,,,,,,,,,1,space,7.59627205948,2,0.902,,,,,2019_Jan_09_1622,60.03913493842969,Cloud_Experiment_FR,001,01,
images/fcloud_D0.9_10.tif,0.9,0,,,,,,,,,,,,,0,134,134,7,,,,,,,,,,,None,None,,None,10.028,,,,,2019_Jan_09_1622,60.03913493842969,Cloud_Experiment_FR,001,01,
images/fcloud_D1.3_9.tif,1.3,0,,,,,,,,,,,,,0,135,135,22,,,,,,,,,,,1,None,,1,1.202,,,,,2019_Jan_09_1622,60.03913493842969,Cloud_Experiment_FR,001,01,
images/fcloud65-35_D1.4_7.tif,1.4,1,,,,,,,,,,,,,0,136,136,72,,,,,,,,,,,1,space,6.80342413287,3,0.852,,,,,2019_Jan_09_1622,60.03913493842969,Cloud_Experiment_FR,001,01,
images/fcloud_D1.1_8.tif,1.1,0,,,,,,,,,,,,,0,137,137,13,,,,,,,,,,,None,None,,None,9.976,,,,,2019_Jan_09_1622,60.03913493842969,Cloud_Experiment_FR,001,01,
images/fcloud65-35_D1.4_10.tif,1.4,1,,,,,,,,,,,,,0,138,138,75,,,,,,,,,,,2,space,2.49997326906,3,0.818,,,,,2019_Jan_09_1622,60.03913493842969,Cloud_Experiment_FR,001,01,
images/fcloud_D1.6_10.tif,1.6,0,,,,,,,,,,,,,0,139,139,35,,,,,,,,,,,None,None,,None,9.861,,,,,2019_Jan_09_1622,60.03913493842969,Cloud_Experiment_FR,001,01,
images/fcloud_D1.5_7.tif,1.5,0,,,,,,,,,,,,,0,140,140,28,,,,,,,,,,,None,None,,None,18.968,,,,,2019_Jan_09_1622,60.03913493842969,Cloud_Experiment_FR,001,01,
images/fcloud65-35_D1.2_7.tif,1.2,1,,,,,,,,,,,,,0,141,141,64,,,,,,,,,,,2,space,2.23751587153,3,0.852,,,,,2019_Jan_09_1622,60.03913493842969,Cloud_Experiment_FR,001,01,
images/fcloud80-20_D1.7_9.tif,1.7,2,,,,,,,,,,,,,0,142,142,134,,,,,,,,,,,None,None,,None,10.259,,,,,2019_Jan_09_1622,60.03913493842969,Cloud_Experiment_FR,001,01,
images/fcloud65-35_D1.6_7.tif,1.6,1,,,,,,,,,,,,,0,143,143,80,,,,,,,,,,,1,space,2.16095223906,3,1.484,,,,,2019_Jan_09_1622,60.03913493842969,Cloud_Experiment_FR,001,01,
,,,,,,,,,,,,,,,,,,,,,,,,,5,7.984,,,,,,,,,,,,2019_Jan_09_1622,60.03913493842969,Cloud_Experiment_FR,001,01,
