ImageFile,FD,Contrast,trials_4.thisRepN,trials_4.thisTrialN,trials_4.thisN,trials_4.thisIndex,trials.thisRepN,trials.thisTrialN,trials.thisN,trials.thisIndex,trials_2.thisRepN,trials_2.thisTrialN,trials_2.thisN,trials_2.thisIndex,trials_3.thisRepN,trials_3.thisTrialN,trials_3.thisN,trials_3.thisIndex,end_instructions.keys,end_instructions.rt,key_resp_4.keys,key_resp_4.rt,key_resp_6.keys,key_resp_6.rt,Fatigue.response,Fatigue.rt,key_resp_5.keys,key_resp_5.rt,n_objets.response,reaction_time.keys,reaction_time.rt,vividness.response,vividness.rt,key_resp_2.keys,key_resp_2.rt,key_resp_3.keys,key_resp_3.rt,date,frameRate,expName,session,participant,
,,,,,,,,,,,,,,,,,,,space,8.23581228696,,,,,,,,,,,,,,,,,,2019_Jan_11_1237,60.146988806616875,Cloud_Experiment_FR_REAL,001,02,
,,,,,,,,,,,,,,,,,,,,,space,21.3993193887,,,,,,,,,,,,,,,,2019_Jan_11_1237,60.146988806616875,Cloud_Experiment_FR_REAL,001,02,
,,,,,,,,,,,,,,,,,,,,,,,space,8.24395597621,,,,,,,,,,,,,,2019_Jan_11_1237,60.146988806616875,Cloud_Experiment_FR_REAL,001,02,
,,,,,,,,,,,,,,,,,,,,,,,,,8,47.688,,,,,,,,,,,,2019_Jan_11_1237,60.146988806616875,Cloud_Experiment_FR_REAL,001,02,
,,,,,,,,,,,,,,,,,,,,,,,,,,,space,2.79873182159,,,,,,,,,,2019_Jan_11_1237,60.146988806616875,Cloud_Experiment_FR_REAL,001,02,
pratique/fcloud65-35_D1.2_30,1.2,1,0,0,0,3,,,,,,,,,,,,,,,,,,,,,,,1,space,7.41490405123,2,13.041,,,,,2019_Jan_11_1237,60.146988806616875,Cloud_Experiment_FR_REAL,001,02,
pratique/fcloud80-20_D1.8_30,1.8,2,0,1,1,4,,,,,,,,,,,,,,,,,,,,,,,1,space,6.97377744422,1,3.499,,,,,2019_Jan_11_1237,60.146988806616875,Cloud_Experiment_FR_REAL,001,02,
pratique/fcloud_D1.4_30,1.4,0,0,2,2,1,,,,,,,,,,,,,,,,,,,,,,,2,space,5.86908513296,3,17.854,,,,,2019_Jan_11_1237,60.146988806616875,Cloud_Experiment_FR_REAL,001,02,
pratique/fcloud65-35_D1.6_30,1.6,1,0,3,3,2,,,,,,,,,,,,,,,,,,,,,,,None,None,,None,28.344,,,,,2019_Jan_11_1237,60.146988806616875,Cloud_Experiment_FR_REAL,001,02,
pratique/fcloud_D0.8_30,0.8,0,0,4,4,0,,,,,,,,,,,,,,,,,,,,,,,1,space,7.2355681099,2,3.849,,,,,2019_Jan_11_1237,60.146988806616875,Cloud_Experiment_FR_REAL,001,02,
,,,,,,,,,,,,,,,,,,,,,,,,,,,,,,,,,,space,36.4195706598,,,2019_Jan_11_1237,60.146988806616875,Cloud_Experiment_FR_REAL,001,02,
images/fcloud80-20_D1.5_1.tif,1.5,2,,,,,0,0,0,93,,,,,,,,,,,,,,,,,,,1,space,4.68851699727,1,1.317,,,,,2019_Jan_11_1237,60.146988806616875,Cloud_Experiment_FR_REAL,001,02,
images/fcloud80-20_D1.5_3.tif,1.5,2,,,,,0,1,1,95,,,,,,,,,,,,,,,,,,,None,None,,None,11.624,,,,,2019_Jan_11_1237,60.146988806616875,Cloud_Experiment_FR_REAL,001,02,
images/fcloud65-35_D1.5_2.tif,1.5,1,,,,,0,2,2,58,,,,,,,,,,,,,,,,,,,1,None,,3,3.652,,,,,2019_Jan_11_1237,60.146988806616875,Cloud_Experiment_FR_REAL,001,02,
images/fcloud65-35_D1_1.tif,1.0,1,,,,,0,3,3,42,,,,,,,,,,,,,,,,,,,1,None,,4,7.297,,,,,2019_Jan_11_1237,60.146988806616875,Cloud_Experiment_FR_REAL,001,02,
images/fcloud65-35_D1_2.tif,1.0,1,,,,,0,4,4,43,,,,,,,,,,,,,,,,,,,1,None,,1,0.986,,,,,2019_Jan_11_1237,60.146988806616875,Cloud_Experiment_FR_REAL,001,02,
images/fcloud_D1.8_2.tif,1.8,0,,,,,0,5,5,31,,,,,,,,,,,,,,,,,,,None,None,,None,11.557,,,,,2019_Jan_11_1237,60.146988806616875,Cloud_Experiment_FR_REAL,001,02,
images/fcloud80-20_D1.4_2.tif,1.4,2,,,,,0,6,6,91,,,,,,,,,,,,,,,,,,,1,None,,1,1.117,,,,,2019_Jan_11_1237,60.146988806616875,Cloud_Experiment_FR_REAL,001,02,
images/fcloud65-35_D1.8_2.tif,1.8,1,,,,,0,7,7,67,,,,,,,,,,,,,,,,,,,1,None,,3,2.801,,,,,2019_Jan_11_1237,60.146988806616875,Cloud_Experiment_FR_REAL,001,02,
images/fcloud_D1.1_3.tif,1.1,0,,,,,0,8,8,11,,,,,,,,,,,,,,,,,,,1,None,,1,0.902,,,,,2019_Jan_11_1237,60.146988806616875,Cloud_Experiment_FR_REAL,001,02,
images/fcloud80-20_D1.8_2.tif,1.8,2,,,,,0,9,9,103,,,,,,,,,,,,,,,,,,,None,None,,None,10.759,,,,,2019_Jan_11_1237,60.146988806616875,Cloud_Experiment_FR_REAL,001,02,
images/fcloud_D1.1_2.tif,1.1,0,,,,,0,10,10,10,,,,,,,,,,,,,,,,,,,1,None,,1,0.885,,,,,2019_Jan_11_1237,60.146988806616875,Cloud_Experiment_FR_REAL,001,02,
images/fcloud80-20_D1.4_3.tif,1.4,2,,,,,0,11,11,92,,,,,,,,,,,,,,,,,,,None,None,,None,9.711,,,,,2019_Jan_11_1237,60.146988806616875,Cloud_Experiment_FR_REAL,001,02,
images/fcloud65-35_D1.3_2.tif,1.3,1,,,,,0,12,12,52,,,,,,,,,,,,,,,,,,,None,None,,None,19.266,,,,,2019_Jan_11_1237,60.146988806616875,Cloud_Experiment_FR_REAL,001,02,
images/fcloud65-35_D1.7_1.tif,1.7,1,,,,,0,13,13,63,,,,,,,,,,,,,,,,,,,None,None,,None,28.759,,,,,2019_Jan_11_1237,60.146988806616875,Cloud_Experiment_FR_REAL,001,02,
images/fcloud80-20_D0.9_2.tif,0.9,2,,,,,0,14,14,76,,,,,,,,,,,,,,,,,,,None,None,,None,37.918,,,,,2019_Jan_11_1237,60.146988806616875,Cloud_Experiment_FR_REAL,001,02,
images/fcloud_D1.5_2.tif,1.5,0,,,,,0,15,15,22,,,,,,,,,,,,,,,,,,,1,None,,1,1.818,,,,,2019_Jan_11_1237,60.146988806616875,Cloud_Experiment_FR_REAL,001,02,
images/fcloud80-20_D1.2_2.tif,1.2,2,,,,,0,16,16,85,,,,,,,,,,,,,,,,,,,1,None,,2,2.217,,,,,2019_Jan_11_1237,60.146988806616875,Cloud_Experiment_FR_REAL,001,02,
images/fcloud80-20_D0.8_1.tif,0.8,2,,,,,0,17,17,72,,,,,,,,,,,,,,,,,,,None,None,,None,11.859,,,,,2019_Jan_11_1237,60.146988806616875,Cloud_Experiment_FR_REAL,001,02,
images/fcloud_D1.9_3.tif,1.9,0,,,,,0,18,18,35,,,,,,,,,,,,,,,,,,,None,None,,None,21.884,,,,,2019_Jan_11_1237,60.146988806616875,Cloud_Experiment_FR_REAL,001,02,
images/fcloud65-35_D1.2_3.tif,1.2,1,,,,,0,19,19,50,,,,,,,,,,,,,,,,,,,None,None,,None,31.344,,,,,2019_Jan_11_1237,60.146988806616875,Cloud_Experiment_FR_REAL,001,02,
images/fcloud80-20_D1.7_3.tif,1.7,2,,,,,0,20,20,101,,,,,,,,,,,,,,,,,,,None,None,,None,40.883,,,,,2019_Jan_11_1237,60.146988806616875,Cloud_Experiment_FR_REAL,001,02,
images/fcloud80-20_D1.3_2.tif,1.3,2,,,,,0,21,21,88,,,,,,,,,,,,,,,,,,,None,None,,None,49.925,,,,,2019_Jan_11_1237,60.146988806616875,Cloud_Experiment_FR_REAL,001,02,
images/fcloud65-35_D1.7_3.tif,1.7,1,,,,,0,22,22,65,,,,,,,,,,,,,,,,,,,None,None,,None,59.002,,,,,2019_Jan_11_1237,60.146988806616875,Cloud_Experiment_FR_REAL,001,02,
images/fcloud80-20_D1.9_2.tif,1.9,2,,,,,0,23,23,106,,,,,,,,,,,,,,,,,,,None,None,,None,67.794,,,,,2019_Jan_11_1237,60.146988806616875,Cloud_Experiment_FR_REAL,001,02,
images/fcloud80-20_D1.8_3.tif,1.8,2,,,,,0,24,24,104,,,,,,,,,,,,,,,,,,,None,None,,None,77.169,,,,,2019_Jan_11_1237,60.146988806616875,Cloud_Experiment_FR_REAL,001,02,
images/fcloud_D1.8_3.tif,1.8,0,,,,,0,25,25,32,,,,,,,,,,,,,,,,,,,1,None,,1,2.518,,,,,2019_Jan_11_1237,60.146988806616875,Cloud_Experiment_FR_REAL,001,02,
images/fcloud_D1.9_2.tif,1.9,0,,,,,0,26,26,34,,,,,,,,,,,,,,,,,,,1,None,,2,1.284,,,,,2019_Jan_11_1237,60.146988806616875,Cloud_Experiment_FR_REAL,001,02,
images/fcloud80-20_D1.9_1.tif,1.9,2,,,,,0,27,27,105,,,,,,,,,,,,,,,,,,,None,None,,None,10.925,,,,,2019_Jan_11_1237,60.146988806616875,Cloud_Experiment_FR_REAL,001,02,
images/fcloud65-35_D1.2_2.tif,1.2,1,,,,,0,28,28,49,,,,,,,,,,,,,,,,,,,1,None,,1,1.251,,,,,2019_Jan_11_1237,60.146988806616875,Cloud_Experiment_FR_REAL,001,02,
images/fcloud65-35_D0.8_3.tif,0.8,1,,,,,0,29,29,38,,,,,,,,,,,,,,,,,,,1,None,,1,0.902,,,,,2019_Jan_11_1237,60.146988806616875,Cloud_Experiment_FR_REAL,001,02,
images/fcloud_D1_3.tif,1.0,0,,,,,0,30,30,8,,,,,,,,,,,,,,,,,,,None,None,,None,10.642,,,,,2019_Jan_11_1237,60.146988806616875,Cloud_Experiment_FR_REAL,001,02,
images/fcloud65-35_D1.1_1.tif,1.1,1,,,,,0,31,31,45,,,,,,,,,,,,,,,,,,,None,None,,None,19.867,,,,,2019_Jan_11_1237,60.146988806616875,Cloud_Experiment_FR_REAL,001,02,
images/fcloud80-20_D1.3_3.tif,1.3,2,,,,,0,32,32,89,,,,,,,,,,,,,,,,,,,None,None,,None,28.544,,,,,2019_Jan_11_1237,60.146988806616875,Cloud_Experiment_FR_REAL,001,02,
images/fcloud80-20_D1.3_1.tif,1.3,2,,,,,0,33,33,87,,,,,,,,,,,,,,,,,,,None,None,,None,37.635,,,,,2019_Jan_11_1237,60.146988806616875,Cloud_Experiment_FR_REAL,001,02,
images/fcloud65-35_D1.8_1.tif,1.8,1,,,,,0,34,34,66,,,,,,,,,,,,,,,,,,,None,None,,None,46.379,,,,,2019_Jan_11_1237,60.146988806616875,Cloud_Experiment_FR_REAL,001,02,
images/fcloud80-20_D1.4_1.tif,1.4,2,,,,,0,35,35,90,,,,,,,,,,,,,,,,,,,None,None,,None,54.87,,,,,2019_Jan_11_1237,60.146988806616875,Cloud_Experiment_FR_REAL,001,02,
images/fcloud80-20_D1.7_2.tif,1.7,2,,,,,0,36,36,100,,,,,,,,,,,,,,,,,,,1,None,,2,2.318,,,,,2019_Jan_11_1237,60.146988806616875,Cloud_Experiment_FR_REAL,001,02,
images/fcloud80-20_D0.9_1.tif,0.9,2,,,,,0,37,37,75,,,,,,,,,,,,,,,,,,,1,None,,3,0.786,,,,,2019_Jan_11_1237,60.146988806616875,Cloud_Experiment_FR_REAL,001,02,
images/fcloud80-20_D1.5_2.tif,1.5,2,,,,,0,38,38,94,,,,,,,,,,,,,,,,,,,None,None,,None,10.559,,,,,2019_Jan_11_1237,60.146988806616875,Cloud_Experiment_FR_REAL,001,02,
images/fcloud65-35_D1.9_2.tif,1.9,1,,,,,0,39,39,70,,,,,,,,,,,,,,,,,,,None,None,,None,19.618,,,,,2019_Jan_11_1237,60.146988806616875,Cloud_Experiment_FR_REAL,001,02,
images/fcloud65-35_D1.6_2.tif,1.6,1,,,,,0,40,40,61,,,,,,,,,,,,,,,,,,,2,None,,3,2.201,,,,,2019_Jan_11_1237,60.146988806616875,Cloud_Experiment_FR_REAL,001,02,
images/fcloud65-35_D1.4_1.tif,1.4,1,,,,,0,41,41,54,,,,,,,,,,,,,,,,,,,1,None,,1,0.986,,,,,2019_Jan_11_1237,60.146988806616875,Cloud_Experiment_FR_REAL,001,02,
images/fcloud80-20_D1.6_1.tif,1.6,2,,,,,0,42,42,96,,,,,,,,,,,,,,,,,,,None,None,,None,10.375,,,,,2019_Jan_11_1237,60.146988806616875,Cloud_Experiment_FR_REAL,001,02,
images/fcloud80-20_D1.1_1.tif,1.1,2,,,,,0,43,43,81,,,,,,,,,,,,,,,,,,,None,None,,None,19.051,,,,,2019_Jan_11_1237,60.146988806616875,Cloud_Experiment_FR_REAL,001,02,
images/fcloud_D1.4_3.tif,1.4,0,,,,,0,44,44,20,,,,,,,,,,,,,,,,,,,None,None,,None,28.061,,,,,2019_Jan_11_1237,60.146988806616875,Cloud_Experiment_FR_REAL,001,02,
images/fcloud_D1.4_2.tif,1.4,0,,,,,0,45,45,19,,,,,,,,,,,,,,,,,,,None,None,,None,38.851,,,,,2019_Jan_11_1237,60.146988806616875,Cloud_Experiment_FR_REAL,001,02,
images/fcloud_D1.3_3.tif,1.3,0,,,,,0,46,46,17,,,,,,,,,,,,,,,,,,,1,None,,2,1.668,,,,,2019_Jan_11_1237,60.146988806616875,Cloud_Experiment_FR_REAL,001,02,
images/fcloud_D1.7_3.tif,1.7,0,,,,,0,47,47,29,,,,,,,,,,,,,,,,,,,None,None,,None,10.61,,,,,2019_Jan_11_1237,60.146988806616875,Cloud_Experiment_FR_REAL,001,02,
images/fcloud_D1.9_1.tif,1.9,0,,,,,0,48,48,33,,,,,,,,,,,,,,,,,,,None,None,,None,19.386,,,,,2019_Jan_11_1237,60.146988806616875,Cloud_Experiment_FR_REAL,001,02,
images/fcloud_D1.7_2.tif,1.7,0,,,,,0,49,49,28,,,,,,,,,,,,,,,,,,,1,None,,2,0.852,,,,,2019_Jan_11_1237,60.146988806616875,Cloud_Experiment_FR_REAL,001,02,
images/fcloud65-35_D1.1_2.tif,1.1,1,,,,,0,50,50,46,,,,,,,,,,,,,,,,,,,1,None,,1,1.185,,,,,2019_Jan_11_1237,60.146988806616875,Cloud_Experiment_FR_REAL,001,02,
images/fcloud_D1.5_3.tif,1.5,0,,,,,0,51,51,23,,,,,,,,,,,,,,,,,,,None,None,,None,10.658,,,,,2019_Jan_11_1237,60.146988806616875,Cloud_Experiment_FR_REAL,001,02,
images/fcloud_D1.4_1.tif,1.4,0,,,,,0,52,52,18,,,,,,,,,,,,,,,,,,,None,None,,None,19.933,,,,,2019_Jan_11_1237,60.146988806616875,Cloud_Experiment_FR_REAL,001,02,
images/fcloud_D0.9_2.tif,0.9,0,,,,,0,53,53,4,,,,,,,,,,,,,,,,,,,1,None,,1,0.752,,,,,2019_Jan_11_1237,60.146988806616875,Cloud_Experiment_FR_REAL,001,02,
images/fcloud65-35_D1.1_3.tif,1.1,1,,,,,0,54,54,47,,,,,,,,,,,,,,,,,,,1,None,,1,0.668,,,,,2019_Jan_11_1237,60.146988806616875,Cloud_Experiment_FR_REAL,001,02,
images/fcloud65-35_D1.5_1.tif,1.5,1,,,,,0,55,55,57,,,,,,,,,,,,,,,,,,,None,None,,None,9.925,,,,,2019_Jan_11_1237,60.146988806616875,Cloud_Experiment_FR_REAL,001,02,
images/fcloud65-35_D1.7_2.tif,1.7,1,,,,,0,56,56,64,,,,,,,,,,,,,,,,,,,None,None,,None,18.634,,,,,2019_Jan_11_1237,60.146988806616875,Cloud_Experiment_FR_REAL,001,02,
images/fcloud80-20_D0.8_2.tif,0.8,2,,,,,0,57,57,73,,,,,,,,,,,,,,,,,,,None,None,,None,29.675,,,,,2019_Jan_11_1237,60.146988806616875,Cloud_Experiment_FR_REAL,001,02,
images/fcloud_D1.2_3.tif,1.2,0,,,,,0,58,58,14,,,,,,,,,,,,,,,,,,,2,None,,2,1.003,,,,,2019_Jan_11_1237,60.146988806616875,Cloud_Experiment_FR_REAL,001,02,
images/fcloud80-20_D1.1_2.tif,1.1,2,,,,,0,59,59,82,,,,,,,,,,,,,,,,,,,None,None,,None,9.827,,,,,2019_Jan_11_1237,60.146988806616875,Cloud_Experiment_FR_REAL,001,02,
images/fcloud_D0.8_2.tif,0.8,0,,,,,0,60,60,1,,,,,,,,,,,,,,,,,,,1,None,,2,2.101,,,,,2019_Jan_11_1237,60.146988806616875,Cloud_Experiment_FR_REAL,001,02,
images/fcloud_D0.9_3.tif,0.9,0,,,,,0,61,61,5,,,,,,,,,,,,,,,,,,,None,None,,None,11.01,,,,,2019_Jan_11_1237,60.146988806616875,Cloud_Experiment_FR_REAL,001,02,
images/fcloud80-20_D1.6_2.tif,1.6,2,,,,,0,62,62,97,,,,,,,,,,,,,,,,,,,None,None,,None,20.401,,,,,2019_Jan_11_1237,60.146988806616875,Cloud_Experiment_FR_REAL,001,02,
images/fcloud_D1.6_3.tif,1.6,0,,,,,0,63,63,26,,,,,,,,,,,,,,,,,,,None,None,,None,29.293,,,,,2019_Jan_11_1237,60.146988806616875,Cloud_Experiment_FR_REAL,001,02,
images/fcloud80-20_D1.8_1.tif,1.8,2,,,,,0,64,64,102,,,,,,,,,,,,,,,,,,,None,None,,None,38.035,,,,,2019_Jan_11_1237,60.146988806616875,Cloud_Experiment_FR_REAL,001,02,
images/fcloud80-20_D1.1_3.tif,1.1,2,,,,,0,65,65,83,,,,,,,,,,,,,,,,,,,None,None,,None,46.861,,,,,2019_Jan_11_1237,60.146988806616875,Cloud_Experiment_FR_REAL,001,02,
images/fcloud65-35_D1.5_3.tif,1.5,1,,,,,0,66,66,59,,,,,,,,,,,,,,,,,,,1,None,,1,0.985,,,,,2019_Jan_11_1237,60.146988806616875,Cloud_Experiment_FR_REAL,001,02,
images/fcloud65-35_D0.9_2.tif,0.9,1,,,,,0,67,67,40,,,,,,,,,,,,,,,,,,,1,None,,1,1.469,,,,,2019_Jan_11_1237,60.146988806616875,Cloud_Experiment_FR_REAL,001,02,
images/fcloud80-20_D1.2_3.tif,1.2,2,,,,,0,68,68,86,,,,,,,,,,,,,,,,,,,1,None,,1,0.753,,,,,2019_Jan_11_1237,60.146988806616875,Cloud_Experiment_FR_REAL,001,02,
images/fcloud65-35_D1.4_3.tif,1.4,1,,,,,0,69,69,56,,,,,,,,,,,,,,,,,,,None,None,,None,12.673,,,,,2019_Jan_11_1237,60.146988806616875,Cloud_Experiment_FR_REAL,001,02,
images/fcloud_D1.1_1.tif,1.1,0,,,,,0,70,70,9,,,,,,,,,,,,,,,,,,,2,None,,3,4.232,,,,,2019_Jan_11_1237,60.146988806616875,Cloud_Experiment_FR_REAL,001,02,
images/fcloud80-20_D1.2_1.tif,1.2,2,,,,,0,71,71,84,,,,,,,,,,,,,,,,,,,None,None,,None,13.389,,,,,2019_Jan_11_1237,60.146988806616875,Cloud_Experiment_FR_REAL,001,02,
images/fcloud65-35_D1.3_3.tif,1.3,1,,,,,0,72,72,53,,,,,,,,,,,,,,,,,,,None,None,,None,22.349,,,,,2019_Jan_11_1237,60.146988806616875,Cloud_Experiment_FR_REAL,001,02,
images/fcloud65-35_D1_3.tif,1.0,1,,,,,0,73,73,44,,,,,,,,,,,,,,,,,,,1,None,,1,0.635,,,,,2019_Jan_11_1237,60.146988806616875,Cloud_Experiment_FR_REAL,001,02,
images/fcloud65-35_D1.4_2.tif,1.4,1,,,,,0,74,74,55,,,,,,,,,,,,,,,,,,,None,None,,None,9.825,,,,,2019_Jan_11_1237,60.146988806616875,Cloud_Experiment_FR_REAL,001,02,
images/fcloud65-35_D0.8_1.tif,0.8,1,,,,,0,75,75,36,,,,,,,,,,,,,,,,,,,1,None,,1,0.701,,,,,2019_Jan_11_1237,60.146988806616875,Cloud_Experiment_FR_REAL,001,02,
images/fcloud_D0.8_1.tif,0.8,0,,,,,0,76,76,0,,,,,,,,,,,,,,,,,,,1,None,,2,0.635,,,,,2019_Jan_11_1237,60.146988806616875,Cloud_Experiment_FR_REAL,001,02,
images/fcloud65-35_D1.9_1.tif,1.9,1,,,,,0,77,77,69,,,,,,,,,,,,,,,,,,,1,None,,1,0.636,,,,,2019_Jan_11_1237,60.146988806616875,Cloud_Experiment_FR_REAL,001,02,
images/fcloud_D1_1.tif,1.0,0,,,,,0,78,78,6,,,,,,,,,,,,,,,,,,,None,None,,None,10.01,,,,,2019_Jan_11_1237,60.146988806616875,Cloud_Experiment_FR_REAL,001,02,
images/fcloud65-35_D0.9_3.tif,0.9,1,,,,,0,79,79,41,,,,,,,,,,,,,,,,,,,None,None,,None,19.085,,,,,2019_Jan_11_1237,60.146988806616875,Cloud_Experiment_FR_REAL,001,02,
images/fcloud_D1.2_2.tif,1.2,0,,,,,0,80,80,13,,,,,,,,,,,,,,,,,,,1,None,,3,1.001,,,,,2019_Jan_11_1237,60.146988806616875,Cloud_Experiment_FR_REAL,001,02,
images/fcloud_D1.2_1.tif,1.2,0,,,,,0,81,81,12,,,,,,,,,,,,,,,,,,,None,None,,None,10.476,,,,,2019_Jan_11_1237,60.146988806616875,Cloud_Experiment_FR_REAL,001,02,
images/fcloud80-20_D1_3.tif,1.0,2,,,,,0,82,82,80,,,,,,,,,,,,,,,,,,,None,None,,None,19.751,,,,,2019_Jan_11_1237,60.146988806616875,Cloud_Experiment_FR_REAL,001,02,
images/fcloud80-20_D1.7_1.tif,1.7,2,,,,,0,83,83,99,,,,,,,,,,,,,,,,,,,None,None,,None,28.659,,,,,2019_Jan_11_1237,60.146988806616875,Cloud_Experiment_FR_REAL,001,02,
images/fcloud65-35_D0.9_1.tif,0.9,1,,,,,0,84,84,39,,,,,,,,,,,,,,,,,,,None,None,,None,37.418,,,,,2019_Jan_11_1237,60.146988806616875,Cloud_Experiment_FR_REAL,001,02,
images/fcloud_D1.8_1.tif,1.8,0,,,,,0,85,85,30,,,,,,,,,,,,,,,,,,,None,None,,None,46.578,,,,,2019_Jan_11_1237,60.146988806616875,Cloud_Experiment_FR_REAL,001,02,
images/fcloud_D1.6_2.tif,1.6,0,,,,,0,86,86,25,,,,,,,,,,,,,,,,,,,None,None,,None,56.269,,,,,2019_Jan_11_1237,60.146988806616875,Cloud_Experiment_FR_REAL,001,02,
images/fcloud65-35_D0.8_2.tif,0.8,1,,,,,0,87,87,37,,,,,,,,,,,,,,,,,,,None,None,,None,65.295,,,,,2019_Jan_11_1237,60.146988806616875,Cloud_Experiment_FR_REAL,001,02,
images/fcloud_D1_2.tif,1.0,0,,,,,0,88,88,7,,,,,,,,,,,,,,,,,,,None,None,,None,74.404,,,,,2019_Jan_11_1237,60.146988806616875,Cloud_Experiment_FR_REAL,001,02,
images/fcloud_D1.7_1.tif,1.7,0,,,,,0,89,89,27,,,,,,,,,,,,,,,,,,,1,None,,1,0.768,,,,,2019_Jan_11_1237,60.146988806616875,Cloud_Experiment_FR_REAL,001,02,
images/fcloud80-20_D1_1.tif,1.0,2,,,,,0,90,90,78,,,,,,,,,,,,,,,,,,,None,None,,None,10.412,,,,,2019_Jan_11_1237,60.146988806616875,Cloud_Experiment_FR_REAL,001,02,
images/fcloud65-35_D1.6_1.tif,1.6,1,,,,,0,91,91,60,,,,,,,,,,,,,,,,,,,None,None,,None,19.851,,,,,2019_Jan_11_1237,60.146988806616875,Cloud_Experiment_FR_REAL,001,02,
images/fcloud_D1.3_2.tif,1.3,0,,,,,0,92,92,16,,,,,,,,,,,,,,,,,,,None,None,,None,28.694,,,,,2019_Jan_11_1237,60.146988806616875,Cloud_Experiment_FR_REAL,001,02,
images/fcloud80-20_D0.8_3.tif,0.8,2,,,,,0,93,93,74,,,,,,,,,,,,,,,,,,,1,None,,2,0.952,,,,,2019_Jan_11_1237,60.146988806616875,Cloud_Experiment_FR_REAL,001,02,
images/fcloud_D0.8_3.tif,0.8,0,,,,,0,94,94,2,,,,,,,,,,,,,,,,,,,None,None,,None,9.745,,,,,2019_Jan_11_1237,60.146988806616875,Cloud_Experiment_FR_REAL,001,02,
images/fcloud80-20_D1.6_3.tif,1.6,2,,,,,0,95,95,98,,,,,,,,,,,,,,,,,,,None,None,,None,18.736,,,,,2019_Jan_11_1237,60.146988806616875,Cloud_Experiment_FR_REAL,001,02,
images/fcloud65-35_D1.2_1.tif,1.2,1,,,,,0,96,96,48,,,,,,,,,,,,,,,,,,,1,None,,3,0.835,,,,,2019_Jan_11_1237,60.146988806616875,Cloud_Experiment_FR_REAL,001,02,
images/fcloud65-35_D1.3_1.tif,1.3,1,,,,,0,97,97,51,,,,,,,,,,,,,,,,,,,None,None,,None,12.073,,,,,2019_Jan_11_1237,60.146988806616875,Cloud_Experiment_FR_REAL,001,02,
images/fcloud65-35_D1.9_3.tif,1.9,1,,,,,0,98,98,71,,,,,,,,,,,,,,,,,,,None,None,,None,21.084,,,,,2019_Jan_11_1237,60.146988806616875,Cloud_Experiment_FR_REAL,001,02,
images/fcloud80-20_D0.9_3.tif,0.9,2,,,,,0,99,99,77,,,,,,,,,,,,,,,,,,,1,None,,1,0.752,,,,,2019_Jan_11_1237,60.146988806616875,Cloud_Experiment_FR_REAL,001,02,
images/fcloud65-35_D1.6_3.tif,1.6,1,,,,,0,100,100,62,,,,,,,,,,,,,,,,,,,None,None,,None,10.459,,,,,2019_Jan_11_1237,60.146988806616875,Cloud_Experiment_FR_REAL,001,02,
images/fcloud65-35_D1.8_3.tif,1.8,1,,,,,0,101,101,68,,,,,,,,,,,,,,,,,,,None,None,,None,19.618,,,,,2019_Jan_11_1237,60.146988806616875,Cloud_Experiment_FR_REAL,001,02,
images/fcloud_D1.3_1.tif,1.3,0,,,,,0,102,102,15,,,,,,,,,,,,,,,,,,,1,None,,2,0.919,,,,,2019_Jan_11_1237,60.146988806616875,Cloud_Experiment_FR_REAL,001,02,
images/fcloud_D1.5_1.tif,1.5,0,,,,,0,103,103,21,,,,,,,,,,,,,,,,,,,1,None,,1,0.669,,,,,2019_Jan_11_1237,60.146988806616875,Cloud_Experiment_FR_REAL,001,02,
images/fcloud_D1.6_1.tif,1.6,0,,,,,0,104,104,24,,,,,,,,,,,,,,,,,,,None,None,,None,9.727,,,,,2019_Jan_11_1237,60.146988806616875,Cloud_Experiment_FR_REAL,001,02,
images/fcloud80-20_D1_2.tif,1.0,2,,,,,0,105,105,79,,,,,,,,,,,,,,,,,,,None,None,,None,18.752,,,,,2019_Jan_11_1237,60.146988806616875,Cloud_Experiment_FR_REAL,001,02,
images/fcloud80-20_D1.9_3.tif,1.9,2,,,,,0,106,106,107,,,,,,,,,,,,,,,,,,,None,None,,None,27.795,,,,,2019_Jan_11_1237,60.146988806616875,Cloud_Experiment_FR_REAL,001,02,
images/fcloud_D0.9_1.tif,0.9,0,,,,,0,107,107,3,,,,,,,,,,,,,,,,,,,2,None,,3,1.567,,,,,2019_Jan_11_1237,60.146988806616875,Cloud_Experiment_FR_REAL,001,02,
,,,,,,,,,,,,,,,,,,,,,,,,,6,305.461,,,,,,,,,,,,2019_Jan_11_1237,60.146988806616875,Cloud_Experiment_FR_REAL,001,02,
,,,,,,,,,,,,,,,,,,,,,,,,,,,,,,,,,,,,space,2.8828628856,2019_Jan_11_1237,60.146988806616875,Cloud_Experiment_FR_REAL,001,02,
images/fcloud_D1.7_4.tif,1.7,0,,,,,,,,,0,0,0,27,,,,,,,,,,,,,,,1,None,,2,1.62,,,,,2019_Jan_11_1237,60.146988806616875,Cloud_Experiment_FR_REAL,001,02,
images/fcloud_D0.9_4.tif,0.9,0,,,,,,,,,0,1,1,3,,,,,,,,,,,,,,,1,None,,2,0.718,,,,,2019_Jan_11_1237,60.146988806616875,Cloud_Experiment_FR_REAL,001,02,
images/fcloud65-35_D1.5_4.tif,1.5,1,,,,,,,,,0,2,2,57,,,,,,,,,,,,,,,None,None,,None,11.874,,,,,2019_Jan_11_1237,60.146988806616875,Cloud_Experiment_FR_REAL,001,02,
images/fcloud_D1.3_6.tif,1.3,0,,,,,,,,,0,3,3,17,,,,,,,,,,,,,,,1,None,,4,2.365,,,,,2019_Jan_11_1237,60.146988806616875,Cloud_Experiment_FR_REAL,001,02,
images/fcloud80-20_D0.9_5.tif,0.9,2,,,,,,,,,0,4,4,76,,,,,,,,,,,,,,,1,None,,1,1.519,,,,,2019_Jan_11_1237,60.146988806616875,Cloud_Experiment_FR_REAL,001,02,
images/fcloud_D0.9_6.tif,0.9,0,,,,,,,,,0,5,5,5,,,,,,,,,,,,,,,1,None,,4,1.684,,,,,2019_Jan_11_1237,60.146988806616875,Cloud_Experiment_FR_REAL,001,02,
images/fcloud65-35_D1.6_5.tif,1.6,1,,,,,,,,,0,6,6,61,,,,,,,,,,,,,,,None,None,,None,20.233,,,,,2019_Jan_11_1237,60.146988806616875,Cloud_Experiment_FR_REAL,001,02,
images/fcloud65-35_D1.7_4.tif,1.7,1,,,,,,,,,0,7,7,63,,,,,,,,,,,,,,,1,None,,1,0.668,,,,,2019_Jan_11_1237,60.146988806616875,Cloud_Experiment_FR_REAL,001,02,
images/fcloud_D1.8_5.tif,1.8,0,,,,,,,,,0,8,8,31,,,,,,,,,,,,,,,None,None,,None,10.145,,,,,2019_Jan_11_1237,60.146988806616875,Cloud_Experiment_FR_REAL,001,02,
images/fcloud_D1.7_6.tif,1.7,0,,,,,,,,,0,9,9,29,,,,,,,,,,,,,,,None,None,,None,18.986,,,,,2019_Jan_11_1237,60.146988806616875,Cloud_Experiment_FR_REAL,001,02,
images/fcloud80-20_D1.6_6.tif,1.6,2,,,,,,,,,0,10,10,98,,,,,,,,,,,,,,,1,None,,2,1.601,,,,,2019_Jan_11_1237,60.146988806616875,Cloud_Experiment_FR_REAL,001,02,
images/fcloud65-35_D1.7_5.tif,1.7,1,,,,,,,,,0,11,11,64,,,,,,,,,,,,,,,1,None,,1,1.351,,,,,2019_Jan_11_1237,60.146988806616875,Cloud_Experiment_FR_REAL,001,02,
images/fcloud_D1.7_5.tif,1.7,0,,,,,,,,,0,12,12,28,,,,,,,,,,,,,,,None,None,,None,10.796,,,,,2019_Jan_11_1237,60.146988806616875,Cloud_Experiment_FR_REAL,001,02,
images/fcloud80-20_D1.3_4.tif,1.3,2,,,,,,,,,0,13,13,87,,,,,,,,,,,,,,,None,None,,None,20.484,,,,,2019_Jan_11_1237,60.146988806616875,Cloud_Experiment_FR_REAL,001,02,
images/fcloud65-35_D0.8_5.tif,0.8,1,,,,,,,,,0,14,14,37,,,,,,,,,,,,,,,1,None,,3,1.567,,,,,2019_Jan_11_1237,60.146988806616875,Cloud_Experiment_FR_REAL,001,02,
images/fcloud_D1.4_4.tif,1.4,0,,,,,,,,,0,15,15,18,,,,,,,,,,,,,,,None,None,,None,10.843,,,,,2019_Jan_11_1237,60.146988806616875,Cloud_Experiment_FR_REAL,001,02,
images/fcloud65-35_D1.9_4.tif,1.9,1,,,,,,,,,0,16,16,69,,,,,,,,,,,,,,,None,None,,None,19.72,,,,,2019_Jan_11_1237,60.146988806616875,Cloud_Experiment_FR_REAL,001,02,
images/fcloud80-20_D1.9_6.tif,1.9,2,,,,,,,,,0,17,17,107,,,,,,,,,,,,,,,None,None,,None,28.61,,,,,2019_Jan_11_1237,60.146988806616875,Cloud_Experiment_FR_REAL,001,02,
images/fcloud_D1.9_6.tif,1.9,0,,,,,,,,,0,18,18,35,,,,,,,,,,,,,,,None,None,,None,37.702,,,,,2019_Jan_11_1237,60.146988806616875,Cloud_Experiment_FR_REAL,001,02,
images/fcloud65-35_D1.6_4.tif,1.6,1,,,,,,,,,0,19,19,60,,,,,,,,,,,,,,,None,None,,None,46.678,,,,,2019_Jan_11_1237,60.146988806616875,Cloud_Experiment_FR_REAL,001,02,
images/fcloud80-20_D1.5_4.tif,1.5,2,,,,,,,,,0,20,20,93,,,,,,,,,,,,,,,1,None,,2,1.354,,,,,2019_Jan_11_1237,60.146988806616875,Cloud_Experiment_FR_REAL,001,02,
images/fcloud_D1.1_6.tif,1.1,0,,,,,,,,,0,21,21,11,,,,,,,,,,,,,,,1,None,,1,0.636,,,,,2019_Jan_11_1237,60.146988806616875,Cloud_Experiment_FR_REAL,001,02,
images/fcloud80-20_D1_4.tif,1.0,2,,,,,,,,,0,22,22,78,,,,,,,,,,,,,,,1,None,,1,0.586,,,,,2019_Jan_11_1237,60.146988806616875,Cloud_Experiment_FR_REAL,001,02,
images/fcloud65-35_D1.1_4.tif,1.1,1,,,,,,,,,0,23,23,45,,,,,,,,,,,,,,,1,None,,3,3.283,,,,,2019_Jan_11_1237,60.146988806616875,Cloud_Experiment_FR_REAL,001,02,
images/fcloud65-35_D1_4.tif,1.0,1,,,,,,,,,0,24,24,42,,,,,,,,,,,,,,,None,None,,None,12.34,,,,,2019_Jan_11_1237,60.146988806616875,Cloud_Experiment_FR_REAL,001,02,
images/fcloud_D1_6.tif,1.0,0,,,,,,,,,0,25,25,8,,,,,,,,,,,,,,,None,None,,None,22.015,,,,,2019_Jan_11_1237,60.146988806616875,Cloud_Experiment_FR_REAL,001,02,
images/fcloud80-20_D0.9_4.tif,0.9,2,,,,,,,,,0,26,26,75,,,,,,,,,,,,,,,None,None,,None,30.741,,,,,2019_Jan_11_1237,60.146988806616875,Cloud_Experiment_FR_REAL,001,02,
images/fcloud80-20_D1.5_5.tif,1.5,2,,,,,,,,,0,27,27,94,,,,,,,,,,,,,,,1,None,,1,1.753,,,,,2019_Jan_11_1237,60.146988806616875,Cloud_Experiment_FR_REAL,001,02,
images/fcloud65-35_D1.2_5.tif,1.2,1,,,,,,,,,0,28,28,49,,,,,,,,,,,,,,,1,None,,1,0.622,,,,,2019_Jan_11_1237,60.146988806616875,Cloud_Experiment_FR_REAL,001,02,
images/fcloud65-35_D1.5_5.tif,1.5,1,,,,,,,,,0,29,29,58,,,,,,,,,,,,,,,1,None,,2,0.985,,,,,2019_Jan_11_1237,60.146988806616875,Cloud_Experiment_FR_REAL,001,02,
images/fcloud65-35_D1.5_6.tif,1.5,1,,,,,,,,,0,30,30,59,,,,,,,,,,,,,,,1,None,,2,2.151,,,,,2019_Jan_11_1237,60.146988806616875,Cloud_Experiment_FR_REAL,001,02,
images/fcloud65-35_D1.8_4.tif,1.8,1,,,,,,,,,0,31,31,66,,,,,,,,,,,,,,,1,None,,2,0.851,,,,,2019_Jan_11_1237,60.146988806616875,Cloud_Experiment_FR_REAL,001,02,
images/fcloud80-20_D1.9_4.tif,1.9,2,,,,,,,,,0,32,32,105,,,,,,,,,,,,,,,1,None,,1,0.718,,,,,2019_Jan_11_1237,60.146988806616875,Cloud_Experiment_FR_REAL,001,02,
images/fcloud_D1.4_6.tif,1.4,0,,,,,,,,,0,33,33,20,,,,,,,,,,,,,,,1,None,,1,1.069,,,,,2019_Jan_11_1237,60.146988806616875,Cloud_Experiment_FR_REAL,001,02,
images/fcloud_D1.9_4.tif,1.9,0,,,,,,,,,0,34,34,33,,,,,,,,,,,,,,,1,None,,1,0.602,,,,,2019_Jan_11_1237,60.146988806616875,Cloud_Experiment_FR_REAL,001,02,
images/fcloud80-20_D1.7_6.tif,1.7,2,,,,,,,,,0,35,35,101,,,,,,,,,,,,,,,1,None,,2,0.684,,,,,2019_Jan_11_1237,60.146988806616875,Cloud_Experiment_FR_REAL,001,02,
images/fcloud_D1.5_6.tif,1.5,0,,,,,,,,,0,36,36,23,,,,,,,,,,,,,,,None,None,,None,10.476,,,,,2019_Jan_11_1237,60.146988806616875,Cloud_Experiment_FR_REAL,001,02,
images/fcloud80-20_D1.3_6.tif,1.3,2,,,,,,,,,0,37,37,89,,,,,,,,,,,,,,,None,None,,None,19.535,,,,,2019_Jan_11_1237,60.146988806616875,Cloud_Experiment_FR_REAL,001,02,
images/fcloud80-20_D1.2_5.tif,1.2,2,,,,,,,,,0,38,38,85,,,,,,,,,,,,,,,1,None,,2,2.252,,,,,2019_Jan_11_1237,60.146988806616875,Cloud_Experiment_FR_REAL,001,02,
images/fcloud80-20_D1.8_4.tif,1.8,2,,,,,,,,,0,39,39,102,,,,,,,,,,,,,,,None,None,,None,11.628,,,,,2019_Jan_11_1237,60.146988806616875,Cloud_Experiment_FR_REAL,001,02,
images/fcloud_D1.1_4.tif,1.1,0,,,,,,,,,0,40,40,9,,,,,,,,,,,,,,,1,None,,2,3.052,,,,,2019_Jan_11_1237,60.146988806616875,Cloud_Experiment_FR_REAL,001,02,
images/fcloud_D1_5.tif,1.0,0,,,,,,,,,0,41,41,7,,,,,,,,,,,,,,,1,None,,1,0.485,,,,,2019_Jan_11_1237,60.146988806616875,Cloud_Experiment_FR_REAL,001,02,
images/fcloud80-20_D1.4_5.tif,1.4,2,,,,,,,,,0,42,42,91,,,,,,,,,,,,,,,1,None,,1,1.667,,,,,2019_Jan_11_1237,60.146988806616875,Cloud_Experiment_FR_REAL,001,02,
images/fcloud80-20_D0.8_4.tif,0.8,2,,,,,,,,,0,43,43,72,,,,,,,,,,,,,,,1,None,,1,0.553,,,,,2019_Jan_11_1237,60.146988806616875,Cloud_Experiment_FR_REAL,001,02,
images/fcloud_D0.8_5.tif,0.8,0,,,,,,,,,0,44,44,1,,,,,,,,,,,,,,,1,None,,3,0.785,,,,,2019_Jan_11_1237,60.146988806616875,Cloud_Experiment_FR_REAL,001,02,
images/fcloud_D1.9_5.tif,1.9,0,,,,,,,,,0,45,45,34,,,,,,,,,,,,,,,1,None,,1,0.535,,,,,2019_Jan_11_1237,60.146988806616875,Cloud_Experiment_FR_REAL,001,02,
images/fcloud80-20_D1.5_6.tif,1.5,2,,,,,,,,,0,46,46,95,,,,,,,,,,,,,,,1,None,,1,0.836,,,,,2019_Jan_11_1237,60.146988806616875,Cloud_Experiment_FR_REAL,001,02,
images/fcloud65-35_D1.7_6.tif,1.7,1,,,,,,,,,0,47,47,65,,,,,,,,,,,,,,,None,None,,None,10.542,,,,,2019_Jan_11_1237,60.146988806616875,Cloud_Experiment_FR_REAL,001,02,
images/fcloud_D1.6_4.tif,1.6,0,,,,,,,,,0,48,48,24,,,,,,,,,,,,,,,None,None,,None,19.535,,,,,2019_Jan_11_1237,60.146988806616875,Cloud_Experiment_FR_REAL,001,02,
images/fcloud65-35_D1.6_6.tif,1.6,1,,,,,,,,,0,49,49,62,,,,,,,,,,,,,,,None,None,,None,28.38,,,,,2019_Jan_11_1237,60.146988806616875,Cloud_Experiment_FR_REAL,001,02,
images/fcloud65-35_D1.4_5.tif,1.4,1,,,,,,,,,0,50,50,55,,,,,,,,,,,,,,,1,None,,1,1.268,,,,,2019_Jan_11_1237,60.146988806616875,Cloud_Experiment_FR_REAL,001,02,
images/fcloud_D0.8_6.tif,0.8,0,,,,,,,,,0,51,51,2,,,,,,,,,,,,,,,1,None,,1,0.618,,,,,2019_Jan_11_1237,60.146988806616875,Cloud_Experiment_FR_REAL,001,02,
images/fcloud80-20_D1.4_4.tif,1.4,2,,,,,,,,,0,52,52,90,,,,,,,,,,,,,,,None,None,,None,9.493,,,,,2019_Jan_11_1237,60.146988806616875,Cloud_Experiment_FR_REAL,001,02,
images/fcloud80-20_D1.2_4.tif,1.2,2,,,,,,,,,0,53,53,84,,,,,,,,,,,,,,,None,None,,None,18.302,,,,,2019_Jan_11_1237,60.146988806616875,Cloud_Experiment_FR_REAL,001,02,
images/fcloud65-35_D1.3_5.tif,1.3,1,,,,,,,,,0,54,54,52,,,,,,,,,,,,,,,1,None,,1,0.57,,,,,2019_Jan_11_1237,60.146988806616875,Cloud_Experiment_FR_REAL,001,02,
images/fcloud_D0.8_4.tif,0.8,0,,,,,,,,,0,55,55,0,,,,,,,,,,,,,,,1,None,,2,0.67,,,,,2019_Jan_11_1237,60.146988806616875,Cloud_Experiment_FR_REAL,001,02,
images/fcloud65-35_D1.3_6.tif,1.3,1,,,,,,,,,0,56,56,53,,,,,,,,,,,,,,,1,None,,2,0.835,,,,,2019_Jan_11_1237,60.146988806616875,Cloud_Experiment_FR_REAL,001,02,
images/fcloud_D1.2_5.tif,1.2,0,,,,,,,,,0,57,57,13,,,,,,,,,,,,,,,None,None,,None,9.642,,,,,2019_Jan_11_1237,60.146988806616875,Cloud_Experiment_FR_REAL,001,02,
images/fcloud80-20_D1.3_5.tif,1.3,2,,,,,,,,,0,58,58,88,,,,,,,,,,,,,,,None,None,,None,18.652,,,,,2019_Jan_11_1237,60.146988806616875,Cloud_Experiment_FR_REAL,001,02,
images/fcloud_D1.5_4.tif,1.5,0,,,,,,,,,0,59,59,21,,,,,,,,,,,,,,,1,None,,2,0.787,,,,,2019_Jan_11_1237,60.146988806616875,Cloud_Experiment_FR_REAL,001,02,
images/fcloud65-35_D1.4_4.tif,1.4,1,,,,,,,,,0,60,60,54,,,,,,,,,,,,,,,1,None,,1,0.668,,,,,2019_Jan_11_1237,60.146988806616875,Cloud_Experiment_FR_REAL,001,02,
images/fcloud80-20_D0.8_6.tif,0.8,2,,,,,,,,,0,61,61,74,,,,,,,,,,,,,,,1,None,,2,0.736,,,,,2019_Jan_11_1237,60.146988806616875,Cloud_Experiment_FR_REAL,001,02,
images/fcloud80-20_D1.4_6.tif,1.4,2,,,,,,,,,0,62,62,92,,,,,,,,,,,,,,,None,None,,None,10.276,,,,,2019_Jan_11_1237,60.146988806616875,Cloud_Experiment_FR_REAL,001,02,
images/fcloud_D1.3_5.tif,1.3,0,,,,,,,,,0,63,63,16,,,,,,,,,,,,,,,None,None,,None,19.3,,,,,2019_Jan_11_1237,60.146988806616875,Cloud_Experiment_FR_REAL,001,02,
images/fcloud65-35_D1_6.tif,1.0,1,,,,,,,,,0,64,64,44,,,,,,,,,,,,,,,1,None,,3,2.384,,,,,2019_Jan_11_1237,60.146988806616875,Cloud_Experiment_FR_REAL,001,02,
images/fcloud80-20_D1.1_6.tif,1.1,2,,,,,,,,,0,65,65,83,,,,,,,,,,,,,,,None,None,,None,11.575,,,,,2019_Jan_11_1237,60.146988806616875,Cloud_Experiment_FR_REAL,001,02,
images/fcloud65-35_D1.1_6.tif,1.1,1,,,,,,,,,0,66,66,47,,,,,,,,,,,,,,,None,None,,None,20.284,,,,,2019_Jan_11_1237,60.146988806616875,Cloud_Experiment_FR_REAL,001,02,
images/fcloud80-20_D1.7_4.tif,1.7,2,,,,,,,,,0,67,67,99,,,,,,,,,,,,,,,None,None,,None,29.277,,,,,2019_Jan_11_1237,60.146988806616875,Cloud_Experiment_FR_REAL,001,02,
images/fcloud65-35_D1.8_5.tif,1.8,1,,,,,,,,,0,68,68,67,,,,,,,,,,,,,,,1,None,,3,2.385,,,,,2019_Jan_11_1237,60.146988806616875,Cloud_Experiment_FR_REAL,001,02,
images/fcloud80-20_D0.9_6.tif,0.9,2,,,,,,,,,0,69,69,77,,,,,,,,,,,,,,,1,None,,1,0.42,,,,,2019_Jan_11_1237,60.146988806616875,Cloud_Experiment_FR_REAL,001,02,
images/fcloud80-20_D1.6_5.tif,1.6,2,,,,,,,,,0,70,70,97,,,,,,,,,,,,,,,2,None,,3,2.084,,,,,2019_Jan_11_1237,60.146988806616875,Cloud_Experiment_FR_REAL,001,02,
images/fcloud65-35_D0.8_6.tif,0.8,1,,,,,,,,,0,71,71,38,,,,,,,,,,,,,,,2,None,,2,1.901,,,,,2019_Jan_11_1237,60.146988806616875,Cloud_Experiment_FR_REAL,001,02,
images/fcloud65-35_D1.8_6.tif,1.8,1,,,,,,,,,0,72,72,68,,,,,,,,,,,,,,,None,None,,None,11.541,,,,,2019_Jan_11_1237,60.146988806616875,Cloud_Experiment_FR_REAL,001,02,
images/fcloud65-35_D1.2_6.tif,1.2,1,,,,,,,,,0,73,73,50,,,,,,,,,,,,,,,None,None,,None,20.499,,,,,2019_Jan_11_1237,60.146988806616875,Cloud_Experiment_FR_REAL,001,02,
images/fcloud65-35_D0.9_6.tif,0.9,1,,,,,,,,,0,74,74,41,,,,,,,,,,,,,,,None,None,,None,29.476,,,,,2019_Jan_11_1237,60.146988806616875,Cloud_Experiment_FR_REAL,001,02,
images/fcloud_D1.4_5.tif,1.4,0,,,,,,,,,0,75,75,19,,,,,,,,,,,,,,,1,None,,1,4.1,,,,,2019_Jan_11_1237,60.146988806616875,Cloud_Experiment_FR_REAL,001,02,
images/fcloud65-35_D1.9_5.tif,1.9,1,,,,,,,,,0,76,76,70,,,,,,,,,,,,,,,None,None,,None,12.893,,,,,2019_Jan_11_1237,60.146988806616875,Cloud_Experiment_FR_REAL,001,02,
images/fcloud80-20_D1.2_6.tif,1.2,2,,,,,,,,,0,77,77,86,,,,,,,,,,,,,,,None,None,,None,21.699,,,,,2019_Jan_11_1237,60.146988806616875,Cloud_Experiment_FR_REAL,001,02,
images/fcloud65-35_D1.1_5.tif,1.1,1,,,,,,,,,0,78,78,46,,,,,,,,,,,,,,,None,None,,None,30.626,,,,,2019_Jan_11_1237,60.146988806616875,Cloud_Experiment_FR_REAL,001,02,
images/fcloud_D1.2_6.tif,1.2,0,,,,,,,,,0,79,79,14,,,,,,,,,,,,,,,None,None,,None,40.366,,,,,2019_Jan_11_1237,60.146988806616875,Cloud_Experiment_FR_REAL,001,02,
images/fcloud80-20_D1.8_6.tif,1.8,2,,,,,,,,,0,80,80,104,,,,,,,,,,,,,,,1,None,,1,0.821,,,,,2019_Jan_11_1237,60.146988806616875,Cloud_Experiment_FR_REAL,001,02,
images/fcloud_D1.8_4.tif,1.8,0,,,,,,,,,0,81,81,30,,,,,,,,,,,,,,,None,None,,None,10.01,,,,,2019_Jan_11_1237,60.146988806616875,Cloud_Experiment_FR_REAL,001,02,
images/fcloud_D1.6_6.tif,1.6,0,,,,,,,,,0,82,82,26,,,,,,,,,,,,,,,1,None,,2,1.167,,,,,2019_Jan_11_1237,60.146988806616875,Cloud_Experiment_FR_REAL,001,02,
images/fcloud80-20_D1.8_5.tif,1.8,2,,,,,,,,,0,83,83,103,,,,,,,,,,,,,,,1,None,,1,0.618,,,,,2019_Jan_11_1237,60.146988806616875,Cloud_Experiment_FR_REAL,001,02,
images/fcloud_D1.5_5.tif,1.5,0,,,,,,,,,0,84,84,22,,,,,,,,,,,,,,,None,None,,None,10.027,,,,,2019_Jan_11_1237,60.146988806616875,Cloud_Experiment_FR_REAL,001,02,
images/fcloud80-20_D0.8_5.tif,0.8,2,,,,,,,,,0,85,85,73,,,,,,,,,,,,,,,None,None,,None,19.134,,,,,2019_Jan_11_1237,60.146988806616875,Cloud_Experiment_FR_REAL,001,02,
images/fcloud_D1_4.tif,1.0,0,,,,,,,,,0,86,86,6,,,,,,,,,,,,,,,1,None,,3,0.785,,,,,2019_Jan_11_1237,60.146988806616875,Cloud_Experiment_FR_REAL,001,02,
images/fcloud65-35_D1.3_4.tif,1.3,1,,,,,,,,,0,87,87,51,,,,,,,,,,,,,,,1,None,,2,0.868,,,,,2019_Jan_11_1237,60.146988806616875,Cloud_Experiment_FR_REAL,001,02,
images/fcloud65-35_D1.9_6.tif,1.9,1,,,,,,,,,0,88,88,71,,,,,,,,,,,,,,,None,None,,None,10.326,,,,,2019_Jan_11_1237,60.146988806616875,Cloud_Experiment_FR_REAL,001,02,
images/fcloud65-35_D0.8_4.tif,0.8,1,,,,,,,,,0,89,89,36,,,,,,,,,,,,,,,1,None,,3,1.135,,,,,2019_Jan_11_1237,60.146988806616875,Cloud_Experiment_FR_REAL,001,02,
images/fcloud_D1.3_4.tif,1.3,0,,,,,,,,,0,90,90,15,,,,,,,,,,,,,,,1,None,,4,1.234,,,,,2019_Jan_11_1237,60.146988806616875,Cloud_Experiment_FR_REAL,001,02,
images/fcloud80-20_D1.1_4.tif,1.1,2,,,,,,,,,0,91,91,81,,,,,,,,,,,,,,,None,None,,None,10.408,,,,,2019_Jan_11_1237,60.146988806616875,Cloud_Experiment_FR_REAL,001,02,
images/fcloud_D1.8_6.tif,1.8,0,,,,,,,,,0,92,92,32,,,,,,,,,,,,,,,1,None,,2,1.469,,,,,2019_Jan_11_1237,60.146988806616875,Cloud_Experiment_FR_REAL,001,02,
images/fcloud_D1.6_5.tif,1.6,0,,,,,,,,,0,93,93,25,,,,,,,,,,,,,,,1,None,,2,1.685,,,,,2019_Jan_11_1237,60.146988806616875,Cloud_Experiment_FR_REAL,001,02,
images/fcloud80-20_D1.7_5.tif,1.7,2,,,,,,,,,0,94,94,100,,,,,,,,,,,,,,,1,None,,1,0.552,,,,,2019_Jan_11_1237,60.146988806616875,Cloud_Experiment_FR_REAL,001,02,
images/fcloud_D0.9_5.tif,0.9,0,,,,,,,,,0,95,95,4,,,,,,,,,,,,,,,None,None,,None,9.277,,,,,2019_Jan_11_1237,60.146988806616875,Cloud_Experiment_FR_REAL,001,02,
images/fcloud80-20_D1_6.tif,1.0,2,,,,,,,,,0,96,96,80,,,,,,,,,,,,,,,None,None,,None,18.185,,,,,2019_Jan_11_1237,60.146988806616875,Cloud_Experiment_FR_REAL,001,02,
images/fcloud80-20_D1_5.tif,1.0,2,,,,,,,,,0,97,97,79,,,,,,,,,,,,,,,1,None,,1,0.418,,,,,2019_Jan_11_1237,60.146988806616875,Cloud_Experiment_FR_REAL,001,02,
images/fcloud_D1.2_4.tif,1.2,0,,,,,,,,,0,98,98,12,,,,,,,,,,,,,,,1,None,,1,0.536,,,,,2019_Jan_11_1237,60.146988806616875,Cloud_Experiment_FR_REAL,001,02,
images/fcloud80-20_D1.6_4.tif,1.6,2,,,,,,,,,0,99,99,96,,,,,,,,,,,,,,,None,None,,None,10.026,,,,,2019_Jan_11_1237,60.146988806616875,Cloud_Experiment_FR_REAL,001,02,
images/fcloud65-35_D0.9_4.tif,0.9,1,,,,,,,,,0,100,100,39,,,,,,,,,,,,,,,1,None,,2,3.898,,,,,2019_Jan_11_1237,60.146988806616875,Cloud_Experiment_FR_REAL,001,02,
images/fcloud65-35_D1.2_4.tif,1.2,1,,,,,,,,,0,101,101,48,,,,,,,,,,,,,,,None,None,,None,14.022,,,,,2019_Jan_11_1237,60.146988806616875,Cloud_Experiment_FR_REAL,001,02,
images/fcloud_D1.1_5.tif,1.1,0,,,,,,,,,0,102,102,10,,,,,,,,,,,,,,,None,None,,None,22.814,,,,,2019_Jan_11_1237,60.146988806616875,Cloud_Experiment_FR_REAL,001,02,
images/fcloud80-20_D1.9_5.tif,1.9,2,,,,,,,,,0,103,103,106,,,,,,,,,,,,,,,1,None,,1,0.852,,,,,2019_Jan_11_1237,60.146988806616875,Cloud_Experiment_FR_REAL,001,02,
images/fcloud65-35_D1.4_6.tif,1.4,1,,,,,,,,,0,104,104,56,,,,,,,,,,,,,,,None,None,,None,10.077,,,,,2019_Jan_11_1237,60.146988806616875,Cloud_Experiment_FR_REAL,001,02,
images/fcloud80-20_D1.1_5.tif,1.1,2,,,,,,,,,0,105,105,82,,,,,,,,,,,,,,,None,None,,None,18.887,,,,,2019_Jan_11_1237,60.146988806616875,Cloud_Experiment_FR_REAL,001,02,
images/fcloud65-35_D0.9_5.tif,0.9,1,,,,,,,,,0,106,106,40,,,,,,,,,,,,,,,None,None,,None,27.779,,,,,2019_Jan_11_1237,60.146988806616875,Cloud_Experiment_FR_REAL,001,02,
images/fcloud65-35_D1_5.tif,1.0,1,,,,,,,,,0,107,107,43,,,,,,,,,,,,,,,1,None,,2,2.418,,,,,2019_Jan_11_1237,60.146988806616875,Cloud_Experiment_FR_REAL,001,02,
,,,,,,,,,,,,,,,,,,,,,,,,,5,1392.576,,,,,,,,,,,,2019_Jan_11_1237,60.146988806616875,Cloud_Experiment_FR_REAL,001,02,
,,,,,,,,,,,,,,,,,,,,,,,,,,,,,,,,,,,,space,4.03067942907,2019_Jan_11_1237,60.146988806616875,Cloud_Experiment_FR_REAL,001,02,
images/fcloud80-20_D0.8_8.tif,0.8,2,,,,,,,,,,,,,0,0,0,97,,,,,,,,,,,None,None,,None,1409.108,,,,,2019_Jan_11_1237,60.146988806616875,Cloud_Experiment_FR_REAL,001,02,
images/fcloud65-35_D1.3_10.tif,1.3,1,,,,,,,,,,,,,0,1,1,71,,,,,,,,,,,None,None,,None,1418.617,,,,,2019_Jan_11_1237,60.146988806616875,Cloud_Experiment_FR_REAL,001,02,
images/fcloud_D1.8_10.tif,1.8,0,,,,,,,,,,,,,0,2,2,43,,,,,,,,,,,None,None,,None,1427.36,,,,,2019_Jan_11_1237,60.146988806616875,Cloud_Experiment_FR_REAL,001,02,
images/fcloud80-20_D1.8_7.tif,1.8,2,,,,,,,,,,,,,0,3,3,136,,,,,,,,,,,1,None,,1,0.635,,,,,2019_Jan_11_1237,60.146988806616875,Cloud_Experiment_FR_REAL,001,02,
images/fcloud65-35_D0.9_8.tif,0.9,1,,,,,,,,,,,,,0,4,4,53,,,,,,,,,,,1,None,,1,1.703,,,,,2019_Jan_11_1237,60.146988806616875,Cloud_Experiment_FR_REAL,001,02,
images/fcloud65-35_D1.9_8.tif,1.9,1,,,,,,,,,,,,,0,5,5,93,,,,,,,,,,,None,None,,None,10.442,,,,,2019_Jan_11_1237,60.146988806616875,Cloud_Experiment_FR_REAL,001,02,
images/fcloud65-35_D1.1_7.tif,1.1,1,,,,,,,,,,,,,0,6,6,60,,,,,,,,,,,None,None,,None,20.167,,,,,2019_Jan_11_1237,60.146988806616875,Cloud_Experiment_FR_REAL,001,02,
images/fcloud_D1.2_7.tif,1.2,0,,,,,,,,,,,,,0,7,7,16,,,,,,,,,,,None,None,,None,29.641,,,,,2019_Jan_11_1237,60.146988806616875,Cloud_Experiment_FR_REAL,001,02,
images/fcloud80-20_D1.6_8.tif,1.6,2,,,,,,,,,,,,,0,8,8,129,,,,,,,,,,,1,None,,1,0.52,,,,,2019_Jan_11_1237,60.146988806616875,Cloud_Experiment_FR_REAL,001,02,
images/fcloud80-20_D1.2_7.tif,1.2,2,,,,,,,,,,,,,0,9,9,112,,,,,,,,,,,1,None,,4,1.818,,,,,2019_Jan_11_1237,60.146988806616875,Cloud_Experiment_FR_REAL,001,02,
images/fcloud80-20_D1.5_8.tif,1.5,2,,,,,,,,,,,,,0,10,10,125,,,,,,,,,,,2,None,,3,0.769,,,,,2019_Jan_11_1237,60.146988806616875,Cloud_Experiment_FR_REAL,001,02,
images/fcloud80-20_D1.2_10.tif,1.2,2,,,,,,,,,,,,,0,11,11,115,,,,,,,,,,,2,None,,4,1.152,,,,,2019_Jan_11_1237,60.146988806616875,Cloud_Experiment_FR_REAL,001,02,
images/fcloud65-35_D0.9_10.tif,0.9,1,,,,,,,,,,,,,0,12,12,55,,,,,,,,,,,None,None,,None,11.674,,,,,2019_Jan_11_1237,60.146988806616875,Cloud_Experiment_FR_REAL,001,02,
images/fcloud_D0.8_7.tif,0.8,0,,,,,,,,,,,,,0,13,13,0,,,,,,,,,,,2,None,,3,1.202,,,,,2019_Jan_11_1237,60.146988806616875,Cloud_Experiment_FR_REAL,001,02,
images/fcloud65-35_D0.8_9.tif,0.8,1,,,,,,,,,,,,,0,14,14,50,,,,,,,,,,,1,None,,2,0.935,,,,,2019_Jan_11_1237,60.146988806616875,Cloud_Experiment_FR_REAL,001,02,
images/fcloud80-20_D1.6_9.tif,1.6,2,,,,,,,,,,,,,0,15,15,130,,,,,,,,,,,None,None,,None,9.592,,,,,2019_Jan_11_1237,60.146988806616875,Cloud_Experiment_FR_REAL,001,02,
images/fcloud65-35_D1_8.tif,1.0,1,,,,,,,,,,,,,0,16,16,57,,,,,,,,,,,None,None,,None,18.752,,,,,2019_Jan_11_1237,60.146988806616875,Cloud_Experiment_FR_REAL,001,02,
images/fcloud65-35_D1.1_10.tif,1.1,1,,,,,,,,,,,,,0,17,17,63,,,,,,,,,,,None,None,,None,27.426,,,,,2019_Jan_11_1237,60.146988806616875,Cloud_Experiment_FR_REAL,001,02,
images/fcloud_D1.9_7.tif,1.9,0,,,,,,,,,,,,,0,18,18,44,,,,,,,,,,,None,None,,None,37.07,,,,,2019_Jan_11_1237,60.146988806616875,Cloud_Experiment_FR_REAL,001,02,
images/fcloud80-20_D0.8_9.tif,0.8,2,,,,,,,,,,,,,0,19,19,98,,,,,,,,,,,None,None,,None,45.879,,,,,2019_Jan_11_1237,60.146988806616875,Cloud_Experiment_FR_REAL,001,02,
images/fcloud80-20_D1.4_7.tif,1.4,2,,,,,,,,,,,,,0,20,20,120,,,,,,,,,,,None,None,,None,54.737,,,,,2019_Jan_11_1237,60.146988806616875,Cloud_Experiment_FR_REAL,001,02,
images/fcloud65-35_D0.8_10.tif,0.8,1,,,,,,,,,,,,,0,21,21,51,,,,,,,,,,,1,None,,2,1.585,,,,,2019_Jan_11_1237,60.146988806616875,Cloud_Experiment_FR_REAL,001,02,
images/fcloud_D1.3_8.tif,1.3,0,,,,,,,,,,,,,0,22,22,21,,,,,,,,,,,None,None,,None,11.192,,,,,2019_Jan_11_1237,60.146988806616875,Cloud_Experiment_FR_REAL,001,02,
images/fcloud80-20_D1.5_10.tif,1.5,2,,,,,,,,,,,,,0,23,23,127,,,,,,,,,,,1,None,,2,0.602,,,,,2019_Jan_11_1237,60.146988806616875,Cloud_Experiment_FR_REAL,001,02,
images/fcloud_D0.8_9.tif,0.8,0,,,,,,,,,,,,,0,24,24,2,,,,,,,,,,,None,None,,None,9.809,,,,,2019_Jan_11_1237,60.146988806616875,Cloud_Experiment_FR_REAL,001,02,
images/fcloud_D1.1_10.tif,1.1,0,,,,,,,,,,,,,0,25,25,15,,,,,,,,,,,None,None,,None,18.702,,,,,2019_Jan_11_1237,60.146988806616875,Cloud_Experiment_FR_REAL,001,02,
images/fcloud65-35_D1_7.tif,1.0,1,,,,,,,,,,,,,0,26,26,56,,,,,,,,,,,None,None,,None,27.495,,,,,2019_Jan_11_1237,60.146988806616875,Cloud_Experiment_FR_REAL,001,02,
images/fcloud_D1.1_7.tif,1.1,0,,,,,,,,,,,,,0,27,27,12,,,,,,,,,,,None,None,,None,36.319,,,,,2019_Jan_11_1237,60.146988806616875,Cloud_Experiment_FR_REAL,001,02,
images/fcloud_D1.6_7.tif,1.6,0,,,,,,,,,,,,,0,28,28,32,,,,,,,,,,,None,None,,None,45.078,,,,,2019_Jan_11_1237,60.146988806616875,Cloud_Experiment_FR_REAL,001,02,
images/fcloud_D1.9_9.tif,1.9,0,,,,,,,,,,,,,0,29,29,46,,,,,,,,,,,1,None,,1,0.653,,,,,2019_Jan_11_1237,60.146988806616875,Cloud_Experiment_FR_REAL,001,02,
images/fcloud_D0.8_8.tif,0.8,0,,,,,,,,,,,,,0,30,30,1,,,,,,,,,,,1,None,,4,1.0,,,,,2019_Jan_11_1237,60.146988806616875,Cloud_Experiment_FR_REAL,001,02,
images/fcloud65-35_D1.4_9.tif,1.4,1,,,,,,,,,,,,,0,31,31,74,,,,,,,,,,,None,None,,None,10.226,,,,,2019_Jan_11_1237,60.146988806616875,Cloud_Experiment_FR_REAL,001,02,
images/fcloud65-35_D1.4_10.tif,1.4,1,,,,,,,,,,,,,0,32,32,75,,,,,,,,,,,1,None,,2,0.553,,,,,2019_Jan_11_1237,60.146988806616875,Cloud_Experiment_FR_REAL,001,02,
images/fcloud_D1.7_9.tif,1.7,0,,,,,,,,,,,,,0,33,33,38,,,,,,,,,,,1,None,,2,0.602,,,,,2019_Jan_11_1237,60.146988806616875,Cloud_Experiment_FR_REAL,001,02,
images/fcloud80-20_D1.1_9.tif,1.1,2,,,,,,,,,,,,,0,34,34,110,,,,,,,,,,,None,None,,None,10.227,,,,,2019_Jan_11_1237,60.146988806616875,Cloud_Experiment_FR_REAL,001,02,
images/fcloud80-20_D1.8_8.tif,1.8,2,,,,,,,,,,,,,0,35,35,137,,,,,,,,,,,None,None,,None,19.684,,,,,2019_Jan_11_1237,60.146988806616875,Cloud_Experiment_FR_REAL,001,02,
images/fcloud80-20_D1.1_7.tif,1.1,2,,,,,,,,,,,,,0,36,36,108,,,,,,,,,,,1,None,,1,0.619,,,,,2019_Jan_11_1237,60.146988806616875,Cloud_Experiment_FR_REAL,001,02,
images/fcloud_D0.9_10.tif,0.9,0,,,,,,,,,,,,,0,37,37,7,,,,,,,,,,,None,None,,None,9.646,,,,,2019_Jan_11_1237,60.146988806616875,Cloud_Experiment_FR_REAL,001,02,
images/fcloud_D1.5_9.tif,1.5,0,,,,,,,,,,,,,0,38,38,30,,,,,,,,,,,None,None,,None,19.318,,,,,2019_Jan_11_1237,60.146988806616875,Cloud_Experiment_FR_REAL,001,02,
images/fcloud80-20_D1.9_9.tif,1.9,2,,,,,,,,,,,,,0,39,39,142,,,,,,,,,,,None,None,,None,27.96,,,,,2019_Jan_11_1237,60.146988806616875,Cloud_Experiment_FR_REAL,001,02,
images/fcloud_D1.9_10.tif,1.9,0,,,,,,,,,,,,,0,40,40,47,,,,,,,,,,,None,None,,None,37.369,,,,,2019_Jan_11_1237,60.146988806616875,Cloud_Experiment_FR_REAL,001,02,
images/fcloud_D1.7_8.tif,1.7,0,,,,,,,,,,,,,0,41,41,37,,,,,,,,,,,None,None,,None,46.161,,,,,2019_Jan_11_1237,60.146988806616875,Cloud_Experiment_FR_REAL,001,02,
images/fcloud65-35_D1.4_8.tif,1.4,1,,,,,,,,,,,,,0,42,42,73,,,,,,,,,,,None,None,,None,54.788,,,,,2019_Jan_11_1237,60.146988806616875,Cloud_Experiment_FR_REAL,001,02,
images/fcloud_D1.4_8.tif,1.4,0,,,,,,,,,,,,,0,43,43,25,,,,,,,,,,,1,None,,2,1.269,,,,,2019_Jan_11_1237,60.146988806616875,Cloud_Experiment_FR_REAL,001,02,
images/fcloud_D1.2_10.tif,1.2,0,,,,,,,,,,,,,0,44,44,19,,,,,,,,,,,None,None,,None,10.909,,,,,2019_Jan_11_1237,60.146988806616875,Cloud_Experiment_FR_REAL,001,02,
images/fcloud65-35_D1.3_9.tif,1.3,1,,,,,,,,,,,,,0,45,45,70,,,,,,,,,,,1,None,,1,0.636,,,,,2019_Jan_11_1237,60.146988806616875,Cloud_Experiment_FR_REAL,001,02,
images/fcloud_D1_9.tif,1.0,0,,,,,,,,,,,,,0,46,46,10,,,,,,,,,,,1,None,,4,1.203,,,,,2019_Jan_11_1237,60.146988806616875,Cloud_Experiment_FR_REAL,001,02,
images/fcloud_D0.8_10.tif,0.8,0,,,,,,,,,,,,,0,47,47,3,,,,,,,,,,,None,None,,None,11.54,,,,,2019_Jan_11_1237,60.146988806616875,Cloud_Experiment_FR_REAL,001,02,
images/fcloud_D1.2_9.tif,1.2,0,,,,,,,,,,,,,0,48,48,18,,,,,,,,,,,None,None,,None,20.218,,,,,2019_Jan_11_1237,60.146988806616875,Cloud_Experiment_FR_REAL,001,02,
images/fcloud65-35_D1.6_10.tif,1.6,1,,,,,,,,,,,,,0,49,49,83,,,,,,,,,,,None,None,,None,29.677,,,,,2019_Jan_11_1237,60.146988806616875,Cloud_Experiment_FR_REAL,001,02,
images/fcloud80-20_D0.9_9.tif,0.9,2,,,,,,,,,,,,,0,50,50,102,,,,,,,,,,,2,None,,3,1.585,,,,,2019_Jan_11_1237,60.146988806616875,Cloud_Experiment_FR_REAL,001,02,
images/fcloud_D1.3_7.tif,1.3,0,,,,,,,,,,,,,0,51,51,20,,,,,,,,,,,None,None,,None,11.042,,,,,2019_Jan_11_1237,60.146988806616875,Cloud_Experiment_FR_REAL,001,02,
images/fcloud80-20_D1.8_9.tif,1.8,2,,,,,,,,,,,,,0,52,52,138,,,,,,,,,,,None,None,,None,20.217,,,,,2019_Jan_11_1237,60.146988806616875,Cloud_Experiment_FR_REAL,001,02,
images/fcloud_D1_7.tif,1.0,0,,,,,,,,,,,,,0,53,53,8,,,,,,,,,,,2,None,,3,0.936,,,,,2019_Jan_11_1237,60.146988806616875,Cloud_Experiment_FR_REAL,001,02,
images/fcloud65-35_D1.7_7.tif,1.7,1,,,,,,,,,,,,,0,54,54,84,,,,,,,,,,,None,None,,None,10.142,,,,,2019_Jan_11_1237,60.146988806616875,Cloud_Experiment_FR_REAL,001,02,
images/fcloud80-20_D1_7.tif,1.0,2,,,,,,,,,,,,,0,55,55,104,,,,,,,,,,,1,None,,2,2.018,,,,,2019_Jan_11_1237,60.146988806616875,Cloud_Experiment_FR_REAL,001,02,
images/fcloud65-35_D1.1_9.tif,1.1,1,,,,,,,,,,,,,0,56,56,62,,,,,,,,,,,1,None,,4,2.268,,,,,2019_Jan_11_1237,60.146988806616875,Cloud_Experiment_FR_REAL,001,02,
images/fcloud_D1.2_8.tif,1.2,0,,,,,,,,,,,,,0,57,57,17,,,,,,,,,,,1,None,,2,0.418,,,,,2019_Jan_11_1237,60.146988806616875,Cloud_Experiment_FR_REAL,001,02,
images/fcloud65-35_D0.8_7.tif,0.8,1,,,,,,,,,,,,,0,58,58,48,,,,,,,,,,,1,None,,2,0.786,,,,,2019_Jan_11_1237,60.146988806616875,Cloud_Experiment_FR_REAL,001,02,
images/fcloud80-20_D0.8_7.tif,0.8,2,,,,,,,,,,,,,0,59,59,96,,,,,,,,,,,None,None,,None,10.461,,,,,2019_Jan_11_1237,60.146988806616875,Cloud_Experiment_FR_REAL,001,02,
images/fcloud80-20_D1.2_9.tif,1.2,2,,,,,,,,,,,,,0,60,60,114,,,,,,,,,,,1,None,,3,1.552,,,,,2019_Jan_11_1237,60.146988806616875,Cloud_Experiment_FR_REAL,001,02,
images/fcloud_D0.9_8.tif,0.9,0,,,,,,,,,,,,,0,61,61,5,,,,,,,,,,,2,None,,2,1.152,,,,,2019_Jan_11_1237,60.146988806616875,Cloud_Experiment_FR_REAL,001,02,
images/fcloud80-20_D1.9_7.tif,1.9,2,,,,,,,,,,,,,0,62,62,140,,,,,,,,,,,None,None,,None,10.326,,,,,2019_Jan_11_1237,60.146988806616875,Cloud_Experiment_FR_REAL,001,02,
images/fcloud80-20_D1.3_7.tif,1.3,2,,,,,,,,,,,,,0,63,63,116,,,,,,,,,,,1,None,,2,2.052,,,,,2019_Jan_11_1237,60.146988806616875,Cloud_Experiment_FR_REAL,001,02,
images/fcloud80-20_D1.3_10.tif,1.3,2,,,,,,,,,,,,,0,64,64,119,,,,,,,,,,,2,None,,2,0.536,,,,,2019_Jan_11_1237,60.146988806616875,Cloud_Experiment_FR_REAL,001,02,
images/fcloud_D0.9_9.tif,0.9,0,,,,,,,,,,,,,0,65,65,6,,,,,,,,,,,1,None,,3,1.252,,,,,2019_Jan_11_1237,60.146988806616875,Cloud_Experiment_FR_REAL,001,02,
images/fcloud_D1_8.tif,1.0,0,,,,,,,,,,,,,0,66,66,9,,,,,,,,,,,None,None,,None,10.41,,,,,2019_Jan_11_1237,60.146988806616875,Cloud_Experiment_FR_REAL,001,02,
images/fcloud80-20_D0.9_10.tif,0.9,2,,,,,,,,,,,,,0,67,67,103,,,,,,,,,,,None,None,,None,19.134,,,,,2019_Jan_11_1237,60.146988806616875,Cloud_Experiment_FR_REAL,001,02,
images/fcloud_D1.6_8.tif,1.6,0,,,,,,,,,,,,,0,68,68,33,,,,,,,,,,,None,None,,None,27.843,,,,,2019_Jan_11_1237,60.146988806616875,Cloud_Experiment_FR_REAL,001,02,
images/fcloud_D1.3_9.tif,1.3,0,,,,,,,,,,,,,0,69,69,22,,,,,,,,,,,1,None,,1,0.635,,,,,2019_Jan_11_1237,60.146988806616875,Cloud_Experiment_FR_REAL,001,02,
images/fcloud_D1.7_7.tif,1.7,0,,,,,,,,,,,,,0,70,70,36,,,,,,,,,,,None,None,,None,10.242,,,,,2019_Jan_11_1237,60.146988806616875,Cloud_Experiment_FR_REAL,001,02,
images/fcloud_D1.8_8.tif,1.8,0,,,,,,,,,,,,,0,71,71,41,,,,,,,,,,,None,None,,None,19.318,,,,,2019_Jan_11_1237,60.146988806616875,Cloud_Experiment_FR_REAL,001,02,
images/fcloud65-35_D1.3_8.tif,1.3,1,,,,,,,,,,,,,0,72,72,69,,,,,,,,,,,None,None,,None,28.227,,,,,2019_Jan_11_1237,60.146988806616875,Cloud_Experiment_FR_REAL,001,02,
images/fcloud80-20_D1.1_10.tif,1.1,2,,,,,,,,,,,,,0,73,73,111,,,,,,,,,,,1,None,,1,0.518,,,,,2019_Jan_11_1237,60.146988806616875,Cloud_Experiment_FR_REAL,001,02,
images/fcloud65-35_D1.5_9.tif,1.5,1,,,,,,,,,,,,,0,74,74,78,,,,,,,,,,,1,None,,3,1.686,,,,,2019_Jan_11_1237,60.146988806616875,Cloud_Experiment_FR_REAL,001,02,
images/fcloud80-20_D1.5_9.tif,1.5,2,,,,,,,,,,,,,0,75,75,126,,,,,,,,,,,1,None,,2,0.469,,,,,2019_Jan_11_1237,60.146988806616875,Cloud_Experiment_FR_REAL,001,02,
images/fcloud65-35_D1.8_7.tif,1.8,1,,,,,,,,,,,,,0,76,76,88,,,,,,,,,,,1,None,,4,1.17,,,,,2019_Jan_11_1237,60.146988806616875,Cloud_Experiment_FR_REAL,001,02,
images/fcloud_D1.6_9.tif,1.6,0,,,,,,,,,,,,,0,77,77,34,,,,,,,,,,,1,None,,3,2.884,,,,,2019_Jan_11_1237,60.146988806616875,Cloud_Experiment_FR_REAL,001,02,
images/fcloud65-35_D1.1_8.tif,1.1,1,,,,,,,,,,,,,0,78,78,61,,,,,,,,,,,None,None,,None,12.141,,,,,2019_Jan_11_1237,60.146988806616875,Cloud_Experiment_FR_REAL,001,02,
images/fcloud80-20_D1.3_9.tif,1.3,2,,,,,,,,,,,,,0,79,79,118,,,,,,,,,,,None,None,,None,21.299,,,,,2019_Jan_11_1237,60.146988806616875,Cloud_Experiment_FR_REAL,001,02,
images/fcloud65-35_D1.5_10.tif,1.5,1,,,,,,,,,,,,,0,80,80,79,,,,,,,,,,,None,None,,None,30.159,,,,,2019_Jan_11_1237,60.146988806616875,Cloud_Experiment_FR_REAL,001,02,
images/fcloud_D1.4_7.tif,1.4,0,,,,,,,,,,,,,0,81,81,24,,,,,,,,,,,None,None,,None,38.867,,,,,2019_Jan_11_1237,60.146988806616875,Cloud_Experiment_FR_REAL,001,02,
images/fcloud80-20_D1.9_8.tif,1.9,2,,,,,,,,,,,,,0,82,82,141,,,,,,,,,,,None,None,,None,47.576,,,,,2019_Jan_11_1237,60.146988806616875,Cloud_Experiment_FR_REAL,001,02,
images/fcloud_D1.5_8.tif,1.5,0,,,,,,,,,,,,,0,83,83,29,,,,,,,,,,,None,None,,None,56.234,,,,,2019_Jan_11_1237,60.146988806616875,Cloud_Experiment_FR_REAL,001,02,
images/fcloud65-35_D1.6_8.tif,1.6,1,,,,,,,,,,,,,0,84,84,81,,,,,,,,,,,1,None,,1,4.5,,,,,2019_Jan_11_1237,60.146988806616875,Cloud_Experiment_FR_REAL,001,02,
images/fcloud_D1.5_7.tif,1.5,0,,,,,,,,,,,,,0,85,85,28,,,,,,,,,,,None,None,,None,13.856,,,,,2019_Jan_11_1237,60.146988806616875,Cloud_Experiment_FR_REAL,001,02,
images/fcloud65-35_D1.9_9.tif,1.9,1,,,,,,,,,,,,,0,86,86,94,,,,,,,,,,,None,None,,None,23.066,,,,,2019_Jan_11_1237,60.146988806616875,Cloud_Experiment_FR_REAL,001,02,
images/fcloud65-35_D1.5_8.tif,1.5,1,,,,,,,,,,,,,0,87,87,77,,,,,,,,,,,None,None,,None,31.957,,,,,2019_Jan_11_1237,60.146988806616875,Cloud_Experiment_FR_REAL,001,02,
images/fcloud80-20_D0.9_8.tif,0.9,2,,,,,,,,,,,,,0,88,88,101,,,,,,,,,,,None,None,,None,40.666,,,,,2019_Jan_11_1237,60.146988806616875,Cloud_Experiment_FR_REAL,001,02,
images/fcloud_D1.4_9.tif,1.4,0,,,,,,,,,,,,,0,89,89,26,,,,,,,,,,,None,None,,None,49.476,,,,,2019_Jan_11_1237,60.146988806616875,Cloud_Experiment_FR_REAL,001,02,
images/fcloud_D1.1_8.tif,1.1,0,,,,,,,,,,,,,0,90,90,13,,,,,,,,,,,1,None,,2,0.786,,,,,2019_Jan_11_1237,60.146988806616875,Cloud_Experiment_FR_REAL,001,02,
images/fcloud80-20_D1.1_8.tif,1.1,2,,,,,,,,,,,,,0,91,91,109,,,,,,,,,,,None,None,,None,10.743,,,,,2019_Jan_11_1237,60.146988806616875,Cloud_Experiment_FR_REAL,001,02,
images/fcloud65-35_D1.4_7.tif,1.4,1,,,,,,,,,,,,,0,92,92,72,,,,,,,,,,,None,None,,None,19.718,,,,,2019_Jan_11_1237,60.146988806616875,Cloud_Experiment_FR_REAL,001,02,
images/fcloud80-20_D1_8.tif,1.0,2,,,,,,,,,,,,,0,93,93,105,,,,,,,,,,,None,None,,None,28.476,,,,,2019_Jan_11_1237,60.146988806616875,Cloud_Experiment_FR_REAL,001,02,
images/fcloud_D1.4_10.tif,1.4,0,,,,,,,,,,,,,0,94,94,27,,,,,,,,,,,1,None,,1,0.602,,,,,2019_Jan_11_1237,60.146988806616875,Cloud_Experiment_FR_REAL,001,02,
images/fcloud80-20_D0.8_10.tif,0.8,2,,,,,,,,,,,,,0,95,95,99,,,,,,,,,,,None,None,,None,9.259,,,,,2019_Jan_11_1237,60.146988806616875,Cloud_Experiment_FR_REAL,001,02,
images/fcloud_D1.8_7.tif,1.8,0,,,,,,,,,,,,,0,96,96,40,,,,,,,,,,,1,None,,1,0.418,,,,,2019_Jan_11_1237,60.146988806616875,Cloud_Experiment_FR_REAL,001,02,
images/fcloud80-20_D1.4_9.tif,1.4,2,,,,,,,,,,,,,0,97,97,122,,,,,,,,,,,None,None,,None,10.26,,,,,2019_Jan_11_1237,60.146988806616875,Cloud_Experiment_FR_REAL,001,02,
images/fcloud80-20_D1.7_10.tif,1.7,2,,,,,,,,,,,,,0,98,98,135,,,,,,,,,,,None,None,,None,19.651,,,,,2019_Jan_11_1237,60.146988806616875,Cloud_Experiment_FR_REAL,001,02,
images/fcloud80-20_D0.9_7.tif,0.9,2,,,,,,,,,,,,,0,99,99,100,,,,,,,,,,,None,None,,None,28.71,,,,,2019_Jan_11_1237,60.146988806616875,Cloud_Experiment_FR_REAL,001,02,
images/fcloud80-20_D1.3_8.tif,1.3,2,,,,,,,,,,,,,0,100,100,117,,,,,,,,,,,1,None,,1,0.419,,,,,2019_Jan_11_1237,60.146988806616875,Cloud_Experiment_FR_REAL,001,02,
images/fcloud80-20_D1.6_7.tif,1.6,2,,,,,,,,,,,,,0,101,101,128,,,,,,,,,,,1,None,,1,0.421,,,,,2019_Jan_11_1237,60.146988806616875,Cloud_Experiment_FR_REAL,001,02,
images/fcloud65-35_D1.6_9.tif,1.6,1,,,,,,,,,,,,,0,102,102,82,,,,,,,,,,,None,None,,None,9.609,,,,,2019_Jan_11_1237,60.146988806616875,Cloud_Experiment_FR_REAL,001,02,
images/fcloud80-20_D1.7_9.tif,1.7,2,,,,,,,,,,,,,0,103,103,134,,,,,,,,,,,1,None,,3,1.136,,,,,2019_Jan_11_1237,60.146988806616875,Cloud_Experiment_FR_REAL,001,02,
images/fcloud80-20_D1.9_10.tif,1.9,2,,,,,,,,,,,,,0,104,104,143,,,,,,,,,,,None,None,,None,9.86,,,,,2019_Jan_11_1237,60.146988806616875,Cloud_Experiment_FR_REAL,001,02,
images/fcloud65-35_D1_10.tif,1.0,1,,,,,,,,,,,,,0,105,105,59,,,,,,,,,,,None,None,,None,18.604,,,,,2019_Jan_11_1237,60.146988806616875,Cloud_Experiment_FR_REAL,001,02,
images/fcloud80-20_D1.8_10.tif,1.8,2,,,,,,,,,,,,,0,106,106,139,,,,,,,,,,,None,None,,None,27.327,,,,,2019_Jan_11_1237,60.146988806616875,Cloud_Experiment_FR_REAL,001,02,
images/fcloud65-35_D0.9_7.tif,0.9,1,,,,,,,,,,,,,0,107,107,52,,,,,,,,,,,1,None,,4,0.851,,,,,2019_Jan_11_1237,60.146988806616875,Cloud_Experiment_FR_REAL,001,02,
images/fcloud80-20_D1.4_8.tif,1.4,2,,,,,,,,,,,,,0,108,108,121,,,,,,,,,,,None,None,,None,10.224,,,,,2019_Jan_11_1237,60.146988806616875,Cloud_Experiment_FR_REAL,001,02,
images/fcloud65-35_D1.7_10.tif,1.7,1,,,,,,,,,,,,,0,109,109,87,,,,,,,,,,,None,None,,None,18.867,,,,,2019_Jan_11_1237,60.146988806616875,Cloud_Experiment_FR_REAL,001,02,
images/fcloud65-35_D1.8_9.tif,1.8,1,,,,,,,,,,,,,0,110,110,90,,,,,,,,,,,None,None,,None,27.893,,,,,2019_Jan_11_1237,60.146988806616875,Cloud_Experiment_FR_REAL,001,02,
images/fcloud65-35_D1_9.tif,1.0,1,,,,,,,,,,,,,0,111,111,58,,,,,,,,,,,None,None,,None,36.702,,,,,2019_Jan_11_1237,60.146988806616875,Cloud_Experiment_FR_REAL,001,02,
images/fcloud_D1.8_9.tif,1.8,0,,,,,,,,,,,,,0,112,112,42,,,,,,,,,,,1,None,,1,1.65,,,,,2019_Jan_11_1237,60.146988806616875,Cloud_Experiment_FR_REAL,001,02,
images/fcloud_D1.1_9.tif,1.1,0,,,,,,,,,,,,,0,113,113,14,,,,,,,,,,,3,None,,4,1.434,,,,,2019_Jan_11_1237,60.146988806616875,Cloud_Experiment_FR_REAL,001,02,
images/fcloud_D1.9_8.tif,1.9,0,,,,,,,,,,,,,0,114,114,45,,,,,,,,,,,1,None,,4,1.016,,,,,2019_Jan_11_1237,60.146988806616875,Cloud_Experiment_FR_REAL,001,02,
images/fcloud80-20_D1_10.tif,1.0,2,,,,,,,,,,,,,0,115,115,107,,,,,,,,,,,None,None,,None,10.806,,,,,2019_Jan_11_1237,60.146988806616875,Cloud_Experiment_FR_REAL,001,02,
images/fcloud80-20_D1.5_7.tif,1.5,2,,,,,,,,,,,,,0,116,116,124,,,,,,,,,,,None,None,,None,19.782,,,,,2019_Jan_11_1237,60.146988806616875,Cloud_Experiment_FR_REAL,001,02,
images/fcloud_D1_10.tif,1.0,0,,,,,,,,,,,,,0,117,117,11,,,,,,,,,,,None,None,,None,28.791,,,,,2019_Jan_11_1237,60.146988806616875,Cloud_Experiment_FR_REAL,001,02,
images/fcloud65-35_D1.2_7.tif,1.2,1,,,,,,,,,,,,,0,118,118,64,,,,,,,,,,,None,None,,None,41.829,,,,,2019_Jan_11_1237,60.146988806616875,Cloud_Experiment_FR_REAL,001,02,
images/fcloud65-35_D1.9_10.tif,1.9,1,,,,,,,,,,,,,0,119,119,95,,,,,,,,,,,None,None,,None,50.938,,,,,2019_Jan_11_1237,60.146988806616875,Cloud_Experiment_FR_REAL,001,02,
images/fcloud65-35_D1.6_7.tif,1.6,1,,,,,,,,,,,,,0,120,120,80,,,,,,,,,,,None,None,,None,59.948,,,,,2019_Jan_11_1237,60.146988806616875,Cloud_Experiment_FR_REAL,001,02,
images/fcloud65-35_D0.9_9.tif,0.9,1,,,,,,,,,,,,,0,121,121,54,,,,,,,,,,,1,None,,3,1.418,,,,,2019_Jan_11_1237,60.146988806616875,Cloud_Experiment_FR_REAL,001,02,
images/fcloud_D1.6_10.tif,1.6,0,,,,,,,,,,,,,0,122,122,35,,,,,,,,,,,None,None,,None,10.176,,,,,2019_Jan_11_1237,60.146988806616875,Cloud_Experiment_FR_REAL,001,02,
images/fcloud80-20_D1_9.tif,1.0,2,,,,,,,,,,,,,0,123,123,106,,,,,,,,,,,None,None,,None,18.752,,,,,2019_Jan_11_1237,60.146988806616875,Cloud_Experiment_FR_REAL,001,02,
images/fcloud_D1.5_10.tif,1.5,0,,,,,,,,,,,,,0,124,124,31,,,,,,,,,,,None,None,,None,27.561,,,,,2019_Jan_11_1237,60.146988806616875,Cloud_Experiment_FR_REAL,001,02,
images/fcloud80-20_D1.2_8.tif,1.2,2,,,,,,,,,,,,,0,125,125,113,,,,,,,,,,,1,None,,1,0.535,,,,,2019_Jan_11_1237,60.146988806616875,Cloud_Experiment_FR_REAL,001,02,
images/fcloud65-35_D1.8_10.tif,1.8,1,,,,,,,,,,,,,0,126,126,91,,,,,,,,,,,1,None,,1,0.536,,,,,2019_Jan_11_1237,60.146988806616875,Cloud_Experiment_FR_REAL,001,02,
images/fcloud65-35_D1.7_8.tif,1.7,1,,,,,,,,,,,,,0,127,127,85,,,,,,,,,,,2,None,,3,6.63,,,,,2019_Jan_11_1237,60.146988806616875,Cloud_Experiment_FR_REAL,001,02,
images/fcloud65-35_D1.2_10.tif,1.2,1,,,,,,,,,,,,,0,128,128,67,,,,,,,,,,,None,None,,None,16.171,,,,,2019_Jan_11_1237,60.146988806616875,Cloud_Experiment_FR_REAL,001,02,
images/fcloud_D1.7_10.tif,1.7,0,,,,,,,,,,,,,0,129,129,39,,,,,,,,,,,1,None,,3,1.784,,,,,2019_Jan_11_1237,60.146988806616875,Cloud_Experiment_FR_REAL,001,02,
images/fcloud80-20_D1.4_10.tif,1.4,2,,,,,,,,,,,,,0,130,130,123,,,,,,,,,,,1,None,,1,0.486,,,,,2019_Jan_11_1237,60.146988806616875,Cloud_Experiment_FR_REAL,001,02,
images/fcloud_D1.3_10.tif,1.3,0,,,,,,,,,,,,,0,131,131,23,,,,,,,,,,,None,None,,None,9.694,,,,,2019_Jan_11_1237,60.146988806616875,Cloud_Experiment_FR_REAL,001,02,
images/fcloud65-35_D1.2_9.tif,1.2,1,,,,,,,,,,,,,0,132,132,66,,,,,,,,,,,None,None,,None,18.669,,,,,2019_Jan_11_1237,60.146988806616875,Cloud_Experiment_FR_REAL,001,02,
images/fcloud65-35_D1.8_8.tif,1.8,1,,,,,,,,,,,,,0,133,133,89,,,,,,,,,,,None,None,,None,27.478,,,,,2019_Jan_11_1237,60.146988806616875,Cloud_Experiment_FR_REAL,001,02,
images/fcloud65-35_D1.5_7.tif,1.5,1,,,,,,,,,,,,,0,134,134,76,,,,,,,,,,,None,None,,None,36.219,,,,,2019_Jan_11_1237,60.146988806616875,Cloud_Experiment_FR_REAL,001,02,
images/fcloud65-35_D1.9_7.tif,1.9,1,,,,,,,,,,,,,0,135,135,92,,,,,,,,,,,None,None,,None,45.078,,,,,2019_Jan_11_1237,60.146988806616875,Cloud_Experiment_FR_REAL,001,02,
images/fcloud80-20_D1.7_7.tif,1.7,2,,,,,,,,,,,,,0,136,136,132,,,,,,,,,,,None,None,,None,53.788,,,,,2019_Jan_11_1237,60.146988806616875,Cloud_Experiment_FR_REAL,001,02,
images/fcloud65-35_D1.3_7.tif,1.3,1,,,,,,,,,,,,,0,137,137,68,,,,,,,,,,,None,None,,None,62.399,,,,,2019_Jan_11_1237,60.146988806616875,Cloud_Experiment_FR_REAL,001,02,
images/fcloud80-20_D1.6_10.tif,1.6,2,,,,,,,,,,,,,0,138,138,131,,,,,,,,,,,1,None,,2,0.719,,,,,2019_Jan_11_1237,60.146988806616875,Cloud_Experiment_FR_REAL,001,02,
images/fcloud80-20_D1.7_8.tif,1.7,2,,,,,,,,,,,,,0,139,139,133,,,,,,,,,,,None,None,,None,9.644,,,,,2019_Jan_11_1237,60.146988806616875,Cloud_Experiment_FR_REAL,001,02,
images/fcloud65-35_D1.7_9.tif,1.7,1,,,,,,,,,,,,,0,140,140,86,,,,,,,,,,,1,None,,1,0.419,,,,,2019_Jan_11_1237,60.146988806616875,Cloud_Experiment_FR_REAL,001,02,
images/fcloud65-35_D1.2_8.tif,1.2,1,,,,,,,,,,,,,0,141,141,65,,,,,,,,,,,None,None,,None,10.058,,,,,2019_Jan_11_1237,60.146988806616875,Cloud_Experiment_FR_REAL,001,02,
images/fcloud_D0.9_7.tif,0.9,0,,,,,,,,,,,,,0,142,142,4,,,,,,,,,,,2,None,,3,0.702,,,,,2019_Jan_11_1237,60.146988806616875,Cloud_Experiment_FR_REAL,001,02,
images/fcloud65-35_D0.8_8.tif,0.8,1,,,,,,,,,,,,,0,143,143,49,,,,,,,,,,,None,None,,None,9.909,,,,,2019_Jan_11_1237,60.146988806616875,Cloud_Experiment_FR_REAL,001,02,
,,,,,,,,,,,,,,,,,,,,,,,,,4,11.389,,,,,,,,,,,,2019_Jan_11_1237,60.146988806616875,Cloud_Experiment_FR_REAL,001,02,
