ImageFile,FD,Contrast,trials_4.thisRepN,trials_4.thisTrialN,trials_4.thisN,trials_4.thisIndex,trials.thisRepN,trials.thisTrialN,trials.thisN,trials.thisIndex,trials_2.thisRepN,trials_2.thisTrialN,trials_2.thisN,trials_2.thisIndex,trials_3.thisRepN,trials_3.thisTrialN,trials_3.thisN,trials_3.thisIndex,end_instructions.keys,end_instructions.rt,key_resp_4.keys,key_resp_4.rt,key_resp_6.keys,key_resp_6.rt,Fatigue.response,Fatigue.rt,key_resp_5.keys,key_resp_5.rt,n_objets.response,reaction_time.keys,vividness.response,vividness.rt,key_resp_2.keys,key_resp_2.rt,reaction_time.rt,key_resp_3.keys,key_resp_3.rt,date,frameRate,expName,session,participant,
,,,,,,,,,,,,,,,,,,,space,16.5495773178,,,,,,,,,,,,,,,,,,2019_Jan_14_1608,59.47447750045573,Cloud_Experiment_FR_REAL,001,03,
,,,,,,,,,,,,,,,,,,,,,space,170.120305966,,,,,,,,,,,,,,,,2019_Jan_14_1608,59.47447750045573,Cloud_Experiment_FR_REAL,001,03,
,,,,,,,,,,,,,,,,,,,,,,,space,11.6579386886,,,,,,,,,,,,,,2019_Jan_14_1608,59.47447750045573,Cloud_Experiment_FR_REAL,001,03,
,,,,,,,,,,,,,,,,,,,,,,,,,9,16.733,,,,,,,,,,,,2019_Jan_14_1608,59.47447750045573,Cloud_Experiment_FR_REAL,001,03,
,,,,,,,,,,,,,,,,,,,,,,,,,,,space,5.06606230867,,,,,,,,,,2019_Jan_14_1608,59.47447750045573,Cloud_Experiment_FR_REAL,001,03,
pratique/fcloud_D1.4_30,1.4,0,0,0,0,1,,,,,,,,,,,,,,,,,,,,,,,None,None,None,243.215,,,,,,2019_Jan_14_1608,59.47447750045573,Cloud_Experiment_FR_REAL,001,03,
pratique/fcloud_D0.8_30,0.8,0,0,1,1,0,,,,,,,,,,,,,,,,,,,,,,,1,None,2,6.347,,,,,,2019_Jan_14_1608,59.47447750045573,Cloud_Experiment_FR_REAL,001,03,
pratique/fcloud65-35_D1.2_30,1.2,1,0,2,2,3,,,,,,,,,,,,,,,,,,,,,,,None,None,None,16.371,,,,,,2019_Jan_14_1608,59.47447750045573,Cloud_Experiment_FR_REAL,001,03,
pratique/fcloud65-35_D1.6_30,1.6,1,0,3,3,2,,,,,,,,,,,,,,,,,,,,,,,None,None,None,25.646,,,,,,2019_Jan_14_1608,59.47447750045573,Cloud_Experiment_FR_REAL,001,03,
pratique/fcloud80-20_D1.8_30,1.8,2,0,4,4,4,,,,,,,,,,,,,,,,,,,,,,,None,None,None,47.793,,,,,,2019_Jan_14_1608,59.47447750045573,Cloud_Experiment_FR_REAL,001,03,
,,,,,,,,,,,,,,,,,,,,,,,,,,,,,,,,,space,74.089388608,,,,2019_Jan_14_1608,59.47447750045573,Cloud_Experiment_FR_REAL,001,03,
images/fcloud65-35_D1.9_3.tif,1.9,1,,,,,0,0,0,71,,,,,,,,,,,,,,,,,,,None,None,None,131.806,,,,,,2019_Jan_14_1608,59.47447750045573,Cloud_Experiment_FR_REAL,001,03,
images/fcloud65-35_D0.9_1.tif,0.9,1,,,,,0,1,1,39,,,,,,,,,,,,,,,,,,,1,space,3,3.984,,,2.85728018341,,,2019_Jan_14_1608,59.47447750045573,Cloud_Experiment_FR_REAL,001,03,
images/fcloud80-20_D1.8_1.tif,1.8,2,,,,,0,2,2,102,,,,,,,,,,,,,,,,,,,None,None,None,13.439,,,,,,2019_Jan_14_1608,59.47447750045573,Cloud_Experiment_FR_REAL,001,03,
images/fcloud_D1.6_3.tif,1.6,0,,,,,0,3,3,26,,,,,,,,,,,,,,,,,,,1,None,3,2.052,,,,,,2019_Jan_14_1608,59.47447750045573,Cloud_Experiment_FR_REAL,001,03,
images/fcloud80-20_D1.7_1.tif,1.7,2,,,,,0,4,4,99,,,,,,,,,,,,,,,,,,,1,None,2,2.818,,,,,,2019_Jan_14_1608,59.47447750045573,Cloud_Experiment_FR_REAL,001,03,
images/fcloud_D1.6_1.tif,1.6,0,,,,,0,5,5,24,,,,,,,,,,,,,,,,,,,None,None,None,12.99,,,,,,2019_Jan_14_1608,59.47447750045573,Cloud_Experiment_FR_REAL,001,03,
images/fcloud_D1.7_1.tif,1.7,0,,,,,0,6,6,27,,,,,,,,,,,,,,,,,,,1,None,1,1.968,,,,,,2019_Jan_14_1608,59.47447750045573,Cloud_Experiment_FR_REAL,001,03,
images/fcloud65-35_D1.4_1.tif,1.4,1,,,,,0,7,7,54,,,,,,,,,,,,,,,,,,,1,None,1,1.219,,,,,,2019_Jan_14_1608,59.47447750045573,Cloud_Experiment_FR_REAL,001,03,
images/fcloud_D1.1_2.tif,1.1,0,,,,,0,8,8,10,,,,,,,,,,,,,,,,,,,3,None,3,2.367,,,,,,2019_Jan_14_1608,59.47447750045573,Cloud_Experiment_FR_REAL,001,03,
images/fcloud_D1.2_3.tif,1.2,0,,,,,0,9,9,14,,,,,,,,,,,,,,,,,,,2,None,2,1.718,,,,,,2019_Jan_14_1608,59.47447750045573,Cloud_Experiment_FR_REAL,001,03,
images/fcloud65-35_D1.7_1.tif,1.7,1,,,,,0,10,10,63,,,,,,,,,,,,,,,,,,,None,None,None,11.325,,,,,,2019_Jan_14_1608,59.47447750045573,Cloud_Experiment_FR_REAL,001,03,
images/fcloud65-35_D1.4_3.tif,1.4,1,,,,,0,11,11,56,,,,,,,,,,,,,,,,,,,1,None,1,1.035,,,,,,2019_Jan_14_1608,59.47447750045573,Cloud_Experiment_FR_REAL,001,03,
images/fcloud80-20_D1.6_2.tif,1.6,2,,,,,0,12,12,97,,,,,,,,,,,,,,,,,,,None,None,None,9.993,,,,,,2019_Jan_14_1608,59.47447750045573,Cloud_Experiment_FR_REAL,001,03,
images/fcloud80-20_D0.9_3.tif,0.9,2,,,,,0,13,13,77,,,,,,,,,,,,,,,,,,,None,None,None,19.085,,,,,,2019_Jan_14_1608,59.47447750045573,Cloud_Experiment_FR_REAL,001,03,
images/fcloud80-20_D0.8_2.tif,0.8,2,,,,,0,14,14,73,,,,,,,,,,,,,,,,,,,1,None,1,1.269,,,,,,2019_Jan_14_1608,59.47447750045573,Cloud_Experiment_FR_REAL,001,03,
images/fcloud_D0.8_3.tif,0.8,0,,,,,0,15,15,2,,,,,,,,,,,,,,,,,,,None,None,None,10.409,,,,,,2019_Jan_14_1608,59.47447750045573,Cloud_Experiment_FR_REAL,001,03,
images/fcloud65-35_D1.9_2.tif,1.9,1,,,,,0,16,16,70,,,,,,,,,,,,,,,,,,,None,None,None,19.452,,,,,,2019_Jan_14_1608,59.47447750045573,Cloud_Experiment_FR_REAL,001,03,
images/fcloud80-20_D0.9_1.tif,0.9,2,,,,,0,17,17,75,,,,,,,,,,,,,,,,,,,1,None,3,4.932,,,,,,2019_Jan_14_1608,59.47447750045573,Cloud_Experiment_FR_REAL,001,03,
images/fcloud80-20_D1_2.tif,1.0,2,,,,,0,18,18,79,,,,,,,,,,,,,,,,,,,1,space,3,1.318,,,4.93743224104,,,2019_Jan_14_1608,59.47447750045573,Cloud_Experiment_FR_REAL,001,03,
images/fcloud_D1.3_1.tif,1.3,0,,,,,0,19,19,15,,,,,,,,,,,,,,,,,,,None,None,None,10.841,,,,,,2019_Jan_14_1608,59.47447750045573,Cloud_Experiment_FR_REAL,001,03,
images/fcloud80-20_D1.3_3.tif,1.3,2,,,,,0,20,20,89,,,,,,,,,,,,,,,,,,,None,None,None,19.968,,,,,,2019_Jan_14_1608,59.47447750045573,Cloud_Experiment_FR_REAL,001,03,
images/fcloud80-20_D1.4_3.tif,1.4,2,,,,,0,21,21,92,,,,,,,,,,,,,,,,,,,None,None,None,29.16,,,,,,2019_Jan_14_1608,59.47447750045573,Cloud_Experiment_FR_REAL,001,03,
images/fcloud65-35_D1.9_1.tif,1.9,1,,,,,0,22,22,69,,,,,,,,,,,,,,,,,,,None,None,None,38.152,,,,,,2019_Jan_14_1608,59.47447750045573,Cloud_Experiment_FR_REAL,001,03,
images/fcloud_D0.9_2.tif,0.9,0,,,,,0,23,23,4,,,,,,,,,,,,,,,,,,,None,None,None,47.828,,,,,,2019_Jan_14_1608,59.47447750045573,Cloud_Experiment_FR_REAL,001,03,
images/fcloud65-35_D1_2.tif,1.0,1,,,,,0,24,24,43,,,,,,,,,,,,,,,,,,,None,None,None,56.752,,,,,,2019_Jan_14_1608,59.47447750045573,Cloud_Experiment_FR_REAL,001,03,
images/fcloud_D0.9_1.tif,0.9,0,,,,,0,25,25,3,,,,,,,,,,,,,,,,,,,None,None,None,65.477,,,,,,2019_Jan_14_1608,59.47447750045573,Cloud_Experiment_FR_REAL,001,03,
images/fcloud_D1.8_2.tif,1.8,0,,,,,0,26,26,31,,,,,,,,,,,,,,,,,,,1,None,1,1.335,,,,,,2019_Jan_14_1608,59.47447750045573,Cloud_Experiment_FR_REAL,001,03,
images/fcloud80-20_D0.8_1.tif,0.8,2,,,,,0,27,27,72,,,,,,,,,,,,,,,,,,,None,None,None,11.259,,,,,,2019_Jan_14_1608,59.47447750045573,Cloud_Experiment_FR_REAL,001,03,
images/fcloud65-35_D0.9_3.tif,0.9,1,,,,,0,28,28,41,,,,,,,,,,,,,,,,,,,None,space,None,19.968,,,6.73336965992,,,2019_Jan_14_1608,59.47447750045573,Cloud_Experiment_FR_REAL,001,03,
images/fcloud80-20_D1.8_3.tif,1.8,2,,,,,0,29,29,104,,,,,,,,,,,,,,,,,,,None,None,None,28.96,,,,,,2019_Jan_14_1608,59.47447750045573,Cloud_Experiment_FR_REAL,001,03,
images/fcloud80-20_D1.5_2.tif,1.5,2,,,,,0,30,30,94,,,,,,,,,,,,,,,,,,,1,space,5,3.083,,,10.9164757379,,,2019_Jan_14_1608,59.47447750045573,Cloud_Experiment_FR_REAL,001,03,
images/fcloud65-35_D1.8_1.tif,1.8,1,,,,,0,31,31,66,,,,,,,,,,,,,,,,,,,None,None,None,12.724,,,,,,2019_Jan_14_1608,59.47447750045573,Cloud_Experiment_FR_REAL,001,03,
images/fcloud_D1.3_3.tif,1.3,0,,,,,0,32,32,17,,,,,,,,,,,,,,,,,,,1,space,4,1.652,,,4.09989436157,,,2019_Jan_14_1608,59.47447750045573,Cloud_Experiment_FR_REAL,001,03,
images/fcloud80-20_D1.9_2.tif,1.9,2,,,,,0,33,33,106,,,,,,,,,,,,,,,,,,,None,None,None,11.575,,,,,,2019_Jan_14_1608,59.47447750045573,Cloud_Experiment_FR_REAL,001,03,
images/fcloud65-35_D1.8_2.tif,1.8,1,,,,,0,34,34,67,,,,,,,,,,,,,,,,,,,None,None,None,21.966,,,,,,2019_Jan_14_1608,59.47447750045573,Cloud_Experiment_FR_REAL,001,03,
images/fcloud80-20_D1.6_3.tif,1.6,2,,,,,0,35,35,98,,,,,,,,,,,,,,,,,,,None,None,None,31.024,,,,,,2019_Jan_14_1608,59.47447750045573,Cloud_Experiment_FR_REAL,001,03,
images/fcloud80-20_D0.9_2.tif,0.9,2,,,,,0,36,36,76,,,,,,,,,,,,,,,,,,,None,None,None,40.517,,,,,,2019_Jan_14_1608,59.47447750045573,Cloud_Experiment_FR_REAL,001,03,
images/fcloud65-35_D1.2_1.tif,1.2,1,,,,,0,37,37,48,,,,,,,,,,,,,,,,,,,None,None,None,50.091,,,,,,2019_Jan_14_1608,59.47447750045573,Cloud_Experiment_FR_REAL,001,03,
images/fcloud65-35_D1.6_2.tif,1.6,1,,,,,0,38,38,61,,,,,,,,,,,,,,,,,,,1,space,2,2.284,,,3.75370826834,,,2019_Jan_14_1608,59.47447750045573,Cloud_Experiment_FR_REAL,001,03,
images/fcloud_D1.5_2.tif,1.5,0,,,,,0,39,39,22,,,,,,,,,,,,,,,,,,,1,None,1,3.883,,,,,,2019_Jan_14_1608,59.47447750045573,Cloud_Experiment_FR_REAL,001,03,
images/fcloud80-20_D1.3_1.tif,1.3,2,,,,,0,40,40,87,,,,,,,,,,,,,,,,,,,None,None,None,13.292,,,,,,2019_Jan_14_1608,59.47447750045573,Cloud_Experiment_FR_REAL,001,03,
images/fcloud65-35_D1.4_2.tif,1.4,1,,,,,0,41,41,55,,,,,,,,,,,,,,,,,,,None,None,None,23.464,,,,,,2019_Jan_14_1608,59.47447750045573,Cloud_Experiment_FR_REAL,001,03,
images/fcloud65-35_D1.1_1.tif,1.1,1,,,,,0,42,42,45,,,,,,,,,,,,,,,,,,,1,None,1,1.519,,,,,,2019_Jan_14_1608,59.47447750045573,Cloud_Experiment_FR_REAL,001,03,
images/fcloud_D1.7_3.tif,1.7,0,,,,,0,43,43,29,,,,,,,,,,,,,,,,,,,1,None,2,4.784,,,,,,2019_Jan_14_1608,59.47447750045573,Cloud_Experiment_FR_REAL,001,03,
images/fcloud_D1.4_2.tif,1.4,0,,,,,0,44,44,19,,,,,,,,,,,,,,,,,,,1,None,4,1.418,,,,,,2019_Jan_14_1608,59.47447750045573,Cloud_Experiment_FR_REAL,001,03,
images/fcloud65-35_D1_1.tif,1.0,1,,,,,0,45,45,42,,,,,,,,,,,,,,,,,,,2,space,3,3.5,,,6.44889593715,,,2019_Jan_14_1608,59.47447750045573,Cloud_Experiment_FR_REAL,001,03,
images/fcloud65-35_D1.3_1.tif,1.3,1,,,,,0,46,46,51,,,,,,,,,,,,,,,,,,,1,None,1,1.202,,,,,,2019_Jan_14_1608,59.47447750045573,Cloud_Experiment_FR_REAL,001,03,
images/fcloud_D1.7_2.tif,1.7,0,,,,,0,47,47,28,,,,,,,,,,,,,,,,,,,1,space,4,0.652,,,4.92300578568,,,2019_Jan_14_1608,59.47447750045573,Cloud_Experiment_FR_REAL,001,03,
images/fcloud80-20_D1_3.tif,1.0,2,,,,,0,48,48,80,,,,,,,,,,,,,,,,,,,None,None,None,10.926,,,,,,2019_Jan_14_1608,59.47447750045573,Cloud_Experiment_FR_REAL,001,03,
images/fcloud65-35_D1.7_2.tif,1.7,1,,,,,0,49,49,64,,,,,,,,,,,,,,,,,,,None,None,None,19.934,,,,,,2019_Jan_14_1608,59.47447750045573,Cloud_Experiment_FR_REAL,001,03,
images/fcloud_D1.8_3.tif,1.8,0,,,,,0,50,50,32,,,,,,,,,,,,,,,,,,,None,None,None,28.86,,,,,,2019_Jan_14_1608,59.47447750045573,Cloud_Experiment_FR_REAL,001,03,
images/fcloud80-20_D1.7_3.tif,1.7,2,,,,,0,51,51,101,,,,,,,,,,,,,,,,,,,None,None,None,37.654,,,,,,2019_Jan_14_1608,59.47447750045573,Cloud_Experiment_FR_REAL,001,03,
images/fcloud80-20_D1.5_3.tif,1.5,2,,,,,0,52,52,95,,,,,,,,,,,,,,,,,,,None,None,None,47.827,,,,,,2019_Jan_14_1608,59.47447750045573,Cloud_Experiment_FR_REAL,001,03,
images/fcloud65-35_D1.3_2.tif,1.3,1,,,,,0,53,53,52,,,,,,,,,,,,,,,,,,,1,space,1,2.418,,,5.2512482554,,,2019_Jan_14_1608,59.47447750045573,Cloud_Experiment_FR_REAL,001,03,
images/fcloud80-20_D1.7_2.tif,1.7,2,,,,,0,54,54,100,,,,,,,,,,,,,,,,,,,None,None,None,12.558,,,,,,2019_Jan_14_1608,59.47447750045573,Cloud_Experiment_FR_REAL,001,03,
images/fcloud80-20_D1.5_1.tif,1.5,2,,,,,0,55,55,93,,,,,,,,,,,,,,,,,,,None,None,None,22.382,,,,,,2019_Jan_14_1608,59.47447750045573,Cloud_Experiment_FR_REAL,001,03,
images/fcloud80-20_D1.3_2.tif,1.3,2,,,,,0,56,56,88,,,,,,,,,,,,,,,,,,,None,None,None,31.359,,,,,,2019_Jan_14_1608,59.47447750045573,Cloud_Experiment_FR_REAL,001,03,
images/fcloud_D1_3.tif,1.0,0,,,,,0,57,57,8,,,,,,,,,,,,,,,,,,,1,None,2,2.567,,,,,,2019_Jan_14_1608,59.47447750045573,Cloud_Experiment_FR_REAL,001,03,
images/fcloud65-35_D0.8_1.tif,0.8,1,,,,,0,58,58,36,,,,,,,,,,,,,,,,,,,1,None,3,1.701,,,,,,2019_Jan_14_1608,59.47447750045573,Cloud_Experiment_FR_REAL,001,03,
images/fcloud80-20_D1.4_1.tif,1.4,2,,,,,0,59,59,90,,,,,,,,,,,,,,,,,,,None,None,None,12.407,,,,,,2019_Jan_14_1608,59.47447750045573,Cloud_Experiment_FR_REAL,001,03,
images/fcloud_D1.6_2.tif,1.6,0,,,,,0,60,60,25,,,,,,,,,,,,,,,,,,,None,None,None,21.033,,,,,,2019_Jan_14_1608,59.47447750045573,Cloud_Experiment_FR_REAL,001,03,
images/fcloud80-20_D1.9_3.tif,1.9,2,,,,,0,61,61,107,,,,,,,,,,,,,,,,,,,1,space,2,1.386,,,10.3773651054,,,2019_Jan_14_1608,59.47447750045573,Cloud_Experiment_FR_REAL,001,03,
images/fcloud65-35_D1.6_1.tif,1.6,1,,,,,0,62,62,60,,,,,,,,,,,,,,,,,,,None,None,None,11.494,,,,,,2019_Jan_14_1608,59.47447750045573,Cloud_Experiment_FR_REAL,001,03,
images/fcloud65-35_D1.5_1.tif,1.5,1,,,,,0,63,63,57,,,,,,,,,,,,,,,,,,,1,None,3,1.501,,,,,,2019_Jan_14_1608,59.47447750045573,Cloud_Experiment_FR_REAL,001,03,
images/fcloud65-35_D1.1_3.tif,1.1,1,,,,,0,64,64,47,,,,,,,,,,,,,,,,,,,None,None,None,10.86,,,,,,2019_Jan_14_1608,59.47447750045573,Cloud_Experiment_FR_REAL,001,03,
images/fcloud80-20_D0.8_3.tif,0.8,2,,,,,0,65,65,74,,,,,,,,,,,,,,,,,,,None,None,None,20.151,,,,,,2019_Jan_14_1608,59.47447750045573,Cloud_Experiment_FR_REAL,001,03,
images/fcloud80-20_D1.1_2.tif,1.1,2,,,,,0,66,66,82,,,,,,,,,,,,,,,,,,,None,None,None,29.908,,,,,,2019_Jan_14_1608,59.47447750045573,Cloud_Experiment_FR_REAL,001,03,
images/fcloud80-20_D1_1.tif,1.0,2,,,,,0,67,67,78,,,,,,,,,,,,,,,,,,,None,None,None,39.849,,,,,,2019_Jan_14_1608,59.47447750045573,Cloud_Experiment_FR_REAL,001,03,
images/fcloud_D1.5_3.tif,1.5,0,,,,,0,68,68,23,,,,,,,,,,,,,,,,,,,None,None,None,49.692,,,,,,2019_Jan_14_1608,59.47447750045573,Cloud_Experiment_FR_REAL,001,03,
images/fcloud_D1_1.tif,1.0,0,,,,,0,69,69,6,,,,,,,,,,,,,,,,,,,2,space,2,1.584,,,5.02533574254,,,2019_Jan_14_1608,59.47447750045573,Cloud_Experiment_FR_REAL,001,03,
images/fcloud_D1.8_1.tif,1.8,0,,,,,0,70,70,30,,,,,,,,,,,,,,,,,,,1,None,2,1.168,,,,,,2019_Jan_14_1608,59.47447750045573,Cloud_Experiment_FR_REAL,001,03,
images/fcloud65-35_D1_3.tif,1.0,1,,,,,0,71,71,44,,,,,,,,,,,,,,,,,,,None,None,None,10.892,,,,,,2019_Jan_14_1608,59.47447750045573,Cloud_Experiment_FR_REAL,001,03,
images/fcloud_D0.8_1.tif,0.8,0,,,,,0,72,72,0,,,,,,,,,,,,,,,,,,,None,None,None,20.483,,,,,,2019_Jan_14_1608,59.47447750045573,Cloud_Experiment_FR_REAL,001,03,
images/fcloud_D1.3_2.tif,1.3,0,,,,,0,73,73,16,,,,,,,,,,,,,,,,,,,None,None,None,30.142,,,,,,2019_Jan_14_1608,59.47447750045573,Cloud_Experiment_FR_REAL,001,03,
images/fcloud_D0.8_2.tif,0.8,0,,,,,0,74,74,1,,,,,,,,,,,,,,,,,,,None,None,None,40.416,,,,,,2019_Jan_14_1608,59.47447750045573,Cloud_Experiment_FR_REAL,001,03,
images/fcloud_D1.5_1.tif,1.5,0,,,,,0,75,75,21,,,,,,,,,,,,,,,,,,,None,None,None,50.291,,,,,,2019_Jan_14_1608,59.47447750045573,Cloud_Experiment_FR_REAL,001,03,
images/fcloud80-20_D1.1_3.tif,1.1,2,,,,,0,76,76,83,,,,,,,,,,,,,,,,,,,None,None,None,60.049,,,,,,2019_Jan_14_1608,59.47447750045573,Cloud_Experiment_FR_REAL,001,03,
images/fcloud_D1_2.tif,1.0,0,,,,,0,77,77,7,,,,,,,,,,,,,,,,,,,1,space,3,1.668,,,7.88048567969,,,2019_Jan_14_1608,59.47447750045573,Cloud_Experiment_FR_REAL,001,03,
images/fcloud80-20_D1.9_1.tif,1.9,2,,,,,0,78,78,105,,,,,,,,,,,,,,,,,,,None,None,None,12.377,,,,,,2019_Jan_14_1608,59.47447750045573,Cloud_Experiment_FR_REAL,001,03,
images/fcloud80-20_D1.2_3.tif,1.2,2,,,,,0,79,79,86,,,,,,,,,,,,,,,,,,,None,None,None,22.018,,,,,,2019_Jan_14_1608,59.47447750045573,Cloud_Experiment_FR_REAL,001,03,
images/fcloud80-20_D1.2_1.tif,1.2,2,,,,,0,80,80,84,,,,,,,,,,,,,,,,,,,None,None,None,30.725,,,,,,2019_Jan_14_1608,59.47447750045573,Cloud_Experiment_FR_REAL,001,03,
images/fcloud65-35_D1.1_2.tif,1.1,1,,,,,0,81,81,46,,,,,,,,,,,,,,,,,,,None,None,None,39.401,,,,,,2019_Jan_14_1608,59.47447750045573,Cloud_Experiment_FR_REAL,001,03,
images/fcloud65-35_D1.2_3.tif,1.2,1,,,,,0,82,82,50,,,,,,,,,,,,,,,,,,,1,space,3,0.702,,,3.99402564624,,,2019_Jan_14_1608,59.47447750045573,Cloud_Experiment_FR_REAL,001,03,
images/fcloud_D0.9_3.tif,0.9,0,,,,,0,83,83,5,,,,,,,,,,,,,,,,,,,1,space,3,1.802,,,5.14222786541,,,2019_Jan_14_1608,59.47447750045573,Cloud_Experiment_FR_REAL,001,03,
images/fcloud_D1.9_2.tif,1.9,0,,,,,0,84,84,34,,,,,,,,,,,,,,,,,,,1,None,1,3.217,,,,,,2019_Jan_14_1608,59.47447750045573,Cloud_Experiment_FR_REAL,001,03,
images/fcloud65-35_D1.7_3.tif,1.7,1,,,,,0,85,85,65,,,,,,,,,,,,,,,,,,,1,None,2,0.802,,,,,,2019_Jan_14_1608,59.47447750045573,Cloud_Experiment_FR_REAL,001,03,
images/fcloud65-35_D1.5_3.tif,1.5,1,,,,,0,86,86,59,,,,,,,,,,,,,,,,,,,None,None,None,10.927,,,,,,2019_Jan_14_1608,59.47447750045573,Cloud_Experiment_FR_REAL,001,03,
images/fcloud_D1.1_3.tif,1.1,0,,,,,0,87,87,11,,,,,,,,,,,,,,,,,,,1,space,3,1.55,,,4.56326558936,,,2019_Jan_14_1608,59.47447750045573,Cloud_Experiment_FR_REAL,001,03,
images/fcloud65-35_D1.8_3.tif,1.8,1,,,,,0,88,88,68,,,,,,,,,,,,,,,,,,,None,None,None,11.658,,,,,,2019_Jan_14_1608,59.47447750045573,Cloud_Experiment_FR_REAL,001,03,
images/fcloud_D1.2_2.tif,1.2,0,,,,,0,89,89,13,,,,,,,,,,,,,,,,,,,None,None,None,21.317,,,,,,2019_Jan_14_1608,59.47447750045573,Cloud_Experiment_FR_REAL,001,03,
images/fcloud65-35_D1.6_3.tif,1.6,1,,,,,0,90,90,62,,,,,,,,,,,,,,,,,,,None,None,None,30.992,,,,,,2019_Jan_14_1608,59.47447750045573,Cloud_Experiment_FR_REAL,001,03,
images/fcloud65-35_D0.8_3.tif,0.8,1,,,,,0,91,91,38,,,,,,,,,,,,,,,,,,,1,space,2,1.42,,,5.94960302059,,,2019_Jan_14_1608,59.47447750045573,Cloud_Experiment_FR_REAL,001,03,
images/fcloud65-35_D1.3_3.tif,1.3,1,,,,,0,92,92,53,,,,,,,,,,,,,,,,,,,1,None,2,1.619,,,,,,2019_Jan_14_1608,59.47447750045573,Cloud_Experiment_FR_REAL,001,03,
images/fcloud80-20_D1.6_1.tif,1.6,2,,,,,0,93,93,96,,,,,,,,,,,,,,,,,,,None,None,None,10.577,,,,,,2019_Jan_14_1608,59.47447750045573,Cloud_Experiment_FR_REAL,001,03,
images/fcloud_D1.1_1.tif,1.1,0,,,,,0,94,94,9,,,,,,,,,,,,,,,,,,,None,None,None,20.201,,,,,,2019_Jan_14_1608,59.47447750045573,Cloud_Experiment_FR_REAL,001,03,
images/fcloud_D1.9_1.tif,1.9,0,,,,,0,95,95,33,,,,,,,,,,,,,,,,,,,None,None,None,30.208,,,,,,2019_Jan_14_1608,59.47447750045573,Cloud_Experiment_FR_REAL,001,03,
images/fcloud80-20_D1.4_2.tif,1.4,2,,,,,0,96,96,91,,,,,,,,,,,,,,,,,,,1,space,1,0.636,,,4.14470509917,,,2019_Jan_14_1608,59.47447750045573,Cloud_Experiment_FR_REAL,001,03,
images/fcloud65-35_D0.8_2.tif,0.8,1,,,,,0,97,97,37,,,,,,,,,,,,,,,,,,,1,None,1,1.269,,,,,,2019_Jan_14_1608,59.47447750045573,Cloud_Experiment_FR_REAL,001,03,
images/fcloud65-35_D0.9_2.tif,0.9,1,,,,,0,98,98,40,,,,,,,,,,,,,,,,,,,None,None,None,10.927,,,,,,2019_Jan_14_1608,59.47447750045573,Cloud_Experiment_FR_REAL,001,03,
images/fcloud_D1.2_1.tif,1.2,0,,,,,0,99,99,12,,,,,,,,,,,,,,,,,,,1,space,2,0.969,,,6.31300432063,,,2019_Jan_14_1608,59.47447750045573,Cloud_Experiment_FR_REAL,001,03,
images/fcloud_D1.9_3.tif,1.9,0,,,,,0,100,100,35,,,,,,,,,,,,,,,,,,,None,None,None,10.875,,,,,,2019_Jan_14_1608,59.47447750045573,Cloud_Experiment_FR_REAL,001,03,
images/fcloud80-20_D1.1_1.tif,1.1,2,,,,,0,101,101,81,,,,,,,,,,,,,,,,,,,1,space,2,2.218,,,3.51947679426,,,2019_Jan_14_1608,59.47447750045573,Cloud_Experiment_FR_REAL,001,03,
images/fcloud_D1.4_3.tif,1.4,0,,,,,0,102,102,20,,,,,,,,,,,,,,,,,,,1,space,1,3.251,,,4.4324949944,,,2019_Jan_14_1608,59.47447750045573,Cloud_Experiment_FR_REAL,001,03,
images/fcloud80-20_D1.2_2.tif,1.2,2,,,,,0,103,103,85,,,,,,,,,,,,,,,,,,,None,None,None,13.24,,,,,,2019_Jan_14_1608,59.47447750045573,Cloud_Experiment_FR_REAL,001,03,
images/fcloud_D1.4_1.tif,1.4,0,,,,,0,104,104,18,,,,,,,,,,,,,,,,,,,None,None,None,23.849,,,,,,2019_Jan_14_1608,59.47447750045573,Cloud_Experiment_FR_REAL,001,03,
images/fcloud65-35_D1.5_2.tif,1.5,1,,,,,0,105,105,58,,,,,,,,,,,,,,,,,,,None,None,None,33.905,,,,,,2019_Jan_14_1608,59.47447750045573,Cloud_Experiment_FR_REAL,001,03,
images/fcloud65-35_D1.2_2.tif,1.2,1,,,,,0,106,106,49,,,,,,,,,,,,,,,,,,,2,space,3,1.887,,,3.5035045738,,,2019_Jan_14_1608,59.47447750045573,Cloud_Experiment_FR_REAL,001,03,
images/fcloud80-20_D1.8_2.tif,1.8,2,,,,,0,107,107,103,,,,,,,,,,,,,,,,,,,None,None,None,12.091,,,,,,2019_Jan_14_1608,59.47447750045573,Cloud_Experiment_FR_REAL,001,03,
,,,,,,,,,,,,,,,,,,,,,,,,,6,14.456,,,,,,,,,,,,2019_Jan_14_1608,59.47447750045573,Cloud_Experiment_FR_REAL,001,03,
,,,,,,,,,,,,,,,,,,,,,,,,,,,,,,,,,,,,space,223.240355932,2019_Jan_14_1608,59.47447750045573,Cloud_Experiment_FR_REAL,001,03,
images/fcloud_D0.9_5.tif,0.9,0,,,,,,,,,0,0,0,4,,,,,,,,,,,,,,,1,space,4,1.235,,,7.622323891,,,2019_Jan_14_1608,59.47447750045573,Cloud_Experiment_FR_REAL,001,03,
images/fcloud65-35_D0.9_6.tif,0.9,1,,,,,,,,,0,1,1,41,,,,,,,,,,,,,,,None,None,None,11.209,,,,,,2019_Jan_14_1608,59.47447750045573,Cloud_Experiment_FR_REAL,001,03,
images/fcloud80-20_D0.9_6.tif,0.9,2,,,,,,,,,0,2,2,77,,,,,,,,,,,,,,,None,None,None,21.066,,,,,,2019_Jan_14_1608,59.47447750045573,Cloud_Experiment_FR_REAL,001,03,
images/fcloud65-35_D1_5.tif,1.0,1,,,,,,,,,0,3,3,43,,,,,,,,,,,,,,,1,space,2,0.752,,,6.54305343865,,,2019_Jan_14_1608,59.47447750045573,Cloud_Experiment_FR_REAL,001,03,
images/fcloud80-20_D1.8_5.tif,1.8,2,,,,,,,,,0,4,4,103,,,,,,,,,,,,,,,None,None,None,10.393,,,,,,2019_Jan_14_1608,59.47447750045573,Cloud_Experiment_FR_REAL,001,03,
images/fcloud65-35_D1.2_4.tif,1.2,1,,,,,,,,,0,5,5,48,,,,,,,,,,,,,,,1,space,3,0.585,,,6.39644839012,,,2019_Jan_14_1608,59.47447750045573,Cloud_Experiment_FR_REAL,001,03,
images/fcloud_D1.9_5.tif,1.9,0,,,,,,,,,0,6,6,34,,,,,,,,,,,,,,,None,None,None,10.577,,,,,,2019_Jan_14_1608,59.47447750045573,Cloud_Experiment_FR_REAL,001,03,
images/fcloud65-35_D1.1_5.tif,1.1,1,,,,,,,,,0,7,7,46,,,,,,,,,,,,,,,None,None,None,19.784,,,,,,2019_Jan_14_1608,59.47447750045573,Cloud_Experiment_FR_REAL,001,03,
images/fcloud80-20_D0.8_5.tif,0.8,2,,,,,,,,,0,8,8,73,,,,,,,,,,,,,,,None,None,None,28.693,,,,,,2019_Jan_14_1608,59.47447750045573,Cloud_Experiment_FR_REAL,001,03,
images/fcloud80-20_D1_6.tif,1.0,2,,,,,,,,,0,9,9,80,,,,,,,,,,,,,,,None,None,None,37.27,,,,,,2019_Jan_14_1608,59.47447750045573,Cloud_Experiment_FR_REAL,001,03,
images/fcloud_D1.6_6.tif,1.6,0,,,,,,,,,0,10,10,26,,,,,,,,,,,,,,,1,space,3,0.67,,,3.39034706462,,,2019_Jan_14_1608,59.47447750045573,Cloud_Experiment_FR_REAL,001,03,
images/fcloud_D1.2_4.tif,1.2,0,,,,,,,,,0,11,11,12,,,,,,,,,,,,,,,1,space,2,0.703,,,6.83831615958,,,2019_Jan_14_1608,59.47447750045573,Cloud_Experiment_FR_REAL,001,03,
images/fcloud65-35_D1.6_4.tif,1.6,1,,,,,,,,,0,12,12,60,,,,,,,,,,,,,,,1,None,None,None,,,,,,2019_Jan_14_1608,59.47447750045573,Cloud_Experiment_FR_REAL,001,03,
images/fcloud80-20_D1.5_4.tif,1.5,2,,,,,,,,,0,13,13,93,,,,,,,,,,,,,,,None,None,None,10.958,,,,,,2019_Jan_14_1608,59.47447750045573,Cloud_Experiment_FR_REAL,001,03,
images/fcloud65-35_D1_6.tif,1.0,1,,,,,,,,,0,14,14,44,,,,,,,,,,,,,,,1,space,2,3.667,,,6.05878790838,,,2019_Jan_14_1608,59.47447750045573,Cloud_Experiment_FR_REAL,001,03,
images/fcloud80-20_D1.1_6.tif,1.1,2,,,,,,,,,0,15,15,83,,,,,,,,,,,,,,,None,None,None,13.522,,,,,,2019_Jan_14_1608,59.47447750045573,Cloud_Experiment_FR_REAL,001,03,
images/fcloud65-35_D1.5_4.tif,1.5,1,,,,,,,,,0,16,16,57,,,,,,,,,,,,,,,None,None,None,30.209,,,,,,2019_Jan_14_1608,59.47447750045573,Cloud_Experiment_FR_REAL,001,03,
images/fcloud80-20_D1.4_6.tif,1.4,2,,,,,,,,,0,17,17,92,,,,,,,,,,,,,,,1,space,2,0.818,,,4.79438497109,,,2019_Jan_14_1608,59.47447750045573,Cloud_Experiment_FR_REAL,001,03,
images/fcloud_D0.8_6.tif,0.8,0,,,,,,,,,0,18,18,2,,,,,,,,,,,,,,,1,None,4,1.352,,,,,,2019_Jan_14_1608,59.47447750045573,Cloud_Experiment_FR_REAL,001,03,
images/fcloud80-20_D1.2_5.tif,1.2,2,,,,,,,,,0,19,19,85,,,,,,,,,,,,,,,1,None,2,0.603,,,,,,2019_Jan_14_1608,59.47447750045573,Cloud_Experiment_FR_REAL,001,03,
images/fcloud80-20_D1.5_5.tif,1.5,2,,,,,,,,,0,20,20,94,,,,,,,,,,,,,,,None,None,None,11.008,,,,,,2019_Jan_14_1608,59.47447750045573,Cloud_Experiment_FR_REAL,001,03,
images/fcloud_D1.3_5.tif,1.3,0,,,,,,,,,0,21,21,16,,,,,,,,,,,,,,,1,None,2,1.717,,,,,,2019_Jan_14_1608,59.47447750045573,Cloud_Experiment_FR_REAL,001,03,
images/fcloud65-35_D0.8_4.tif,0.8,1,,,,,,,,,0,22,22,36,,,,,,,,,,,,,,,None,None,None,11.193,,,,,,2019_Jan_14_1608,59.47447750045573,Cloud_Experiment_FR_REAL,001,03,
images/fcloud80-20_D1.3_5.tif,1.3,2,,,,,,,,,0,23,23,88,,,,,,,,,,,,,,,None,None,None,20.451,,,,,,2019_Jan_14_1608,59.47447750045573,Cloud_Experiment_FR_REAL,001,03,
images/fcloud65-35_D1.8_6.tif,1.8,1,,,,,,,,,0,24,24,68,,,,,,,,,,,,,,,None,None,None,30.008,,,,,,2019_Jan_14_1608,59.47447750045573,Cloud_Experiment_FR_REAL,001,03,
images/fcloud80-20_D1.4_5.tif,1.4,2,,,,,,,,,0,25,25,91,,,,,,,,,,,,,,,None,None,None,42.149,,,,,,2019_Jan_14_1608,59.47447750045573,Cloud_Experiment_FR_REAL,001,03,
images/fcloud_D1.4_4.tif,1.4,0,,,,,,,,,0,26,26,18,,,,,,,,,,,,,,,1,space,4,2.534,,,6.25342373858,,,2019_Jan_14_1608,59.47447750045573,Cloud_Experiment_FR_REAL,001,03,
images/fcloud_D1.7_6.tif,1.7,0,,,,,,,,,0,27,27,29,,,,,,,,,,,,,,,None,None,None,12.457,,,,,,2019_Jan_14_1608,59.47447750045573,Cloud_Experiment_FR_REAL,001,03,
images/fcloud_D1.7_4.tif,1.7,0,,,,,,,,,0,28,28,27,,,,,,,,,,,,,,,None,None,None,22.233,,,,,,2019_Jan_14_1608,59.47447750045573,Cloud_Experiment_FR_REAL,001,03,
images/fcloud80-20_D0.9_4.tif,0.9,2,,,,,,,,,0,29,29,75,,,,,,,,,,,,,,,None,None,None,31.927,,,,,,2019_Jan_14_1608,59.47447750045573,Cloud_Experiment_FR_REAL,001,03,
images/fcloud_D1.5_4.tif,1.5,0,,,,,,,,,0,30,30,21,,,,,,,,,,,,,,,3,space,2,2.068,,,11.9030887028,,,2019_Jan_14_1608,59.47447750045573,Cloud_Experiment_FR_REAL,001,03,
images/fcloud_D1.2_5.tif,1.2,0,,,,,,,,,0,31,31,13,,,,,,,,,,,,,,,2,space,3,0.801,,,3.96861228129,,,2019_Jan_14_1608,59.47447750045573,Cloud_Experiment_FR_REAL,001,03,
images/fcloud80-20_D0.9_5.tif,0.9,2,,,,,,,,,0,32,32,76,,,,,,,,,,,,,,,1,space,2,1.269,,,3.63242148442,,,2019_Jan_14_1608,59.47447750045573,Cloud_Experiment_FR_REAL,001,03,
images/fcloud80-20_D1.9_6.tif,1.9,2,,,,,,,,,0,33,33,107,,,,,,,,,,,,,,,None,None,None,10.992,,,,,,2019_Jan_14_1608,59.47447750045573,Cloud_Experiment_FR_REAL,001,03,
images/fcloud_D1.3_4.tif,1.3,0,,,,,,,,,0,34,34,15,,,,,,,,,,,,,,,None,None,None,20.683,,,,,,2019_Jan_14_1608,59.47447750045573,Cloud_Experiment_FR_REAL,001,03,
images/fcloud65-35_D1.4_4.tif,1.4,1,,,,,,,,,0,35,35,54,,,,,,,,,,,,,,,1,space,2,2.951,,,5.93258264087,,,2019_Jan_14_1608,59.47447750045573,Cloud_Experiment_FR_REAL,001,03,
images/fcloud65-35_D1.7_6.tif,1.7,1,,,,,,,,,0,36,36,65,,,,,,,,,,,,,,,None,None,None,12.808,,,,,,2019_Jan_14_1608,59.47447750045573,Cloud_Experiment_FR_REAL,001,03,
images/fcloud_D1.2_6.tif,1.2,0,,,,,,,,,0,37,37,14,,,,,,,,,,,,,,,1,space,3,2.002,,,6.87947967296,,,2019_Jan_14_1608,59.47447750045573,Cloud_Experiment_FR_REAL,001,03,
images/fcloud_D1.8_5.tif,1.8,0,,,,,,,,,0,38,38,31,,,,,,,,,,,,,,,1,space,3,2.618,,,4.53229836814,,,2019_Jan_14_1608,59.47447750045573,Cloud_Experiment_FR_REAL,001,03,
images/fcloud65-35_D1_4.tif,1.0,1,,,,,,,,,0,39,39,42,,,,,,,,,,,,,,,1,space,4,1.718,,,8.08868692216,,,2019_Jan_14_1608,59.47447750045573,Cloud_Experiment_FR_REAL,001,03,
images/fcloud80-20_D1_5.tif,1.0,2,,,,,,,,,0,40,40,79,,,,,,,,,,,,,,,1,None,2,1.617,,,,,,2019_Jan_14_1608,59.47447750045573,Cloud_Experiment_FR_REAL,001,03,
images/fcloud_D1.4_5.tif,1.4,0,,,,,,,,,0,41,41,19,,,,,,,,,,,,,,,3,space,4,2.185,,,3.06007870191,,,2019_Jan_14_1608,59.47447750045573,Cloud_Experiment_FR_REAL,001,03,
images/fcloud65-35_D0.8_5.tif,0.8,1,,,,,,,,,0,42,42,37,,,,,,,,,,,,,,,None,None,None,12.077,,,,,,2019_Jan_14_1608,59.47447750045573,Cloud_Experiment_FR_REAL,001,03,
images/fcloud65-35_D1.2_6.tif,1.2,1,,,,,,,,,0,43,43,50,,,,,,,,,,,,,,,1,space,1,1.418,,,4.66499512931,,,2019_Jan_14_1608,59.47447750045573,Cloud_Experiment_FR_REAL,001,03,
images/fcloud_D1.5_5.tif,1.5,0,,,,,,,,,0,44,44,22,,,,,,,,,,,,,,,None,None,None,11.609,,,,,,2019_Jan_14_1608,59.47447750045573,Cloud_Experiment_FR_REAL,001,03,
images/fcloud80-20_D1.2_4.tif,1.2,2,,,,,,,,,0,45,45,84,,,,,,,,,,,,,,,None,None,None,22.784,,,,,,2019_Jan_14_1608,59.47447750045573,Cloud_Experiment_FR_REAL,001,03,
images/fcloud_D1.4_6.tif,1.4,0,,,,,,,,,0,46,46,20,,,,,,,,,,,,,,,3,space,3,1.552,,,3.74982457852,,,2019_Jan_14_1608,59.47447750045573,Cloud_Experiment_FR_REAL,001,03,
images/fcloud_D1.3_6.tif,1.3,0,,,,,,,,,0,47,47,17,,,,,,,,,,,,,,,None,None,None,11.441,,,,,,2019_Jan_14_1608,59.47447750045573,Cloud_Experiment_FR_REAL,001,03,
images/fcloud_D1.7_5.tif,1.7,0,,,,,,,,,0,48,48,28,,,,,,,,,,,,,,,None,None,None,21.334,,,,,,2019_Jan_14_1608,59.47447750045573,Cloud_Experiment_FR_REAL,001,03,
images/fcloud80-20_D0.8_6.tif,0.8,2,,,,,,,,,0,49,49,74,,,,,,,,,,,,,,,1,space,5,1.652,,,3.61187314134,,,2019_Jan_14_1608,59.47447750045573,Cloud_Experiment_FR_REAL,001,03,
images/fcloud65-35_D1.3_5.tif,1.3,1,,,,,,,,,0,50,50,52,,,,,,,,,,,,,,,None,None,None,13.505,,,,,,2019_Jan_14_1608,59.47447750045573,Cloud_Experiment_FR_REAL,001,03,
images/fcloud80-20_D1.1_4.tif,1.1,2,,,,,,,,,0,51,51,81,,,,,,,,,,,,,,,None,None,None,21.983,,,,,,2019_Jan_14_1608,59.47447750045573,Cloud_Experiment_FR_REAL,001,03,
images/fcloud_D1.1_6.tif,1.1,0,,,,,,,,,0,52,52,11,,,,,,,,,,,,,,,None,None,None,30.542,,,,,,2019_Jan_14_1608,59.47447750045573,Cloud_Experiment_FR_REAL,001,03,
images/fcloud80-20_D1.6_6.tif,1.6,2,,,,,,,,,0,53,53,98,,,,,,,,,,,,,,,None,None,None,39.085,,,,,,2019_Jan_14_1608,59.47447750045573,Cloud_Experiment_FR_REAL,001,03,
images/fcloud80-20_D1.2_6.tif,1.2,2,,,,,,,,,0,54,54,86,,,,,,,,,,,,,,,None,None,None,47.527,,,,,,2019_Jan_14_1608,59.47447750045573,Cloud_Experiment_FR_REAL,001,03,
images/fcloud_D1.9_4.tif,1.9,0,,,,,,,,,0,55,55,33,,,,,,,,,,,,,,,3,None,3,1.152,,,,,,2019_Jan_14_1608,59.47447750045573,Cloud_Experiment_FR_REAL,001,03,
images/fcloud_D0.9_6.tif,0.9,0,,,,,,,,,0,56,56,5,,,,,,,,,,,,,,,None,None,None,11.992,,,,,,2019_Jan_14_1608,59.47447750045573,Cloud_Experiment_FR_REAL,001,03,
images/fcloud_D0.8_5.tif,0.8,0,,,,,,,,,0,57,57,1,,,,,,,,,,,,,,,2,None,2,2.268,,,,,,2019_Jan_14_1608,59.47447750045573,Cloud_Experiment_FR_REAL,001,03,
images/fcloud65-35_D1.1_6.tif,1.1,1,,,,,,,,,0,58,58,47,,,,,,,,,,,,,,,None,None,None,14.273,,,,,,2019_Jan_14_1608,59.47447750045573,Cloud_Experiment_FR_REAL,001,03,
images/fcloud_D1_4.tif,1.0,0,,,,,,,,,0,59,59,6,,,,,,,,,,,,,,,1,None,2,1.501,,,,,,2019_Jan_14_1608,59.47447750045573,Cloud_Experiment_FR_REAL,001,03,
images/fcloud65-35_D1.6_5.tif,1.6,1,,,,,,,,,0,60,60,61,,,,,,,,,,,,,,,None,None,None,11.408,,,,,,2019_Jan_14_1608,59.47447750045573,Cloud_Experiment_FR_REAL,001,03,
images/fcloud65-35_D1.9_5.tif,1.9,1,,,,,,,,,0,61,61,70,,,,,,,,,,,,,,,None,None,None,21.499,,,,,,2019_Jan_14_1608,59.47447750045573,Cloud_Experiment_FR_REAL,001,03,
images/fcloud_D1.1_5.tif,1.1,0,,,,,,,,,0,62,62,10,,,,,,,,,,,,,,,None,None,None,30.89,,,,,,2019_Jan_14_1608,59.47447750045573,Cloud_Experiment_FR_REAL,001,03,
images/fcloud80-20_D1.7_6.tif,1.7,2,,,,,,,,,0,63,63,101,,,,,,,,,,,,,,,None,None,None,40.665,,,,,,2019_Jan_14_1608,59.47447750045573,Cloud_Experiment_FR_REAL,001,03,
images/fcloud_D1.5_6.tif,1.5,0,,,,,,,,,0,64,64,23,,,,,,,,,,,,,,,3,space,3,1.002,,,3.80439209074,,,2019_Jan_14_1608,59.47447750045573,Cloud_Experiment_FR_REAL,001,03,
images/fcloud65-35_D0.9_4.tif,0.9,1,,,,,,,,,0,65,65,39,,,,,,,,,,,,,,,None,None,None,10.959,,,,,,2019_Jan_14_1608,59.47447750045573,Cloud_Experiment_FR_REAL,001,03,
images/fcloud80-20_D0.8_4.tif,0.8,2,,,,,,,,,0,66,66,72,,,,,,,,,,,,,,,None,None,None,20.651,,,,,,2019_Jan_14_1608,59.47447750045573,Cloud_Experiment_FR_REAL,001,03,
images/fcloud_D1.8_6.tif,1.8,0,,,,,,,,,0,67,67,32,,,,,,,,,,,,,,,None,None,None,30.226,,,,,,2019_Jan_14_1608,59.47447750045573,Cloud_Experiment_FR_REAL,001,03,
images/fcloud80-20_D1_4.tif,1.0,2,,,,,,,,,0,68,68,78,,,,,,,,,,,,,,,None,None,None,39.901,,,,,,2019_Jan_14_1608,59.47447750045573,Cloud_Experiment_FR_REAL,001,03,
images/fcloud_D1.8_4.tif,1.8,0,,,,,,,,,0,69,69,30,,,,,,,,,,,,,,,None,None,None,49.659,,,,,,2019_Jan_14_1608,59.47447750045573,Cloud_Experiment_FR_REAL,001,03,
images/fcloud_D1_5.tif,1.0,0,,,,,,,,,0,70,70,7,,,,,,,,,,,,,,,2,space,4,1.717,,,4.44463030409,,,2019_Jan_14_1608,59.47447750045573,Cloud_Experiment_FR_REAL,001,03,
images/fcloud80-20_D1.8_6.tif,1.8,2,,,,,,,,,0,71,71,104,,,,,,,,,,,,,,,None,None,None,12.774,,,,,,2019_Jan_14_1608,59.47447750045573,Cloud_Experiment_FR_REAL,001,03,
images/fcloud65-35_D1.8_5.tif,1.8,1,,,,,,,,,0,72,72,67,,,,,,,,,,,,,,,1,space,3,1.352,,,3.19938416142,,,2019_Jan_14_1608,59.47447750045573,Cloud_Experiment_FR_REAL,001,03,
images/fcloud65-35_D1.9_4.tif,1.9,1,,,,,,,,,0,73,73,69,,,,,,,,,,,,,,,None,None,None,11.176,,,,,,2019_Jan_14_1608,59.47447750045573,Cloud_Experiment_FR_REAL,001,03,
images/fcloud65-35_D0.8_6.tif,0.8,1,,,,,,,,,0,74,74,38,,,,,,,,,,,,,,,1,None,1,1.485,,,,,,2019_Jan_14_1608,59.47447750045573,Cloud_Experiment_FR_REAL,001,03,
images/fcloud_D1.6_5.tif,1.6,0,,,,,,,,,0,75,75,25,,,,,,,,,,,,,,,1,space,1,1.269,,,6.02335457239,,,2019_Jan_14_1608,59.47447750045573,Cloud_Experiment_FR_REAL,001,03,
images/fcloud65-35_D1.7_4.tif,1.7,1,,,,,,,,,0,76,76,63,,,,,,,,,,,,,,,None,None,None,11.392,,,,,,2019_Jan_14_1608,59.47447750045573,Cloud_Experiment_FR_REAL,001,03,
images/fcloud80-20_D1.4_4.tif,1.4,2,,,,,,,,,0,77,77,90,,,,,,,,,,,,,,,None,None,None,20.8,,,,,,2019_Jan_14_1608,59.47447750045573,Cloud_Experiment_FR_REAL,001,03,
images/fcloud65-35_D1.4_6.tif,1.4,1,,,,,,,,,0,78,78,56,,,,,,,,,,,,,,,1,space,2,1.769,,,5.8047709497,,,2019_Jan_14_1608,59.47447750045573,Cloud_Experiment_FR_REAL,001,03,
images/fcloud80-20_D1.6_4.tif,1.6,2,,,,,,,,,0,79,79,96,,,,,,,,,,,,,,,None,None,None,11.359,,,,,,2019_Jan_14_1608,59.47447750045573,Cloud_Experiment_FR_REAL,001,03,
images/fcloud65-35_D1.6_6.tif,1.6,1,,,,,,,,,0,80,80,62,,,,,,,,,,,,,,,None,None,None,20.867,,,,,,2019_Jan_14_1608,59.47447750045573,Cloud_Experiment_FR_REAL,001,03,
images/fcloud_D0.9_4.tif,0.9,0,,,,,,,,,0,81,81,3,,,,,,,,,,,,,,,1,None,3,2.701,,,,,,2019_Jan_14_1608,59.47447750045573,Cloud_Experiment_FR_REAL,001,03,
images/fcloud80-20_D1.9_4.tif,1.9,2,,,,,,,,,0,82,82,105,,,,,,,,,,,,,,,None,None,None,12.608,,,,,,2019_Jan_14_1608,59.47447750045573,Cloud_Experiment_FR_REAL,001,03,
images/fcloud65-35_D1.3_4.tif,1.3,1,,,,,,,,,0,83,83,51,,,,,,,,,,,,,,,None,None,None,22.115,,,,,,2019_Jan_14_1608,59.47447750045573,Cloud_Experiment_FR_REAL,001,03,
images/fcloud65-35_D1.4_5.tif,1.4,1,,,,,,,,,0,84,84,55,,,,,,,,,,,,,,,None,None,None,31.61,,,,,,2019_Jan_14_1608,59.47447750045573,Cloud_Experiment_FR_REAL,001,03,
images/fcloud80-20_D1.8_4.tif,1.8,2,,,,,,,,,0,85,85,102,,,,,,,,,,,,,,,None,None,None,41.133,,,,,,2019_Jan_14_1608,59.47447750045573,Cloud_Experiment_FR_REAL,001,03,
images/fcloud65-35_D1.9_6.tif,1.9,1,,,,,,,,,0,86,86,71,,,,,,,,,,,,,,,None,None,None,50.524,,,,,,2019_Jan_14_1608,59.47447750045573,Cloud_Experiment_FR_REAL,001,03,
images/fcloud80-20_D1.3_6.tif,1.3,2,,,,,,,,,0,87,87,89,,,,,,,,,,,,,,,None,None,None,60.215,,,,,,2019_Jan_14_1608,59.47447750045573,Cloud_Experiment_FR_REAL,001,03,
images/fcloud65-35_D1.5_5.tif,1.5,1,,,,,,,,,0,88,88,58,,,,,,,,,,,,,,,None,None,None,69.509,,,,,,2019_Jan_14_1608,59.47447750045573,Cloud_Experiment_FR_REAL,001,03,
images/fcloud_D1_6.tif,1.0,0,,,,,,,,,0,89,89,8,,,,,,,,,,,,,,,1,None,3,1.303,,,,,,2019_Jan_14_1608,59.47447750045573,Cloud_Experiment_FR_REAL,001,03,
images/fcloud65-35_D1.3_6.tif,1.3,1,,,,,,,,,0,90,90,53,,,,,,,,,,,,,,,None,None,None,10.977,,,,,,2019_Jan_14_1608,59.47447750045573,Cloud_Experiment_FR_REAL,001,03,
images/fcloud80-20_D1.7_4.tif,1.7,2,,,,,,,,,0,91,91,99,,,,,,,,,,,,,,,None,None,None,20.585,,,,,,2019_Jan_14_1608,59.47447750045573,Cloud_Experiment_FR_REAL,001,03,
images/fcloud_D0.8_4.tif,0.8,0,,,,,,,,,0,92,92,0,,,,,,,,,,,,,,,None,None,None,30.944,,,,,,2019_Jan_14_1608,59.47447750045573,Cloud_Experiment_FR_REAL,001,03,
images/fcloud80-20_D1.3_4.tif,1.3,2,,,,,,,,,0,93,93,87,,,,,,,,,,,,,,,1,space,2,0.885,,,5.81772206558,,,2019_Jan_14_1608,59.47447750045573,Cloud_Experiment_FR_REAL,001,03,
images/fcloud_D1.6_4.tif,1.6,0,,,,,,,,,0,94,94,24,,,,,,,,,,,,,,,None,None,None,10.393,,,,,,2019_Jan_14_1608,59.47447750045573,Cloud_Experiment_FR_REAL,001,03,
images/fcloud65-35_D1.5_6.tif,1.5,1,,,,,,,,,0,95,95,59,,,,,,,,,,,,,,,None,None,None,20.218,,,,,,2019_Jan_14_1608,59.47447750045573,Cloud_Experiment_FR_REAL,001,03,
images/fcloud80-20_D1.6_5.tif,1.6,2,,,,,,,,,0,96,96,97,,,,,,,,,,,,,,,None,None,None,29.877,,,,,,2019_Jan_14_1608,59.47447750045573,Cloud_Experiment_FR_REAL,001,03,
images/fcloud65-35_D1.1_4.tif,1.1,1,,,,,,,,,0,97,97,45,,,,,,,,,,,,,,,1,space,3,1.135,,,4.70052767801,,,2019_Jan_14_1608,59.47447750045573,Cloud_Experiment_FR_REAL,001,03,
images/fcloud80-20_D1.1_5.tif,1.1,2,,,,,,,,,0,98,98,82,,,,,,,,,,,,,,,None,None,None,10.893,,,,,,2019_Jan_14_1608,59.47447750045573,Cloud_Experiment_FR_REAL,001,03,
images/fcloud80-20_D1.9_5.tif,1.9,2,,,,,,,,,0,99,99,106,,,,,,,,,,,,,,,None,None,None,21.115,,,,,,2019_Jan_14_1608,59.47447750045573,Cloud_Experiment_FR_REAL,001,03,
images/fcloud65-35_D1.7_5.tif,1.7,1,,,,,,,,,0,100,100,64,,,,,,,,,,,,,,,None,None,None,30.593,,,,,,2019_Jan_14_1608,59.47447750045573,Cloud_Experiment_FR_REAL,001,03,
images/fcloud_D1.1_4.tif,1.1,0,,,,,,,,,0,101,101,9,,,,,,,,,,,,,,,1,space,4,1.584,,,5.17935193016,,,2019_Jan_14_1608,59.47447750045573,Cloud_Experiment_FR_REAL,001,03,
images/fcloud65-35_D0.9_5.tif,0.9,1,,,,,,,,,0,102,102,40,,,,,,,,,,,,,,,None,None,None,12.091,,,,,,2019_Jan_14_1608,59.47447750045573,Cloud_Experiment_FR_REAL,001,03,
images/fcloud80-20_D1.5_6.tif,1.5,2,,,,,,,,,0,103,103,95,,,,,,,,,,,,,,,1,space,2,2.151,,,8.95098171761,,,2019_Jan_14_1608,59.47447750045573,Cloud_Experiment_FR_REAL,001,03,
images/fcloud80-20_D1.7_5.tif,1.7,2,,,,,,,,,0,104,104,100,,,,,,,,,,,,,,,None,None,None,13.09,,,,,,2019_Jan_14_1608,59.47447750045573,Cloud_Experiment_FR_REAL,001,03,
images/fcloud_D1.9_6.tif,1.9,0,,,,,,,,,0,105,105,35,,,,,,,,,,,,,,,None,None,None,22.548,,,,,,2019_Jan_14_1608,59.47447750045573,Cloud_Experiment_FR_REAL,001,03,
images/fcloud65-35_D1.8_4.tif,1.8,1,,,,,,,,,0,106,106,66,,,,,,,,,,,,,,,None,None,None,35.187,,,,,,2019_Jan_14_1608,59.47447750045573,Cloud_Experiment_FR_REAL,001,03,
images/fcloud65-35_D1.2_5.tif,1.2,1,,,,,,,,,0,107,107,49,,,,,,,,,,,,,,,2,space,2,1.768,,,4.64102831675,,,2019_Jan_14_1608,59.47447750045573,Cloud_Experiment_FR_REAL,001,03,
,,,,,,,,,,,,,,,,,,,,,,,,,7,14.925,,,,,,,,,,,,2019_Jan_14_1608,59.47447750045573,Cloud_Experiment_FR_REAL,001,03,
,,,,,,,,,,,,,,,,,,,,,,,,,,,,,,,,,,,,space,489.60673567,2019_Jan_14_1608,59.47447750045573,Cloud_Experiment_FR_REAL,001,03,
images/fcloud65-35_D1.9_7.tif,1.9,1,,,,,,,,,,,,,0,0,0,92,,,,,,,,,,,None,None,None,514.936,,,,,,2019_Jan_14_1608,59.47447750045573,Cloud_Experiment_FR_REAL,001,03,
images/fcloud_D1_8.tif,1.0,0,,,,,,,,,,,,,0,1,1,9,,,,,,,,,,,1,space,2,0.92,,,6.65068999107,,,2019_Jan_14_1608,59.47447750045573,Cloud_Experiment_FR_REAL,001,03,
images/fcloud65-35_D0.9_9.tif,0.9,1,,,,,,,,,,,,,0,2,2,54,,,,,,,,,,,None,None,None,11.457,,,,,,2019_Jan_14_1608,59.47447750045573,Cloud_Experiment_FR_REAL,001,03,
images/fcloud_D1.9_9.tif,1.9,0,,,,,,,,,,,,,0,3,3,46,,,,,,,,,,,None,None,None,20.669,,,,,,2019_Jan_14_1608,59.47447750045573,Cloud_Experiment_FR_REAL,001,03,
images/fcloud80-20_D1.4_9.tif,1.4,2,,,,,,,,,,,,,0,4,4,122,,,,,,,,,,,None,None,None,29.31,,,,,,2019_Jan_14_1608,59.47447750045573,Cloud_Experiment_FR_REAL,001,03,
images/fcloud80-20_D1.5_9.tif,1.5,2,,,,,,,,,,,,,0,5,5,126,,,,,,,,,,,None,None,None,39.018,,,,,,2019_Jan_14_1608,59.47447750045573,Cloud_Experiment_FR_REAL,001,03,
images/fcloud65-35_D0.8_7.tif,0.8,1,,,,,,,,,,,,,0,6,6,48,,,,,,,,,,,2,space,5,1.186,,,7.33070839426,,,2019_Jan_14_1608,59.47447750045573,Cloud_Experiment_FR_REAL,001,03,
images/fcloud65-35_D1.4_10.tif,1.4,1,,,,,,,,,,,,,0,7,7,75,,,,,,,,,,,None,None,None,62.581,,,,,,2019_Jan_14_1608,59.47447750045573,Cloud_Experiment_FR_REAL,001,03,
images/fcloud65-35_D1.3_10.tif,1.3,1,,,,,,,,,,,,,0,8,8,71,,,,,,,,,,,None,None,None,71.888,,,,,,2019_Jan_14_1608,59.47447750045573,Cloud_Experiment_FR_REAL,001,03,
images/fcloud80-20_D1.9_7.tif,1.9,2,,,,,,,,,,,,,0,9,9,140,,,,,,,,,,,None,None,None,81.647,,,,,,2019_Jan_14_1608,59.47447750045573,Cloud_Experiment_FR_REAL,001,03,
images/fcloud_D1_7.tif,1.0,0,,,,,,,,,,,,,0,10,10,8,,,,,,,,,,,1,space,4,0.87,,,6.10588053861,,,2019_Jan_14_1608,59.47447750045573,Cloud_Experiment_FR_REAL,001,03,
images/fcloud80-20_D1.5_8.tif,1.5,2,,,,,,,,,,,,,0,11,11,125,,,,,,,,,,,None,None,None,10.359,,,,,,2019_Jan_14_1608,59.47447750045573,Cloud_Experiment_FR_REAL,001,03,
images/fcloud_D1.9_10.tif,1.9,0,,,,,,,,,,,,,0,12,12,47,,,,,,,,,,,None,None,None,19.735,,,,,,2019_Jan_14_1608,59.47447750045573,Cloud_Experiment_FR_REAL,001,03,
images/fcloud80-20_D1_9.tif,1.0,2,,,,,,,,,,,,,0,13,13,106,,,,,,,,,,,None,None,None,30.925,,,,,,2019_Jan_14_1608,59.47447750045573,Cloud_Experiment_FR_REAL,001,03,
images/fcloud_D1.7_7.tif,1.7,0,,,,,,,,,,,,,0,14,14,36,,,,,,,,,,,1,None,2,1.117,,,,,,2019_Jan_14_1608,59.47447750045573,Cloud_Experiment_FR_REAL,001,03,
images/fcloud80-20_D1.3_10.tif,1.3,2,,,,,,,,,,,,,0,15,15,119,,,,,,,,,,,1,None,1,2.051,,,,,,2019_Jan_14_1608,59.47447750045573,Cloud_Experiment_FR_REAL,001,03,
images/fcloud65-35_D1.6_10.tif,1.6,1,,,,,,,,,,,,,0,16,16,83,,,,,,,,,,,None,None,None,12.324,,,,,,2019_Jan_14_1608,59.47447750045573,Cloud_Experiment_FR_REAL,001,03,
images/fcloud80-20_D0.9_7.tif,0.9,2,,,,,,,,,,,,,0,17,17,100,,,,,,,,,,,None,None,None,24.248,,,,,,2019_Jan_14_1608,59.47447750045573,Cloud_Experiment_FR_REAL,001,03,
images/fcloud_D1.6_10.tif,1.6,0,,,,,,,,,,,,,0,18,18,35,,,,,,,,,,,1,space,2,1.401,,,7.489314584,,,2019_Jan_14_1608,59.47447750045573,Cloud_Experiment_FR_REAL,001,03,
images/fcloud80-20_D1.7_9.tif,1.7,2,,,,,,,,,,,,,0,19,19,134,,,,,,,,,,,None,None,None,11.14,,,,,,2019_Jan_14_1608,59.47447750045573,Cloud_Experiment_FR_REAL,001,03,
images/fcloud_D1.3_10.tif,1.3,0,,,,,,,,,,,,,0,20,20,23,,,,,,,,,,,2,space,3,1.703,,,4.30414611514,,,2019_Jan_14_1608,59.47447750045573,Cloud_Experiment_FR_REAL,001,03,
images/fcloud65-35_D1.4_7.tif,1.4,1,,,,,,,,,,,,,0,21,21,72,,,,,,,,,,,1,None,2,1.968,,,,,,2019_Jan_14_1608,59.47447750045573,Cloud_Experiment_FR_REAL,001,03,
images/fcloud_D1.8_10.tif,1.8,0,,,,,,,,,,,,,0,22,22,43,,,,,,,,,,,None,None,None,12.074,,,,,,2019_Jan_14_1608,59.47447750045573,Cloud_Experiment_FR_REAL,001,03,
images/fcloud80-20_D1.4_7.tif,1.4,2,,,,,,,,,,,,,0,23,23,120,,,,,,,,,,,None,None,None,21.999,,,,,,2019_Jan_14_1608,59.47447750045573,Cloud_Experiment_FR_REAL,001,03,
images/fcloud_D1.6_8.tif,1.6,0,,,,,,,,,,,,,0,24,24,33,,,,,,,,,,,None,None,None,33.289,,,,,,2019_Jan_14_1608,59.47447750045573,Cloud_Experiment_FR_REAL,001,03,
images/fcloud_D1.4_9.tif,1.4,0,,,,,,,,,,,,,0,25,25,26,,,,,,,,,,,None,None,None,43.397,,,,,,2019_Jan_14_1608,59.47447750045573,Cloud_Experiment_FR_REAL,001,03,
images/fcloud_D1.5_9.tif,1.5,0,,,,,,,,,,,,,0,26,26,30,,,,,,,,,,,None,None,None,55.919,,,,,,2019_Jan_14_1608,59.47447750045573,Cloud_Experiment_FR_REAL,001,03,
images/fcloud80-20_D0.9_8.tif,0.9,2,,,,,,,,,,,,,0,27,27,101,,,,,,,,,,,None,None,None,65.863,,,,,,2019_Jan_14_1608,59.47447750045573,Cloud_Experiment_FR_REAL,001,03,
images/fcloud_D1.4_7.tif,1.4,0,,,,,,,,,,,,,0,28,28,24,,,,,,,,,,,None,None,None,75.638,,,,,,2019_Jan_14_1608,59.47447750045573,Cloud_Experiment_FR_REAL,001,03,
images/fcloud_D1.9_7.tif,1.9,0,,,,,,,,,,,,,0,29,29,44,,,,,,,,,,,None,None,None,85.294,,,,,,2019_Jan_14_1608,59.47447750045573,Cloud_Experiment_FR_REAL,001,03,
images/fcloud_D1.9_8.tif,1.9,0,,,,,,,,,,,,,0,30,30,45,,,,,,,,,,,1,None,2,0.503,,,,,,2019_Jan_14_1608,59.47447750045573,Cloud_Experiment_FR_REAL,001,03,
images/fcloud80-20_D1.9_8.tif,1.9,2,,,,,,,,,,,,,0,31,31,141,,,,,,,,,,,None,None,None,10.96,,,,,,2019_Jan_14_1608,59.47447750045573,Cloud_Experiment_FR_REAL,001,03,
images/fcloud80-20_D1.1_8.tif,1.1,2,,,,,,,,,,,,,0,32,32,109,,,,,,,,,,,None,None,None,19.352,,,,,,2019_Jan_14_1608,59.47447750045573,Cloud_Experiment_FR_REAL,001,03,
images/fcloud65-35_D1.8_8.tif,1.8,1,,,,,,,,,,,,,0,33,33,89,,,,,,,,,,,None,None,None,28.577,,,,,,2019_Jan_14_1608,59.47447750045573,Cloud_Experiment_FR_REAL,001,03,
images/fcloud65-35_D1.3_8.tif,1.3,1,,,,,,,,,,,,,0,34,34,69,,,,,,,,,,,None,None,None,38.403,,,,,,2019_Jan_14_1608,59.47447750045573,Cloud_Experiment_FR_REAL,001,03,
images/fcloud80-20_D0.8_8.tif,0.8,2,,,,,,,,,,,,,0,35,35,97,,,,,,,,,,,None,None,None,51.375,,,,,,2019_Jan_14_1608,59.47447750045573,Cloud_Experiment_FR_REAL,001,03,
images/fcloud65-35_D0.8_9.tif,0.8,1,,,,,,,,,,,,,0,36,36,50,,,,,,,,,,,None,None,None,61.399,,,,,,2019_Jan_14_1608,59.47447750045573,Cloud_Experiment_FR_REAL,001,03,
images/fcloud65-35_D1.7_9.tif,1.7,1,,,,,,,,,,,,,0,37,37,86,,,,,,,,,,,None,None,None,71.673,,,,,,2019_Jan_14_1608,59.47447750045573,Cloud_Experiment_FR_REAL,001,03,
images/fcloud_D1.4_10.tif,1.4,0,,,,,,,,,,,,,0,38,38,27,,,,,,,,,,,None,None,None,82.33,,,,,,2019_Jan_14_1608,59.47447750045573,Cloud_Experiment_FR_REAL,001,03,
images/fcloud_D1.3_7.tif,1.3,0,,,,,,,,,,,,,0,39,39,20,,,,,,,,,,,1,space,4,1.303,,,5.36413845571,,,2019_Jan_14_1608,59.47447750045573,Cloud_Experiment_FR_REAL,001,03,
images/fcloud_D0.8_7.tif,0.8,0,,,,,,,,,,,,,0,40,40,0,,,,,,,,,,,1,space,3,2.5,,,6.27938560079,,,2019_Jan_14_1608,59.47447750045573,Cloud_Experiment_FR_REAL,001,03,
images/fcloud65-35_D1.1_7.tif,1.1,1,,,,,,,,,,,,,0,41,41,60,,,,,,,,,,,None,None,None,12.908,,,,,,2019_Jan_14_1608,59.47447750045573,Cloud_Experiment_FR_REAL,001,03,
images/fcloud80-20_D1.3_7.tif,1.3,2,,,,,,,,,,,,,0,42,42,116,,,,,,,,,,,None,None,None,21.367,,,,,,2019_Jan_14_1608,59.47447750045573,Cloud_Experiment_FR_REAL,001,03,
images/fcloud65-35_D1.1_10.tif,1.1,1,,,,,,,,,,,,,0,43,43,63,,,,,,,,,,,None,None,None,31.175,,,,,,2019_Jan_14_1608,59.47447750045573,Cloud_Experiment_FR_REAL,001,03,
images/fcloud80-20_D1.2_10.tif,1.2,2,,,,,,,,,,,,,0,44,44,115,,,,,,,,,,,None,None,None,40.517,,,,,,2019_Jan_14_1608,59.47447750045573,Cloud_Experiment_FR_REAL,001,03,
images/fcloud80-20_D1.1_10.tif,1.1,2,,,,,,,,,,,,,0,45,45,111,,,,,,,,,,,None,None,None,49.876,,,,,,2019_Jan_14_1608,59.47447750045573,Cloud_Experiment_FR_REAL,001,03,
images/fcloud_D0.9_9.tif,0.9,0,,,,,,,,,,,,,0,46,46,6,,,,,,,,,,,1,space,2,1.069,,,4.05999336869,,,2019_Jan_14_1608,59.47447750045573,Cloud_Experiment_FR_REAL,001,03,
images/fcloud_D1.2_10.tif,1.2,0,,,,,,,,,,,,,0,47,47,19,,,,,,,,,,,2,space,3,0.652,,,6.16711380935,,,2019_Jan_14_1608,59.47447750045573,Cloud_Experiment_FR_REAL,001,03,
images/fcloud80-20_D1.9_10.tif,1.9,2,,,,,,,,,,,,,0,48,48,143,,,,,,,,,,,None,None,None,11.309,,,,,,2019_Jan_14_1608,59.47447750045573,Cloud_Experiment_FR_REAL,001,03,
images/fcloud80-20_D1.6_7.tif,1.6,2,,,,,,,,,,,,,0,49,49,128,,,,,,,,,,,None,None,None,20.151,,,,,,2019_Jan_14_1608,59.47447750045573,Cloud_Experiment_FR_REAL,001,03,
images/fcloud80-20_D1.5_10.tif,1.5,2,,,,,,,,,,,,,0,50,50,127,,,,,,,,,,,None,None,None,28.995,,,,,,2019_Jan_14_1608,59.47447750045573,Cloud_Experiment_FR_REAL,001,03,
images/fcloud65-35_D1.2_7.tif,1.2,1,,,,,,,,,,,,,0,51,51,64,,,,,,,,,,,2,space,2,1.468,,,7.29764793877,,,2019_Jan_14_1608,59.47447750045573,Cloud_Experiment_FR_REAL,001,03,
images/fcloud80-20_D1.7_7.tif,1.7,2,,,,,,,,,,,,,0,52,52,132,,,,,,,,,,,None,None,None,11.774,,,,,,2019_Jan_14_1608,59.47447750045573,Cloud_Experiment_FR_REAL,001,03,
images/fcloud65-35_D0.9_10.tif,0.9,1,,,,,,,,,,,,,0,53,53,55,,,,,,,,,,,None,None,None,22.083,,,,,,2019_Jan_14_1608,59.47447750045573,Cloud_Experiment_FR_REAL,001,03,
images/fcloud65-35_D1.5_10.tif,1.5,1,,,,,,,,,,,,,0,54,54,79,,,,,,,,,,,None,None,None,39.001,,,,,,2019_Jan_14_1608,59.47447750045573,Cloud_Experiment_FR_REAL,001,03,
images/fcloud_D1.6_9.tif,1.6,0,,,,,,,,,,,,,0,55,55,34,,,,,,,,,,,1,space,2,1.002,,,3.78621405785,,,2019_Jan_14_1608,59.47447750045573,Cloud_Experiment_FR_REAL,001,03,
images/fcloud65-35_D1.5_9.tif,1.5,1,,,,,,,,,,,,,0,56,56,78,,,,,,,,,,,1,space,2,0.936,,,8.16507969148,,,2019_Jan_14_1608,59.47447750045573,Cloud_Experiment_FR_REAL,001,03,
images/fcloud_D1.2_7.tif,1.2,0,,,,,,,,,,,,,0,57,57,16,,,,,,,,,,,None,None,None,10.526,,,,,,2019_Jan_14_1608,59.47447750045573,Cloud_Experiment_FR_REAL,001,03,
images/fcloud65-35_D1.4_8.tif,1.4,1,,,,,,,,,,,,,0,58,58,73,,,,,,,,,,,None,None,None,19.683,,,,,,2019_Jan_14_1608,59.47447750045573,Cloud_Experiment_FR_REAL,001,03,
images/fcloud80-20_D1.6_8.tif,1.6,2,,,,,,,,,,,,,0,59,59,129,,,,,,,,,,,None,None,None,29.259,,,,,,2019_Jan_14_1608,59.47447750045573,Cloud_Experiment_FR_REAL,001,03,
images/fcloud80-20_D1.6_10.tif,1.6,2,,,,,,,,,,,,,0,60,60,131,,,,,,,,,,,None,None,None,40.166,,,,,,2019_Jan_14_1608,59.47447750045573,Cloud_Experiment_FR_REAL,001,03,
images/fcloud_D1.5_7.tif,1.5,0,,,,,,,,,,,,,0,61,61,28,,,,,,,,,,,None,None,None,49.477,,,,,,2019_Jan_14_1608,59.47447750045573,Cloud_Experiment_FR_REAL,001,03,
images/fcloud_D1.1_7.tif,1.1,0,,,,,,,,,,,,,0,62,62,12,,,,,,,,,,,None,None,None,58.751,,,,,,2019_Jan_14_1608,59.47447750045573,Cloud_Experiment_FR_REAL,001,03,
images/fcloud65-35_D1.8_9.tif,1.8,1,,,,,,,,,,,,,0,63,63,90,,,,,,,,,,,None,None,None,68.091,,,,,,2019_Jan_14_1608,59.47447750045573,Cloud_Experiment_FR_REAL,001,03,
images/fcloud_D0.9_8.tif,0.9,0,,,,,,,,,,,,,0,64,64,5,,,,,,,,,,,None,None,None,77.516,,,,,,2019_Jan_14_1608,59.47447750045573,Cloud_Experiment_FR_REAL,001,03,
images/fcloud80-20_D1.7_8.tif,1.7,2,,,,,,,,,,,,,0,65,65,133,,,,,,,,,,,None,None,None,86.993,,,,,,2019_Jan_14_1608,59.47447750045573,Cloud_Experiment_FR_REAL,001,03,
images/fcloud65-35_D0.8_8.tif,0.8,1,,,,,,,,,,,,,0,66,66,49,,,,,,,,,,,2,space,2,2.351,,,6.39801368929,,,2019_Jan_14_1608,59.47447750045573,Cloud_Experiment_FR_REAL,001,03,
images/fcloud_D1_9.tif,1.0,0,,,,,,,,,,,,,0,67,67,10,,,,,,,,,,,None,None,None,11.424,,,,,,2019_Jan_14_1608,59.47447750045573,Cloud_Experiment_FR_REAL,001,03,
images/fcloud65-35_D1.9_9.tif,1.9,1,,,,,,,,,,,,,0,68,68,94,,,,,,,,,,,None,None,None,20.766,,,,,,2019_Jan_14_1608,59.47447750045573,Cloud_Experiment_FR_REAL,001,03,
images/fcloud65-35_D0.9_7.tif,0.9,1,,,,,,,,,,,,,0,69,69,52,,,,,,,,,,,None,None,None,28.814,,,,,,2019_Jan_14_1608,59.47447750045573,Cloud_Experiment_FR_REAL,001,03,
images/fcloud_D1.5_8.tif,1.5,0,,,,,,,,,,,,,0,70,70,29,,,,,,,,,,,1,None,3,1.952,,,,,,2019_Jan_14_1608,59.47447750045573,Cloud_Experiment_FR_REAL,001,03,
images/fcloud80-20_D0.9_10.tif,0.9,2,,,,,,,,,,,,,0,71,71,103,,,,,,,,,,,None,None,None,17.337,,,,,,2019_Jan_14_1608,59.47447750045573,Cloud_Experiment_FR_REAL,001,03,
images/fcloud_D1_10.tif,1.0,0,,,,,,,,,,,,,0,72,72,11,,,,,,,,,,,None,None,None,26.994,,,,,,2019_Jan_14_1608,59.47447750045573,Cloud_Experiment_FR_REAL,001,03,
images/fcloud65-35_D1.7_10.tif,1.7,1,,,,,,,,,,,,,0,73,73,87,,,,,,,,,,,None,None,None,36.385,,,,,,2019_Jan_14_1608,59.47447750045573,Cloud_Experiment_FR_REAL,001,03,
images/fcloud65-35_D1.6_8.tif,1.6,1,,,,,,,,,,,,,0,74,74,81,,,,,,,,,,,None,None,None,45.712,,,,,,2019_Jan_14_1608,59.47447750045573,Cloud_Experiment_FR_REAL,001,03,
images/fcloud80-20_D1.1_7.tif,1.1,2,,,,,,,,,,,,,0,75,75,108,,,,,,,,,,,None,None,None,54.637,,,,,,2019_Jan_14_1608,59.47447750045573,Cloud_Experiment_FR_REAL,001,03,
images/fcloud65-35_D1.6_7.tif,1.6,1,,,,,,,,,,,,,0,76,76,80,,,,,,,,,,,None,None,None,64.213,,,,,,2019_Jan_14_1608,59.47447750045573,Cloud_Experiment_FR_REAL,001,03,
images/fcloud_D1.7_9.tif,1.7,0,,,,,,,,,,,,,0,77,77,38,,,,,,,,,,,2,space,2,1.235,,,6.32925978568,,,2019_Jan_14_1608,59.47447750045573,Cloud_Experiment_FR_REAL,001,03,
images/fcloud_D1.6_7.tif,1.6,0,,,,,,,,,,,,,0,78,78,32,,,,,,,,,,,3,None,2,1.337,,,,,,2019_Jan_14_1608,59.47447750045573,Cloud_Experiment_FR_REAL,001,03,
images/fcloud65-35_D0.8_10.tif,0.8,1,,,,,,,,,,,,,0,79,79,51,,,,,,,,,,,None,None,None,10.909,,,,,,2019_Jan_14_1608,59.47447750045573,Cloud_Experiment_FR_REAL,001,03,
images/fcloud65-35_D1.6_9.tif,1.6,1,,,,,,,,,,,,,0,80,80,82,,,,,,,,,,,1,space,1,2.117,,,5.27624934778,,,2019_Jan_14_1608,59.47447750045573,Cloud_Experiment_FR_REAL,001,03,
images/fcloud65-35_D1.1_9.tif,1.1,1,,,,,,,,,,,,,0,81,81,62,,,,,,,,,,,1,space,1,1.285,,,7.52196996374,,,2019_Jan_14_1608,59.47447750045573,Cloud_Experiment_FR_REAL,001,03,
images/fcloud80-20_D1_10.tif,1.0,2,,,,,,,,,,,,,0,82,82,107,,,,,,,,,,,None,None,None,11.126,,,,,,2019_Jan_14_1608,59.47447750045573,Cloud_Experiment_FR_REAL,001,03,
images/fcloud80-20_D1.1_9.tif,1.1,2,,,,,,,,,,,,,0,83,83,110,,,,,,,,,,,None,None,None,20.217,,,,,,2019_Jan_14_1608,59.47447750045573,Cloud_Experiment_FR_REAL,001,03,
images/fcloud_D1.3_8.tif,1.3,0,,,,,,,,,,,,,0,84,84,21,,,,,,,,,,,None,None,None,29.876,,,,,,2019_Jan_14_1608,59.47447750045573,Cloud_Experiment_FR_REAL,001,03,
images/fcloud80-20_D0.8_10.tif,0.8,2,,,,,,,,,,,,,0,85,85,99,,,,,,,,,,,None,None,None,38.668,,,,,,2019_Jan_14_1608,59.47447750045573,Cloud_Experiment_FR_REAL,001,03,
images/fcloud80-20_D0.9_9.tif,0.9,2,,,,,,,,,,,,,0,86,86,102,,,,,,,,,,,None,None,None,47.16,,,,,,2019_Jan_14_1608,59.47447750045573,Cloud_Experiment_FR_REAL,001,03,
images/fcloud_D1.1_8.tif,1.1,0,,,,,,,,,,,,,0,87,87,13,,,,,,,,,,,1,None,2,1.868,,,,,,2019_Jan_14_1608,59.47447750045573,Cloud_Experiment_FR_REAL,001,03,
images/fcloud_D1.2_9.tif,1.2,0,,,,,,,,,,,,,0,88,88,18,,,,,,,,,,,2,space,3,2.25,,,3.04625934619,,,2019_Jan_14_1608,59.47447750045573,Cloud_Experiment_FR_REAL,001,03,
images/fcloud80-20_D1.2_7.tif,1.2,2,,,,,,,,,,,,,0,89,89,112,,,,,,,,,,,1,None,4,1.552,,,,,,2019_Jan_14_1608,59.47447750045573,Cloud_Experiment_FR_REAL,001,03,
images/fcloud65-35_D1.5_7.tif,1.5,1,,,,,,,,,,,,,0,90,90,76,,,,,,,,,,,None,None,None,10.943,,,,,,2019_Jan_14_1608,59.47447750045573,Cloud_Experiment_FR_REAL,001,03,
images/fcloud80-20_D1.3_8.tif,1.3,2,,,,,,,,,,,,,0,91,91,117,,,,,,,,,,,1,space,2,0.786,,,3.18134955008,,,2019_Jan_14_1608,59.47447750045573,Cloud_Experiment_FR_REAL,001,03,
images/fcloud_D1.8_7.tif,1.8,0,,,,,,,,,,,,,0,92,92,40,,,,,,,,,,,None,None,None,10.259,,,,,,2019_Jan_14_1608,59.47447750045573,Cloud_Experiment_FR_REAL,001,03,
images/fcloud_D1.2_8.tif,1.2,0,,,,,,,,,,,,,0,93,93,17,,,,,,,,,,,None,None,None,19.868,,,,,,2019_Jan_14_1608,59.47447750045573,Cloud_Experiment_FR_REAL,001,03,
images/fcloud65-35_D1.7_8.tif,1.7,1,,,,,,,,,,,,,0,94,94,85,,,,,,,,,,,2,space,2,2.619,,,7.16187455499,,,2019_Jan_14_1608,59.47447750045573,Cloud_Experiment_FR_REAL,001,03,
images/fcloud_D0.9_10.tif,0.9,0,,,,,,,,,,,,,0,95,95,7,,,,,,,,,,,None,None,None,12.158,,,,,,2019_Jan_14_1608,59.47447750045573,Cloud_Experiment_FR_REAL,001,03,
images/fcloud_D1.5_10.tif,1.5,0,,,,,,,,,,,,,0,96,96,31,,,,,,,,,,,None,None,None,21.666,,,,,,2019_Jan_14_1608,59.47447750045573,Cloud_Experiment_FR_REAL,001,03,
images/fcloud_D1.7_8.tif,1.7,0,,,,,,,,,,,,,0,97,97,37,,,,,,,,,,,None,None,None,31.091,,,,,,2019_Jan_14_1608,59.47447750045573,Cloud_Experiment_FR_REAL,001,03,
images/fcloud80-20_D1_8.tif,1.0,2,,,,,,,,,,,,,0,98,98,105,,,,,,,,,,,None,None,None,40.265,,,,,,2019_Jan_14_1608,59.47447750045573,Cloud_Experiment_FR_REAL,001,03,
images/fcloud65-35_D1.5_8.tif,1.5,1,,,,,,,,,,,,,0,99,99,77,,,,,,,,,,,None,None,None,49.858,,,,,,2019_Jan_14_1608,59.47447750045573,Cloud_Experiment_FR_REAL,001,03,
images/fcloud80-20_D1.3_9.tif,1.3,2,,,,,,,,,,,,,0,100,100,118,,,,,,,,,,,None,None,None,59.4,,,,,,2019_Jan_14_1608,59.47447750045573,Cloud_Experiment_FR_REAL,001,03,
images/fcloud_D1.1_10.tif,1.1,0,,,,,,,,,,,,,0,101,101,15,,,,,,,,,,,None,None,None,68.941,,,,,,2019_Jan_14_1608,59.47447750045573,Cloud_Experiment_FR_REAL,001,03,
images/fcloud65-35_D1.3_7.tif,1.3,1,,,,,,,,,,,,,0,102,102,68,,,,,,,,,,,None,None,None,78.549,,,,,,2019_Jan_14_1608,59.47447750045573,Cloud_Experiment_FR_REAL,001,03,
images/fcloud65-35_D0.9_8.tif,0.9,1,,,,,,,,,,,,,0,103,103,53,,,,,,,,,,,1,space,5,1.302,,,3.49610937046,,,2019_Jan_14_1608,59.47447750045573,Cloud_Experiment_FR_REAL,001,03,
images/fcloud80-20_D1.5_7.tif,1.5,2,,,,,,,,,,,,,0,104,104,124,,,,,,,,,,,1,None,1,1.069,,,,,,2019_Jan_14_1608,59.47447750045573,Cloud_Experiment_FR_REAL,001,03,
images/fcloud65-35_D1.2_9.tif,1.2,1,,,,,,,,,,,,,0,105,105,66,,,,,,,,,,,None,None,None,10.662,,,,,,2019_Jan_14_1608,59.47447750045573,Cloud_Experiment_FR_REAL,001,03,
images/fcloud80-20_D1.8_7.tif,1.8,2,,,,,,,,,,,,,0,106,106,136,,,,,,,,,,,None,None,None,20.202,,,,,,2019_Jan_14_1608,59.47447750045573,Cloud_Experiment_FR_REAL,001,03,
images/fcloud65-35_D1.4_9.tif,1.4,1,,,,,,,,,,,,,0,107,107,74,,,,,,,,,,,1,space,1,1.451,,,6.28639115003,,,2019_Jan_14_1608,59.47447750045573,Cloud_Experiment_FR_REAL,001,03,
images/fcloud80-20_D0.8_7.tif,0.8,2,,,,,,,,,,,,,0,108,108,96,,,,,,,,,,,None,None,None,12.707,,,,,,2019_Jan_14_1608,59.47447750045573,Cloud_Experiment_FR_REAL,001,03,
images/fcloud_D0.8_10.tif,0.8,0,,,,,,,,,,,,,0,109,109,3,,,,,,,,,,,1,space,1,1.002,,,7.13738546197,,,2019_Jan_14_1608,59.47447750045573,Cloud_Experiment_FR_REAL,001,03,
images/fcloud_D1.4_8.tif,1.4,0,,,,,,,,,,,,,0,110,110,25,,,,,,,,,,,None,None,None,10.825,,,,,,2019_Jan_14_1608,59.47447750045573,Cloud_Experiment_FR_REAL,001,03,
images/fcloud65-35_D1.8_10.tif,1.8,1,,,,,,,,,,,,,0,111,111,91,,,,,,,,,,,None,None,None,20.284,,,,,,2019_Jan_14_1608,59.47447750045573,Cloud_Experiment_FR_REAL,001,03,
images/fcloud80-20_D1.2_8.tif,1.2,2,,,,,,,,,,,,,0,112,112,113,,,,,,,,,,,None,None,None,29.811,,,,,,2019_Jan_14_1608,59.47447750045573,Cloud_Experiment_FR_REAL,001,03,
images/fcloud65-35_D1.2_8.tif,1.2,1,,,,,,,,,,,,,0,113,113,65,,,,,,,,,,,None,None,None,39.399,,,,,,2019_Jan_14_1608,59.47447750045573,Cloud_Experiment_FR_REAL,001,03,
images/fcloud80-20_D1.8_10.tif,1.8,2,,,,,,,,,,,,,0,114,114,139,,,,,,,,,,,1,space,1,1.254,,,4.06460084871,,,2019_Jan_14_1608,59.47447750045573,Cloud_Experiment_FR_REAL,001,03,
images/fcloud65-35_D1.8_7.tif,1.8,1,,,,,,,,,,,,,0,115,115,88,,,,,,,,,,,None,None,None,11.958,,,,,,2019_Jan_14_1608,59.47447750045573,Cloud_Experiment_FR_REAL,001,03,
images/fcloud_D0.8_8.tif,0.8,0,,,,,,,,,,,,,0,116,116,1,,,,,,,,,,,1,space,5,0.868,,,4.38667825004,,,2019_Jan_14_1608,59.47447750045573,Cloud_Experiment_FR_REAL,001,03,
images/fcloud80-20_D1.8_9.tif,1.8,2,,,,,,,,,,,,,0,117,117,138,,,,,,,,,,,None,None,None,9.459,,,,,,2019_Jan_14_1608,59.47447750045573,Cloud_Experiment_FR_REAL,001,03,
images/fcloud65-35_D1_9.tif,1.0,1,,,,,,,,,,,,,0,118,118,58,,,,,,,,,,,None,None,None,18.769,,,,,,2019_Jan_14_1608,59.47447750045573,Cloud_Experiment_FR_REAL,001,03,
images/fcloud65-35_D1.9_8.tif,1.9,1,,,,,,,,,,,,,0,119,119,93,,,,,,,,,,,None,None,None,28.612,,,,,,2019_Jan_14_1608,59.47447750045573,Cloud_Experiment_FR_REAL,001,03,
images/fcloud80-20_D0.8_9.tif,0.8,2,,,,,,,,,,,,,0,120,120,98,,,,,,,,,,,None,None,None,38.069,,,,,,2019_Jan_14_1608,59.47447750045573,Cloud_Experiment_FR_REAL,001,03,
images/fcloud80-20_D1.4_10.tif,1.4,2,,,,,,,,,,,,,0,121,121,123,,,,,,,,,,,None,None,None,48.427,,,,,,2019_Jan_14_1608,59.47447750045573,Cloud_Experiment_FR_REAL,001,03,
images/fcloud65-35_D1.1_8.tif,1.1,1,,,,,,,,,,,,,0,122,122,61,,,,,,,,,,,None,None,None,58.185,,,,,,2019_Jan_14_1608,59.47447750045573,Cloud_Experiment_FR_REAL,001,03,
images/fcloud65-35_D1_8.tif,1.0,1,,,,,,,,,,,,,0,123,123,57,,,,,,,,,,,None,None,None,69.058,,,,,,2019_Jan_14_1608,59.47447750045573,Cloud_Experiment_FR_REAL,001,03,
images/fcloud80-20_D1.7_10.tif,1.7,2,,,,,,,,,,,,,0,124,124,135,,,,,,,,,,,None,None,None,142.329,,,,,,2019_Jan_14_1608,59.47447750045573,Cloud_Experiment_FR_REAL,001,03,
images/fcloud65-35_D1.2_10.tif,1.2,1,,,,,,,,,,,,,0,125,125,67,,,,,,,,,,,1,space,2,0.518,,,4.92685297751,,,2019_Jan_14_1608,59.47447750045573,Cloud_Experiment_FR_REAL,001,03,
images/fcloud65-35_D1.7_7.tif,1.7,1,,,,,,,,,,,,,0,126,126,84,,,,,,,,,,,None,None,None,9.96,,,,,,2019_Jan_14_1608,59.47447750045573,Cloud_Experiment_FR_REAL,001,03,
images/fcloud65-35_D1_10.tif,1.0,1,,,,,,,,,,,,,0,127,127,59,,,,,,,,,,,None,None,None,19.435,,,,,,2019_Jan_14_1608,59.47447750045573,Cloud_Experiment_FR_REAL,001,03,
images/fcloud_D1.8_9.tif,1.8,0,,,,,,,,,,,,,0,128,128,42,,,,,,,,,,,None,None,None,29.026,,,,,,2019_Jan_14_1608,59.47447750045573,Cloud_Experiment_FR_REAL,001,03,
images/fcloud_D0.9_7.tif,0.9,0,,,,,,,,,,,,,0,129,129,4,,,,,,,,,,,1,space,4,1.036,,,2.68991602902,,,2019_Jan_14_1608,59.47447750045573,Cloud_Experiment_FR_REAL,001,03,
images/fcloud80-20_D1.9_9.tif,1.9,2,,,,,,,,,,,,,0,130,130,142,,,,,,,,,,,1,space,1,1.17,,,4.09232951989,,,2019_Jan_14_1608,59.47447750045573,Cloud_Experiment_FR_REAL,001,03,
images/fcloud_D1.7_10.tif,1.7,0,,,,,,,,,,,,,0,131,131,39,,,,,,,,,,,1,space,1,1.302,,,4.72545988695,,,2019_Jan_14_1608,59.47447750045573,Cloud_Experiment_FR_REAL,001,03,
images/fcloud65-35_D1_7.tif,1.0,1,,,,,,,,,,,,,0,132,132,56,,,,,,,,,,,None,None,None,11.16,,,,,,2019_Jan_14_1608,59.47447750045573,Cloud_Experiment_FR_REAL,001,03,
images/fcloud80-20_D1.8_8.tif,1.8,2,,,,,,,,,,,,,0,133,133,137,,,,,,,,,,,None,None,None,20.684,,,,,,2019_Jan_14_1608,59.47447750045573,Cloud_Experiment_FR_REAL,001,03,
images/fcloud_D1.1_9.tif,1.1,0,,,,,,,,,,,,,0,134,134,14,,,,,,,,,,,2,space,5,1.735,,,3.63121396792,,,2019_Jan_14_1608,59.47447750045573,Cloud_Experiment_FR_REAL,001,03,
images/fcloud_D0.8_9.tif,0.8,0,,,,,,,,,,,,,0,135,135,2,,,,,,,,,,,None,None,None,11.426,,,,,,2019_Jan_14_1608,59.47447750045573,Cloud_Experiment_FR_REAL,001,03,
images/fcloud_D1.3_9.tif,1.3,0,,,,,,,,,,,,,0,136,136,22,,,,,,,,,,,None,None,None,19.867,,,,,,2019_Jan_14_1608,59.47447750045573,Cloud_Experiment_FR_REAL,001,03,
images/fcloud80-20_D1.4_8.tif,1.4,2,,,,,,,,,,,,,0,137,137,121,,,,,,,,,,,None,None,None,45.279,,,,,,2019_Jan_14_1608,59.47447750045573,Cloud_Experiment_FR_REAL,001,03,
images/fcloud80-20_D1_7.tif,1.0,2,,,,,,,,,,,,,0,138,138,104,,,,,,,,,,,None,None,None,54.97,,,,,,2019_Jan_14_1608,59.47447750045573,Cloud_Experiment_FR_REAL,001,03,
images/fcloud65-35_D1.9_10.tif,1.9,1,,,,,,,,,,,,,0,139,139,95,,,,,,,,,,,None,None,None,64.879,,,,,,2019_Jan_14_1608,59.47447750045573,Cloud_Experiment_FR_REAL,001,03,
images/fcloud65-35_D1.3_9.tif,1.3,1,,,,,,,,,,,,,0,140,140,70,,,,,,,,,,,None,None,None,74.387,,,,,,2019_Jan_14_1608,59.47447750045573,Cloud_Experiment_FR_REAL,001,03,
images/fcloud_D1.8_8.tif,1.8,0,,,,,,,,,,,,,0,141,141,41,,,,,,,,,,,None,None,None,83.699,,,,,,2019_Jan_14_1608,59.47447750045573,Cloud_Experiment_FR_REAL,001,03,
images/fcloud80-20_D1.2_9.tif,1.2,2,,,,,,,,,,,,,0,142,142,114,,,,,,,,,,,None,None,None,92.987,,,,,,2019_Jan_14_1608,59.47447750045573,Cloud_Experiment_FR_REAL,001,03,
images/fcloud80-20_D1.6_9.tif,1.6,2,,,,,,,,,,,,,0,143,143,130,,,,,,,,,,,None,None,None,102.329,,,,,,2019_Jan_14_1608,59.47447750045573,Cloud_Experiment_FR_REAL,001,03,
,,,,,,,,,,,,,,,,,,,,,,,,,5,4.965,,,,,,,,,,,,2019_Jan_14_1608,59.47447750045573,Cloud_Experiment_FR_REAL,001,03,
