ImageFile,FD,Contrast,trials_4.thisRepN,trials_4.thisTrialN,trials_4.thisN,trials_4.thisIndex,trials.thisRepN,trials.thisTrialN,trials.thisN,trials.thisIndex,trials_2.thisRepN,trials_2.thisTrialN,trials_2.thisN,trials_2.thisIndex,trials_3.thisRepN,trials_3.thisTrialN,trials_3.thisN,trials_3.thisIndex,end_instructions.keys,end_instructions.rt,key_resp_4.keys,key_resp_4.rt,key_resp_6.keys,key_resp_6.rt,Fatigue.response,Fatigue.rt,key_resp_5.keys,key_resp_5.rt,n_objets.response,reaction_time.keys,vividness.response,vividness.rt,reaction_time.rt,key_resp_2.keys,key_resp_2.rt,key_resp_3.keys,key_resp_3.rt,date,frameRate,expName,session,participant,
,,,,,,,,,,,,,,,,,,,space,10.6062889558,,,,,,,,,,,,,,,,,,2019_Jan_15_1804,60.66010582633617,Cloud_Experiment_FR_REAL,001,04,
,,,,,,,,,,,,,,,,,,,,,space,131.018406274,,,,,,,,,,,,,,,,2019_Jan_15_1804,60.66010582633617,Cloud_Experiment_FR_REAL,001,04,
,,,,,,,,,,,,,,,,,,,,,,,space,12.3584170173,,,,,,,,,,,,,,2019_Jan_15_1804,60.66010582633617,Cloud_Experiment_FR_REAL,001,04,
,,,,,,,,,,,,,,,,,,,,,,,,,8,12.402,,,,,,,,,,,,2019_Jan_15_1804,60.66010582633617,Cloud_Experiment_FR_REAL,001,04,
,,,,,,,,,,,,,,,,,,,,,,,,,,,space,85.6796595924,,,,,,,,,,2019_Jan_15_1804,60.66010582633617,Cloud_Experiment_FR_REAL,001,04,
pratique/fcloud_D1.4_30,1.4,0,0,0,0,1,,,,,,,,,,,,,,,,,,,,,,,None,None,None,277.204,,,,,,2019_Jan_15_1804,60.66010582633617,Cloud_Experiment_FR_REAL,001,04,
pratique/fcloud65-35_D1.2_30,1.2,1,0,1,1,3,,,,,,,,,,,,,,,,,,,,,,,1,None,2,11.976,,,,,,2019_Jan_15_1804,60.66010582633617,Cloud_Experiment_FR_REAL,001,04,
pratique/fcloud80-20_D1.8_30,1.8,2,0,2,2,4,,,,,,,,,,,,,,,,,,,,,,,1,space,4,2.383,5.94336701251,,,,,2019_Jan_15_1804,60.66010582633617,Cloud_Experiment_FR_REAL,001,04,
pratique/fcloud_D0.8_30,0.8,0,0,3,3,0,,,,,,,,,,,,,,,,,,,,,,,1,space,5,2.182,6.51544865486,,,,,2019_Jan_15_1804,60.66010582633617,Cloud_Experiment_FR_REAL,001,04,
pratique/fcloud65-35_D1.6_30,1.6,1,0,4,4,2,,,,,,,,,,,,,,,,,,,,,,,2,space,2,4.348,6.12802553829,,,,,2019_Jan_15_1804,60.66010582633617,Cloud_Experiment_FR_REAL,001,04,
,,,,,,,,,,,,,,,,,,,,,,,,,,,,,,,,,,space,115.649021881,,,2019_Jan_15_1804,60.66010582633617,Cloud_Experiment_FR_REAL,001,04,
images/fcloud80-20_D0.8_1.tif,0.8,2,,,,,0,0,0,72,,,,,,,,,,,,,,,,,,,1,None,2,3.634,,,,,,2019_Jan_15_1804,60.66010582633617,Cloud_Experiment_FR_REAL,001,04,
images/fcloud80-20_D1.4_1.tif,1.4,2,,,,,0,1,1,90,,,,,,,,,,,,,,,,,,,2,space,2,3.216,8.00130621518,,,,,2019_Jan_15_1804,60.66010582633617,Cloud_Experiment_FR_REAL,001,04,
images/fcloud80-20_D1.9_1.tif,1.9,2,,,,,0,2,2,105,,,,,,,,,,,,,,,,,,,None,None,None,14.356,,,,,,2019_Jan_15_1804,60.66010582633617,Cloud_Experiment_FR_REAL,001,04,
images/fcloud80-20_D0.9_2.tif,0.9,2,,,,,0,3,3,76,,,,,,,,,,,,,,,,,,,1,None,3,1.568,,,,,,2019_Jan_15_1804,60.66010582633617,Cloud_Experiment_FR_REAL,001,04,
images/fcloud_D1.1_2.tif,1.1,0,,,,,0,4,4,10,,,,,,,,,,,,,,,,,,,3,space,4,1.851,4.42961114267,,,,,2019_Jan_15_1804,60.66010582633617,Cloud_Experiment_FR_REAL,001,04,
images/fcloud_D0.9_1.tif,0.9,0,,,,,0,5,5,3,,,,,,,,,,,,,,,,,,,2,space,3,2.934,7.29888167212,,,,,2019_Jan_15_1804,60.66010582633617,Cloud_Experiment_FR_REAL,001,04,
images/fcloud_D1.4_3.tif,1.4,0,,,,,0,6,6,20,,,,,,,,,,,,,,,,,,,3,space,4,1.718,5.33365136237,,,,,2019_Jan_15_1804,60.66010582633617,Cloud_Experiment_FR_REAL,001,04,
images/fcloud_D1.4_2.tif,1.4,0,,,,,0,7,7,19,,,,,,,,,,,,,,,,,,,1,space,2,2.617,11.3996560968,,,,,2019_Jan_15_1804,60.66010582633617,Cloud_Experiment_FR_REAL,001,04,
images/fcloud80-20_D1_1.tif,1.0,2,,,,,0,8,8,78,,,,,,,,,,,,,,,,,,,None,None,None,12.293,,,,,,2019_Jan_15_1804,60.66010582633617,Cloud_Experiment_FR_REAL,001,04,
images/fcloud80-20_D1_2.tif,1.0,2,,,,,0,9,9,79,,,,,,,,,,,,,,,,,,,None,None,None,21.832,,,,,,2019_Jan_15_1804,60.66010582633617,Cloud_Experiment_FR_REAL,001,04,
images/fcloud_D1.8_1.tif,1.8,0,,,,,0,10,10,30,,,,,,,,,,,,,,,,,,,1,space,2,0.901,5.84406330081,,,,,2019_Jan_15_1804,60.66010582633617,Cloud_Experiment_FR_REAL,001,04,
images/fcloud65-35_D1.2_1.tif,1.2,1,,,,,0,11,11,48,,,,,,,,,,,,,,,,,,,None,None,None,10.243,,,,,,2019_Jan_15_1804,60.66010582633617,Cloud_Experiment_FR_REAL,001,04,
images/fcloud_D1.8_2.tif,1.8,0,,,,,0,12,12,31,,,,,,,,,,,,,,,,,,,None,None,None,19.5,,,,,,2019_Jan_15_1804,60.66010582633617,Cloud_Experiment_FR_REAL,001,04,
images/fcloud80-20_D1.6_3.tif,1.6,2,,,,,0,13,13,98,,,,,,,,,,,,,,,,,,,1,None,2,1.686,,,,,,2019_Jan_15_1804,60.66010582633617,Cloud_Experiment_FR_REAL,001,04,
images/fcloud_D1.5_1.tif,1.5,0,,,,,0,14,14,21,,,,,,,,,,,,,,,,,,,1,None,5,1.271,,,,,,2019_Jan_15_1804,60.66010582633617,Cloud_Experiment_FR_REAL,001,04,
images/fcloud65-35_D1.6_2.tif,1.6,1,,,,,0,15,15,61,,,,,,,,,,,,,,,,,,,1,None,3,1.518,,,,,,2019_Jan_15_1804,60.66010582633617,Cloud_Experiment_FR_REAL,001,04,
images/fcloud_D1_1.tif,1.0,0,,,,,0,16,16,6,,,,,,,,,,,,,,,,,,,2,space,4,2.683,7.19077578696,,,,,2019_Jan_15_1804,60.66010582633617,Cloud_Experiment_FR_REAL,001,04,
images/fcloud_D1.9_1.tif,1.9,0,,,,,0,17,17,33,,,,,,,,,,,,,,,,,,,1,space,4,2.068,3.41249566266,,,,,2019_Jan_15_1804,60.66010582633617,Cloud_Experiment_FR_REAL,001,04,
images/fcloud_D0.8_1.tif,0.8,0,,,,,0,18,18,0,,,,,,,,,,,,,,,,,,,2,space,4,0.89,4.28769479494,,,,,2019_Jan_15_1804,60.66010582633617,Cloud_Experiment_FR_REAL,001,04,
images/fcloud80-20_D1.7_3.tif,1.7,2,,,,,0,19,19,101,,,,,,,,,,,,,,,,,,,1,None,1,1.001,,,,,,2019_Jan_15_1804,60.66010582633617,Cloud_Experiment_FR_REAL,001,04,
images/fcloud_D1.3_2.tif,1.3,0,,,,,0,20,20,16,,,,,,,,,,,,,,,,,,,1,space,4,1.37,7.22672266446,,,,,2019_Jan_15_1804,60.66010582633617,Cloud_Experiment_FR_REAL,001,04,
images/fcloud_D0.9_3.tif,0.9,0,,,,,0,21,21,5,,,,,,,,,,,,,,,,,,,1,space,5,3.553,6.6161007343,,,,,2019_Jan_15_1804,60.66010582633617,Cloud_Experiment_FR_REAL,001,04,
images/fcloud65-35_D1.5_3.tif,1.5,1,,,,,0,22,22,59,,,,,,,,,,,,,,,,,,,1,space,3,1.918,7.59516582149,,,,,2019_Jan_15_1804,60.66010582633617,Cloud_Experiment_FR_REAL,001,04,
images/fcloud65-35_D1.2_3.tif,1.2,1,,,,,0,23,23,50,,,,,,,,,,,,,,,,,,,1,space,4,0.819,7.09490493828,,,,,2019_Jan_15_1804,60.66010582633617,Cloud_Experiment_FR_REAL,001,04,
images/fcloud_D1.3_1.tif,1.3,0,,,,,0,24,24,15,,,,,,,,,,,,,,,,,,,None,None,None,10.345,,,,,,2019_Jan_15_1804,60.66010582633617,Cloud_Experiment_FR_REAL,001,04,
images/fcloud65-35_D1.9_1.tif,1.9,1,,,,,0,25,25,69,,,,,,,,,,,,,,,,,,,1,space,3,2.15,5.14088977879,,,,,2019_Jan_15_1804,60.66010582633617,Cloud_Experiment_FR_REAL,001,04,
images/fcloud80-20_D1.6_1.tif,1.6,2,,,,,0,26,26,96,,,,,,,,,,,,,,,,,,,None,None,None,11.011,,,,,,2019_Jan_15_1804,60.66010582633617,Cloud_Experiment_FR_REAL,001,04,
images/fcloud65-35_D1.4_2.tif,1.4,1,,,,,0,27,27,55,,,,,,,,,,,,,,,,,,,1,None,1,0.754,,,,,,2019_Jan_15_1804,60.66010582633617,Cloud_Experiment_FR_REAL,001,04,
images/fcloud65-35_D1.5_2.tif,1.5,1,,,,,0,28,28,58,,,,,,,,,,,,,,,,,,,1,None,2,1.17,,,,,,2019_Jan_15_1804,60.66010582633617,Cloud_Experiment_FR_REAL,001,04,
images/fcloud_D1_3.tif,1.0,0,,,,,0,29,29,8,,,,,,,,,,,,,,,,,,,2,space,4,1.384,1.75462842779,,,,,2019_Jan_15_1804,60.66010582633617,Cloud_Experiment_FR_REAL,001,04,
images/fcloud65-35_D0.8_1.tif,0.8,1,,,,,0,30,30,36,,,,,,,,,,,,,,,,,,,None,None,None,11.442,,,,,,2019_Jan_15_1804,60.66010582633617,Cloud_Experiment_FR_REAL,001,04,
images/fcloud80-20_D1.5_3.tif,1.5,2,,,,,0,31,31,95,,,,,,,,,,,,,,,,,,,None,None,None,20.635,,,,,,2019_Jan_15_1804,60.66010582633617,Cloud_Experiment_FR_REAL,001,04,
images/fcloud80-20_D1.2_1.tif,1.2,2,,,,,0,32,32,84,,,,,,,,,,,,,,,,,,,2,space,4,1.185,3.58072600068,,,,,2019_Jan_15_1804,60.66010582633617,Cloud_Experiment_FR_REAL,001,04,
images/fcloud80-20_D1.5_1.tif,1.5,2,,,,,0,33,33,93,,,,,,,,,,,,,,,,,,,1,None,2,1.135,,,,,,2019_Jan_15_1804,60.66010582633617,Cloud_Experiment_FR_REAL,001,04,
images/fcloud65-35_D1.7_1.tif,1.7,1,,,,,0,34,34,63,,,,,,,,,,,,,,,,,,,1,space,1,0.687,8.80955886323,,,,,2019_Jan_15_1804,60.66010582633617,Cloud_Experiment_FR_REAL,001,04,
images/fcloud80-20_D1.6_2.tif,1.6,2,,,,,0,35,35,97,,,,,,,,,,,,,,,,,,,None,None,None,10.495,,,,,,2019_Jan_15_1804,60.66010582633617,Cloud_Experiment_FR_REAL,001,04,
images/fcloud65-35_D1.5_1.tif,1.5,1,,,,,0,36,36,57,,,,,,,,,,,,,,,,,,,1,None,2,1.605,,,,,,2019_Jan_15_1804,60.66010582633617,Cloud_Experiment_FR_REAL,001,04,
images/fcloud80-20_D0.9_3.tif,0.9,2,,,,,0,37,37,77,,,,,,,,,,,,,,,,,,,2,space,3,1.434,3.69286619389,,,,,2019_Jan_15_1804,60.66010582633617,Cloud_Experiment_FR_REAL,001,04,
images/fcloud_D1.7_3.tif,1.7,0,,,,,0,38,38,29,,,,,,,,,,,,,,,,,,,2,space,4,3.383,2.85976461397,,,,,2019_Jan_15_1804,60.66010582633617,Cloud_Experiment_FR_REAL,001,04,
images/fcloud80-20_D1.2_2.tif,1.2,2,,,,,0,39,39,85,,,,,,,,,,,,,,,,,,,2,space,2,0.802,6.90865746679,,,,,2019_Jan_15_1804,60.66010582633617,Cloud_Experiment_FR_REAL,001,04,
images/fcloud80-20_D1.3_2.tif,1.3,2,,,,,0,40,40,88,,,,,,,,,,,,,,,,,,,2,space,4,1.051,6.06769032264,,,,,2019_Jan_15_1804,60.66010582633617,Cloud_Experiment_FR_REAL,001,04,
images/fcloud_D1.9_3.tif,1.9,0,,,,,0,41,41,35,,,,,,,,,,,,,,,,,,,2,space,4,2.183,6.35898761899,,,,,2019_Jan_15_1804,60.66010582633617,Cloud_Experiment_FR_REAL,001,04,
images/fcloud65-35_D1.6_3.tif,1.6,1,,,,,0,42,42,62,,,,,,,,,,,,,,,,,,,2,space,2,0.9,3.71794850705,,,,,2019_Jan_15_1804,60.66010582633617,Cloud_Experiment_FR_REAL,001,04,
images/fcloud_D1.7_2.tif,1.7,0,,,,,0,43,43,28,,,,,,,,,,,,,,,,,,,1,space,2,1.868,7.76016891867,,,,,2019_Jan_15_1804,60.66010582633617,Cloud_Experiment_FR_REAL,001,04,
images/fcloud65-35_D1.2_2.tif,1.2,1,,,,,0,44,44,49,,,,,,,,,,,,,,,,,,,1,space,3,1.819,6.46955531623,,,,,2019_Jan_15_1804,60.66010582633617,Cloud_Experiment_FR_REAL,001,04,
images/fcloud_D1.2_2.tif,1.2,0,,,,,0,45,45,13,,,,,,,,,,,,,,,,,,,2,space,3,1.404,3.11299352546,,,,,2019_Jan_15_1804,60.66010582633617,Cloud_Experiment_FR_REAL,001,04,
images/fcloud80-20_D1.1_3.tif,1.1,2,,,,,0,46,46,83,,,,,,,,,,,,,,,,,,,2,space,3,2.318,6.0055944667,,,,,2019_Jan_15_1804,60.66010582633617,Cloud_Experiment_FR_REAL,001,04,
images/fcloud65-35_D1.3_2.tif,1.3,1,,,,,0,47,47,52,,,,,,,,,,,,,,,,,,,None,None,None,12.424,,,,,,2019_Jan_15_1804,60.66010582633617,Cloud_Experiment_FR_REAL,001,04,
images/fcloud80-20_D1.7_2.tif,1.7,2,,,,,0,48,48,100,,,,,,,,,,,,,,,,,,,None,None,None,20.948,,,,,,2019_Jan_15_1804,60.66010582633617,Cloud_Experiment_FR_REAL,001,04,
images/fcloud65-35_D1.1_3.tif,1.1,1,,,,,0,49,49,47,,,,,,,,,,,,,,,,,,,None,None,None,28.995,,,,,,2019_Jan_15_1804,60.66010582633617,Cloud_Experiment_FR_REAL,001,04,
images/fcloud65-35_D1.6_1.tif,1.6,1,,,,,0,50,50,60,,,,,,,,,,,,,,,,,,,2,space,5,1.084,2.78167751755,,,,,2019_Jan_15_1804,60.66010582633617,Cloud_Experiment_FR_REAL,001,04,
images/fcloud_D0.9_2.tif,0.9,0,,,,,0,51,51,4,,,,,,,,,,,,,,,,,,,1,space,3,2.682,2.61477447097,,,,,2019_Jan_15_1804,60.66010582633617,Cloud_Experiment_FR_REAL,001,04,
images/fcloud65-35_D1_3.tif,1.0,1,,,,,0,52,52,44,,,,,,,,,,,,,,,,,,,1,space,2,1.385,6.83060789641,,,,,2019_Jan_15_1804,60.66010582633617,Cloud_Experiment_FR_REAL,001,04,
images/fcloud_D1.5_2.tif,1.5,0,,,,,0,53,53,22,,,,,,,,,,,,,,,,,,,3,space,5,0.952,5.73976913764,,,,,2019_Jan_15_1804,60.66010582633617,Cloud_Experiment_FR_REAL,001,04,
images/fcloud80-20_D1.4_2.tif,1.4,2,,,,,0,54,54,91,,,,,,,,,,,,,,,,,,,1,space,2,0.702,7.21991399853,,,,,2019_Jan_15_1804,60.66010582633617,Cloud_Experiment_FR_REAL,001,04,
images/fcloud80-20_D1.3_3.tif,1.3,2,,,,,0,55,55,89,,,,,,,,,,,,,,,,,,,None,None,None,9.46,,,,,,2019_Jan_15_1804,60.66010582633617,Cloud_Experiment_FR_REAL,001,04,
images/fcloud_D1.1_3.tif,1.1,0,,,,,0,56,56,11,,,,,,,,,,,,,,,,,,,1,space,5,0.702,3.04859418655,,,,,2019_Jan_15_1804,60.66010582633617,Cloud_Experiment_FR_REAL,001,04,
images/fcloud_D1.7_1.tif,1.7,0,,,,,0,57,57,27,,,,,,,,,,,,,,,,,,,1,space,5,0.607,5.96695599428,,,,,2019_Jan_15_1804,60.66010582633617,Cloud_Experiment_FR_REAL,001,04,
images/fcloud65-35_D0.9_1.tif,0.9,1,,,,,0,58,58,39,,,,,,,,,,,,,,,,,,,1,space,4,0.72,2.22948519906,,,,,2019_Jan_15_1804,60.66010582633617,Cloud_Experiment_FR_REAL,001,04,
images/fcloud65-35_D1.8_2.tif,1.8,1,,,,,0,59,59,67,,,,,,,,,,,,,,,,,,,1,space,3,1.285,7.606402048,,,,,2019_Jan_15_1804,60.66010582633617,Cloud_Experiment_FR_REAL,001,04,
images/fcloud65-35_D1.4_1.tif,1.4,1,,,,,0,60,60,54,,,,,,,,,,,,,,,,,,,1,space,5,1.221,1.41205511705,,,,,2019_Jan_15_1804,60.66010582633617,Cloud_Experiment_FR_REAL,001,04,
images/fcloud80-20_D1.4_3.tif,1.4,2,,,,,0,61,61,92,,,,,,,,,,,,,,,,,,,None,None,None,10.324,,,,,,2019_Jan_15_1804,60.66010582633617,Cloud_Experiment_FR_REAL,001,04,
images/fcloud_D1.9_2.tif,1.9,0,,,,,0,62,62,34,,,,,,,,,,,,,,,,,,,None,None,None,19.65,,,,,,2019_Jan_15_1804,60.66010582633617,Cloud_Experiment_FR_REAL,001,04,
images/fcloud_D0.8_2.tif,0.8,0,,,,,0,63,63,1,,,,,,,,,,,,,,,,,,,2,space,5,0.62,2.42260507939,,,,,2019_Jan_15_1804,60.66010582633617,Cloud_Experiment_FR_REAL,001,04,
images/fcloud_D1.1_1.tif,1.1,0,,,,,0,64,64,9,,,,,,,,,,,,,,,,,,,None,None,None,9.76,,,,,,2019_Jan_15_1804,60.66010582633617,Cloud_Experiment_FR_REAL,001,04,
images/fcloud_D1.2_1.tif,1.2,0,,,,,0,65,65,12,,,,,,,,,,,,,,,,,,,2,space,5,0.469,1.78806003142,,,,,2019_Jan_15_1804,60.66010582633617,Cloud_Experiment_FR_REAL,001,04,
images/fcloud65-35_D1.7_3.tif,1.7,1,,,,,0,66,66,65,,,,,,,,,,,,,,,,,,,1,space,2,1.884,8.96181595267,,,,,2019_Jan_15_1804,60.66010582633617,Cloud_Experiment_FR_REAL,001,04,
images/fcloud80-20_D1.3_1.tif,1.3,2,,,,,0,67,67,87,,,,,,,,,,,,,,,,,,,None,None,None,10.828,,,,,,2019_Jan_15_1804,60.66010582633617,Cloud_Experiment_FR_REAL,001,04,
images/fcloud65-35_D0.8_2.tif,0.8,1,,,,,0,68,68,37,,,,,,,,,,,,,,,,,,,2,space,5,0.62,1.72661034332,,,,,2019_Jan_15_1804,60.66010582633617,Cloud_Experiment_FR_REAL,001,04,
images/fcloud_D1.3_3.tif,1.3,0,,,,,0,69,69,17,,,,,,,,,,,,,,,,,,,5,space,5,1.436,3.03164834488,,,,,2019_Jan_15_1804,60.66010582633617,Cloud_Experiment_FR_REAL,001,04,
images/fcloud80-20_D1.1_2.tif,1.1,2,,,,,0,70,70,82,,,,,,,,,,,,,,,,,,,None,None,None,11.259,,,,,,2019_Jan_15_1804,60.66010582633617,Cloud_Experiment_FR_REAL,001,04,
images/fcloud80-20_D1.9_2.tif,1.9,2,,,,,0,71,71,106,,,,,,,,,,,,,,,,,,,2,space,3,1.185,5.60216365985,,,,,2019_Jan_15_1804,60.66010582633617,Cloud_Experiment_FR_REAL,001,04,
images/fcloud65-35_D0.9_3.tif,0.9,1,,,,,0,72,72,41,,,,,,,,,,,,,,,,,,,1,space,5,0.602,5.54054895992,,,,,2019_Jan_15_1804,60.66010582633617,Cloud_Experiment_FR_REAL,001,04,
images/fcloud_D1.6_1.tif,1.6,0,,,,,0,73,73,24,,,,,,,,,,,,,,,,,,,3,space,4,1.102,2.87545873033,,,,,2019_Jan_15_1804,60.66010582633617,Cloud_Experiment_FR_REAL,001,04,
images/fcloud65-35_D1.8_3.tif,1.8,1,,,,,0,74,74,68,,,,,,,,,,,,,,,,,,,1,space,5,1.136,2.43598954412,,,,,2019_Jan_15_1804,60.66010582633617,Cloud_Experiment_FR_REAL,001,04,
images/fcloud80-20_D1.7_1.tif,1.7,2,,,,,0,75,75,99,,,,,,,,,,,,,,,,,,,2,space,3,0.789,2.9822609706,,,,,2019_Jan_15_1804,60.66010582633617,Cloud_Experiment_FR_REAL,001,04,
images/fcloud65-35_D1.3_1.tif,1.3,1,,,,,0,76,76,51,,,,,,,,,,,,,,,,,,,1,space,2,1.469,6.38134338139,,,,,2019_Jan_15_1804,60.66010582633617,Cloud_Experiment_FR_REAL,001,04,
images/fcloud65-35_D0.9_2.tif,0.9,1,,,,,0,77,77,40,,,,,,,,,,,,,,,,,,,None,None,None,11.058,,,,,,2019_Jan_15_1804,60.66010582633617,Cloud_Experiment_FR_REAL,001,04,
images/fcloud65-35_D1.4_3.tif,1.4,1,,,,,0,78,78,56,,,,,,,,,,,,,,,,,,,1,space,5,1.201,2.8282884777,,,,,2019_Jan_15_1804,60.66010582633617,Cloud_Experiment_FR_REAL,001,04,
images/fcloud80-20_D1.8_2.tif,1.8,2,,,,,0,79,79,103,,,,,,,,,,,,,,,,,,,1,space,3,1.068,5.03820306735,,,,,2019_Jan_15_1804,60.66010582633617,Cloud_Experiment_FR_REAL,001,04,
images/fcloud_D0.8_3.tif,0.8,0,,,,,0,80,80,2,,,,,,,,,,,,,,,,,,,3,space,5,0.567,1.55644818448,,,,,2019_Jan_15_1804,60.66010582633617,Cloud_Experiment_FR_REAL,001,04,
images/fcloud65-35_D1.8_1.tif,1.8,1,,,,,0,81,81,66,,,,,,,,,,,,,,,,,,,2,space,5,0.703,4.36275564626,,,,,2019_Jan_15_1804,60.66010582633617,Cloud_Experiment_FR_REAL,001,04,
images/fcloud_D1.5_3.tif,1.5,0,,,,,0,82,82,23,,,,,,,,,,,,,,,,,,,2,space,4,0.885,6.33802443306,,,,,2019_Jan_15_1804,60.66010582633617,Cloud_Experiment_FR_REAL,001,04,
images/fcloud80-20_D1.5_2.tif,1.5,2,,,,,0,83,83,94,,,,,,,,,,,,,,,,,,,1,space,2,0.486,5.60821049547,,,,,2019_Jan_15_1804,60.66010582633617,Cloud_Experiment_FR_REAL,001,04,
images/fcloud_D1.4_1.tif,1.4,0,,,,,0,84,84,18,,,,,,,,,,,,,,,,,,,1,space,5,0.971,1.76337611131,,,,,2019_Jan_15_1804,60.66010582633617,Cloud_Experiment_FR_REAL,001,04,
images/fcloud65-35_D0.8_3.tif,0.8,1,,,,,0,85,85,38,,,,,,,,,,,,,,,,,,,2,space,4,0.984,4.86180438646,,,,,2019_Jan_15_1804,60.66010582633617,Cloud_Experiment_FR_REAL,001,04,
images/fcloud80-20_D0.9_1.tif,0.9,2,,,,,0,86,86,75,,,,,,,,,,,,,,,,,,,4,space,5,1.017,1.51590205185,,,,,2019_Jan_15_1804,60.66010582633617,Cloud_Experiment_FR_REAL,001,04,
images/fcloud80-20_D0.8_3.tif,0.8,2,,,,,0,87,87,74,,,,,,,,,,,,,,,,,,,2,space,5,0.751,7.30425509493,,,,,2019_Jan_15_1804,60.66010582633617,Cloud_Experiment_FR_REAL,001,04,
images/fcloud65-35_D1.7_2.tif,1.7,1,,,,,0,88,88,64,,,,,,,,,,,,,,,,,,,1,space,5,0.519,2.97716770807,,,,,2019_Jan_15_1804,60.66010582633617,Cloud_Experiment_FR_REAL,001,04,
images/fcloud65-35_D1.1_1.tif,1.1,1,,,,,0,89,89,45,,,,,,,,,,,,,,,,,,,None,None,None,9.826,,,,,,2019_Jan_15_1804,60.66010582633617,Cloud_Experiment_FR_REAL,001,04,
images/fcloud80-20_D0.8_2.tif,0.8,2,,,,,0,90,90,73,,,,,,,,,,,,,,,,,,,None,None,None,18.189,,,,,,2019_Jan_15_1804,60.66010582633617,Cloud_Experiment_FR_REAL,001,04,
images/fcloud65-35_D1_2.tif,1.0,1,,,,,0,91,91,43,,,,,,,,,,,,,,,,,,,None,space,None,26.746,3.74908125421,,,,,2019_Jan_15_1804,60.66010582633617,Cloud_Experiment_FR_REAL,001,04,
images/fcloud65-35_D1_1.tif,1.0,1,,,,,0,92,92,42,,,,,,,,,,,,,,,,,,,1,space,4,1.034,6.89007333003,,,,,2019_Jan_15_1804,60.66010582633617,Cloud_Experiment_FR_REAL,001,04,
images/fcloud65-35_D1.3_3.tif,1.3,1,,,,,0,93,93,53,,,,,,,,,,,,,,,,,,,2,space,3,1.651,6.90981666208,,,,,2019_Jan_15_1804,60.66010582633617,Cloud_Experiment_FR_REAL,001,04,
images/fcloud80-20_D1.8_3.tif,1.8,2,,,,,0,94,94,104,,,,,,,,,,,,,,,,,,,5,space,5,0.702,4.78125599195,,,,,2019_Jan_15_1804,60.66010582633617,Cloud_Experiment_FR_REAL,001,04,
images/fcloud_D1.6_3.tif,1.6,0,,,,,0,95,95,26,,,,,,,,,,,,,,,,,,,2,space,5,0.952,7.90491771256,,,,,2019_Jan_15_1804,60.66010582633617,Cloud_Experiment_FR_REAL,001,04,
images/fcloud80-20_D1.9_3.tif,1.9,2,,,,,0,96,96,107,,,,,,,,,,,,,,,,,,,3,space,4,0.688,6.03812801524,,,,,2019_Jan_15_1804,60.66010582633617,Cloud_Experiment_FR_REAL,001,04,
images/fcloud65-35_D1.9_2.tif,1.9,1,,,,,0,97,97,70,,,,,,,,,,,,,,,,,,,1,space,3,0.753,7.15585290812,,,,,2019_Jan_15_1804,60.66010582633617,Cloud_Experiment_FR_REAL,001,04,
images/fcloud_D1.6_2.tif,1.6,0,,,,,0,98,98,25,,,,,,,,,,,,,,,,,,,1,None,3,0.701,,,,,,2019_Jan_15_1804,60.66010582633617,Cloud_Experiment_FR_REAL,001,04,
images/fcloud80-20_D1.8_1.tif,1.8,2,,,,,0,99,99,102,,,,,,,,,,,,,,,,,,,None,None,None,9.875,,,,,,2019_Jan_15_1804,60.66010582633617,Cloud_Experiment_FR_REAL,001,04,
images/fcloud_D1_2.tif,1.0,0,,,,,0,100,100,7,,,,,,,,,,,,,,,,,,,2,space,3,0.921,1.22812860642,,,,,2019_Jan_15_1804,60.66010582633617,Cloud_Experiment_FR_REAL,001,04,
images/fcloud80-20_D1_3.tif,1.0,2,,,,,0,101,101,80,,,,,,,,,,,,,,,,,,,1,space,2,0.838,7.38033583251,,,,,2019_Jan_15_1804,60.66010582633617,Cloud_Experiment_FR_REAL,001,04,
images/fcloud65-35_D1.9_3.tif,1.9,1,,,,,0,102,102,71,,,,,,,,,,,,,,,,,,,1,space,2,1.12,8.51242909246,,,,,2019_Jan_15_1804,60.66010582633617,Cloud_Experiment_FR_REAL,001,04,
images/fcloud65-35_D1.1_2.tif,1.1,1,,,,,0,103,103,46,,,,,,,,,,,,,,,,,,,None,None,None,10.663,,,,,,2019_Jan_15_1804,60.66010582633617,Cloud_Experiment_FR_REAL,001,04,
images/fcloud_D1.2_3.tif,1.2,0,,,,,0,104,104,14,,,,,,,,,,,,,,,,,,,2,space,5,0.586,2.3782950319,,,,,2019_Jan_15_1804,60.66010582633617,Cloud_Experiment_FR_REAL,001,04,
images/fcloud_D1.8_3.tif,1.8,0,,,,,0,105,105,32,,,,,,,,,,,,,,,,,,,None,None,None,9.96,,,,,,2019_Jan_15_1804,60.66010582633617,Cloud_Experiment_FR_REAL,001,04,
images/fcloud80-20_D1.2_3.tif,1.2,2,,,,,0,106,106,86,,,,,,,,,,,,,,,,,,,2,space,5,0.518,2.15979417216,,,,,2019_Jan_15_1804,60.66010582633617,Cloud_Experiment_FR_REAL,001,04,
images/fcloud80-20_D1.1_1.tif,1.1,2,,,,,0,107,107,81,,,,,,,,,,,,,,,,,,,None,None,None,10.378,,,,,,2019_Jan_15_1804,60.66010582633617,Cloud_Experiment_FR_REAL,001,04,
,,,,,,,,,,,,,,,,,,,,,,,,,6,10.922,,,,,,,,,,,,2019_Jan_15_1804,60.66010582633617,Cloud_Experiment_FR_REAL,001,04,
,,,,,,,,,,,,,,,,,,,,,,,,,,,,,,,,,,,,space,148.171981401,2019_Jan_15_1804,60.66010582633617,Cloud_Experiment_FR_REAL,001,04,
images/fcloud_D1.9_4.tif,1.9,0,,,,,,,,,0,0,0,33,,,,,,,,,,,,,,,None,None,None,179.714,,,,,,2019_Jan_15_1804,60.66010582633617,Cloud_Experiment_FR_REAL,001,04,
images/fcloud65-35_D1.8_5.tif,1.8,1,,,,,,,,,0,1,1,67,,,,,,,,,,,,,,,1,space,4,1.951,2.19064059033,,,,,2019_Jan_15_1804,60.66010582633617,Cloud_Experiment_FR_REAL,001,04,
images/fcloud80-20_D0.8_4.tif,0.8,2,,,,,,,,,0,2,2,72,,,,,,,,,,,,,,,3,space,4,0.802,7.50047421624,,,,,2019_Jan_15_1804,60.66010582633617,Cloud_Experiment_FR_REAL,001,04,
images/fcloud80-20_D1.9_4.tif,1.9,2,,,,,,,,,0,3,3,105,,,,,,,,,,,,,,,3,space,4,1.184,3.27644674515,,,,,2019_Jan_15_1804,60.66010582633617,Cloud_Experiment_FR_REAL,001,04,
images/fcloud_D1.1_5.tif,1.1,0,,,,,,,,,0,4,4,10,,,,,,,,,,,,,,,5,space,5,1.501,4.45064578232,,,,,2019_Jan_15_1804,60.66010582633617,Cloud_Experiment_FR_REAL,001,04,
images/fcloud_D1.3_5.tif,1.3,0,,,,,,,,,0,5,5,16,,,,,,,,,,,,,,,1,space,5,0.986,3.12503373492,,,,,2019_Jan_15_1804,60.66010582633617,Cloud_Experiment_FR_REAL,001,04,
images/fcloud80-20_D1.1_6.tif,1.1,2,,,,,,,,,0,6,6,83,,,,,,,,,,,,,,,None,None,None,10.341,,,,,,2019_Jan_15_1804,60.66010582633617,Cloud_Experiment_FR_REAL,001,04,
images/fcloud65-35_D1.5_6.tif,1.5,1,,,,,,,,,0,7,7,59,,,,,,,,,,,,,,,2,space,4,0.718,5.08629759192,,,,,2019_Jan_15_1804,60.66010582633617,Cloud_Experiment_FR_REAL,001,04,
images/fcloud80-20_D1.3_6.tif,1.3,2,,,,,,,,,0,8,8,89,,,,,,,,,,,,,,,1,None,2,0.502,,,,,,2019_Jan_15_1804,60.66010582633617,Cloud_Experiment_FR_REAL,001,04,
images/fcloud80-20_D1.7_5.tif,1.7,2,,,,,,,,,0,9,9,100,,,,,,,,,,,,,,,3,space,5,0.887,1.36551406843,,,,,2019_Jan_15_1804,60.66010582633617,Cloud_Experiment_FR_REAL,001,04,
images/fcloud80-20_D1.5_5.tif,1.5,2,,,,,,,,,0,10,10,94,,,,,,,,,,,,,,,1,space,3,0.785,7.52862595516,,,,,2019_Jan_15_1804,60.66010582633617,Cloud_Experiment_FR_REAL,001,04,
images/fcloud65-35_D1_6.tif,1.0,1,,,,,,,,,0,11,11,44,,,,,,,,,,,,,,,3,space,4,0.869,4.90105972553,,,,,2019_Jan_15_1804,60.66010582633617,Cloud_Experiment_FR_REAL,001,04,
images/fcloud80-20_D1.4_4.tif,1.4,2,,,,,,,,,0,12,12,90,,,,,,,,,,,,,,,2,space,3,1.487,5.49870586512,,,,,2019_Jan_15_1804,60.66010582633617,Cloud_Experiment_FR_REAL,001,04,
images/fcloud65-35_D1_5.tif,1.0,1,,,,,,,,,0,13,13,43,,,,,,,,,,,,,,,2,space,3,0.935,3.98093110885,,,,,2019_Jan_15_1804,60.66010582633617,Cloud_Experiment_FR_REAL,001,04,
images/fcloud65-35_D1_4.tif,1.0,1,,,,,,,,,0,14,14,42,,,,,,,,,,,,,,,1,space,5,0.601,4.13917129103,,,,,2019_Jan_15_1804,60.66010582633617,Cloud_Experiment_FR_REAL,001,04,
images/fcloud80-20_D1_6.tif,1.0,2,,,,,,,,,0,15,15,80,,,,,,,,,,,,,,,1,space,1,0.569,7.82305025152,,,,,2019_Jan_15_1804,60.66010582633617,Cloud_Experiment_FR_REAL,001,04,
images/fcloud65-35_D0.8_6.tif,0.8,1,,,,,,,,,0,16,16,38,,,,,,,,,,,,,,,4,space,5,0.835,7.22789471113,,,,,2019_Jan_15_1804,60.66010582633617,Cloud_Experiment_FR_REAL,001,04,
images/fcloud80-20_D1.6_4.tif,1.6,2,,,,,,,,,0,17,17,96,,,,,,,,,,,,,,,1,space,3,1.067,6.53166299546,,,,,2019_Jan_15_1804,60.66010582633617,Cloud_Experiment_FR_REAL,001,04,
images/fcloud_D0.9_4.tif,0.9,0,,,,,,,,,0,18,18,3,,,,,,,,,,,,,,,2,space,3,0.653,4.67934087795,,,,,2019_Jan_15_1804,60.66010582633617,Cloud_Experiment_FR_REAL,001,04,
images/fcloud65-35_D1.4_6.tif,1.4,1,,,,,,,,,0,19,19,56,,,,,,,,,,,,,,,None,None,None,9.941,,,,,,2019_Jan_15_1804,60.66010582633617,Cloud_Experiment_FR_REAL,001,04,
images/fcloud80-20_D1.4_6.tif,1.4,2,,,,,,,,,0,20,20,92,,,,,,,,,,,,,,,5,space,5,1.7,4.44016881584,,,,,2019_Jan_15_1804,60.66010582633617,Cloud_Experiment_FR_REAL,001,04,
images/fcloud65-35_D0.8_4.tif,0.8,1,,,,,,,,,0,21,21,36,,,,,,,,,,,,,,,4,space,5,0.802,3.27744298481,,,,,2019_Jan_15_1804,60.66010582633617,Cloud_Experiment_FR_REAL,001,04,
images/fcloud65-35_D0.8_5.tif,0.8,1,,,,,,,,,0,22,22,37,,,,,,,,,,,,,,,3,None,4,2.137,,,,,,2019_Jan_15_1804,60.66010582633617,Cloud_Experiment_FR_REAL,001,04,
images/fcloud80-20_D1_5.tif,1.0,2,,,,,,,,,0,23,23,79,,,,,,,,,,,,,,,5,space,5,1.001,5.42876397911,,,,,2019_Jan_15_1804,60.66010582633617,Cloud_Experiment_FR_REAL,001,04,
images/fcloud_D1_4.tif,1.0,0,,,,,,,,,0,24,24,6,,,,,,,,,,,,,,,2,space,4,1.217,2.74660350636,,,,,2019_Jan_15_1804,60.66010582633617,Cloud_Experiment_FR_REAL,001,04,
images/fcloud65-35_D1.2_6.tif,1.2,1,,,,,,,,,0,25,25,50,,,,,,,,,,,,,,,1,space,4,1.633,5.89279268397,,,,,2019_Jan_15_1804,60.66010582633617,Cloud_Experiment_FR_REAL,001,04,
images/fcloud_D1.8_4.tif,1.8,0,,,,,,,,,0,26,26,30,,,,,,,,,,,,,,,1,space,5,0.969,6.5213443581,,,,,2019_Jan_15_1804,60.66010582633617,Cloud_Experiment_FR_REAL,001,04,
images/fcloud80-20_D1.2_6.tif,1.2,2,,,,,,,,,0,27,27,86,,,,,,,,,,,,,,,5,space,5,1.001,6.70016218454,,,,,2019_Jan_15_1804,60.66010582633617,Cloud_Experiment_FR_REAL,001,04,
images/fcloud65-35_D1.6_6.tif,1.6,1,,,,,,,,,0,28,28,62,,,,,,,,,,,,,,,2,space,4,1.034,6.31673070943,,,,,2019_Jan_15_1804,60.66010582633617,Cloud_Experiment_FR_REAL,001,04,
images/fcloud_D0.8_5.tif,0.8,0,,,,,,,,,0,29,29,1,,,,,,,,,,,,,,,2,space,4,1.702,5.87120543458,,,,,2019_Jan_15_1804,60.66010582633617,Cloud_Experiment_FR_REAL,001,04,
images/fcloud_D1.7_6.tif,1.7,0,,,,,,,,,0,30,30,29,,,,,,,,,,,,,,,1,None,3,1.167,,,,,,2019_Jan_15_1804,60.66010582633617,Cloud_Experiment_FR_REAL,001,04,
images/fcloud_D1.5_5.tif,1.5,0,,,,,,,,,0,31,31,22,,,,,,,,,,,,,,,2,space,3,1.069,2.78057898078,,,,,2019_Jan_15_1804,60.66010582633617,Cloud_Experiment_FR_REAL,001,04,
images/fcloud65-35_D1.1_5.tif,1.1,1,,,,,,,,,0,32,32,46,,,,,,,,,,,,,,,1,space,4,0.785,3.38540030792,,,,,2019_Jan_15_1804,60.66010582633617,Cloud_Experiment_FR_REAL,001,04,
images/fcloud65-35_D1.1_6.tif,1.1,1,,,,,,,,,0,33,33,47,,,,,,,,,,,,,,,1,space,3,0.869,4.89043830949,,,,,2019_Jan_15_1804,60.66010582633617,Cloud_Experiment_FR_REAL,001,04,
images/fcloud65-35_D1.9_5.tif,1.9,1,,,,,,,,,0,34,34,70,,,,,,,,,,,,,,,1,space,3,2.884,7.22937724736,,,,,2019_Jan_15_1804,60.66010582633617,Cloud_Experiment_FR_REAL,001,04,
images/fcloud80-20_D0.8_6.tif,0.8,2,,,,,,,,,0,35,35,74,,,,,,,,,,,,,,,1,space,3,1.084,8.07807527317,,,,,2019_Jan_15_1804,60.66010582633617,Cloud_Experiment_FR_REAL,001,04,
images/fcloud_D1.4_5.tif,1.4,0,,,,,,,,,0,36,36,19,,,,,,,,,,,,,,,2,space,5,0.538,3.38304336317,,,,,2019_Jan_15_1804,60.66010582633617,Cloud_Experiment_FR_REAL,001,04,
images/fcloud65-35_D1.5_5.tif,1.5,1,,,,,,,,,0,37,37,58,,,,,,,,,,,,,,,1,space,4,0.734,2.67632748425,,,,,2019_Jan_15_1804,60.66010582633617,Cloud_Experiment_FR_REAL,001,04,
images/fcloud80-20_D1.2_5.tif,1.2,2,,,,,,,,,0,38,38,85,,,,,,,,,,,,,,,1,space,4,0.584,3.99676196399,,,,,2019_Jan_15_1804,60.66010582633617,Cloud_Experiment_FR_REAL,001,04,
images/fcloud65-35_D1.2_4.tif,1.2,1,,,,,,,,,0,39,39,48,,,,,,,,,,,,,,,None,None,None,10.927,,,,,,2019_Jan_15_1804,60.66010582633617,Cloud_Experiment_FR_REAL,001,04,
images/fcloud80-20_D1.6_5.tif,1.6,2,,,,,,,,,0,40,40,97,,,,,,,,,,,,,,,None,None,None,19.703,,,,,,2019_Jan_15_1804,60.66010582633617,Cloud_Experiment_FR_REAL,001,04,
images/fcloud80-20_D1.9_6.tif,1.9,2,,,,,,,,,0,41,41,107,,,,,,,,,,,,,,,2,space,5,0.688,3.39004068752,,,,,2019_Jan_15_1804,60.66010582633617,Cloud_Experiment_FR_REAL,001,04,
images/fcloud_D1.5_4.tif,1.5,0,,,,,,,,,0,42,42,21,,,,,,,,,,,,,,,2,space,5,0.518,5.33524442057,,,,,2019_Jan_15_1804,60.66010582633617,Cloud_Experiment_FR_REAL,001,04,
images/fcloud80-20_D1.7_6.tif,1.7,2,,,,,,,,,0,43,43,101,,,,,,,,,,,,,,,None,None,None,9.76,,,,,,2019_Jan_15_1804,60.66010582633617,Cloud_Experiment_FR_REAL,001,04,
images/fcloud65-35_D1.2_5.tif,1.2,1,,,,,,,,,0,44,44,49,,,,,,,,,,,,,,,None,space,None,18.885,3.77523537321,,,,,2019_Jan_15_1804,60.66010582633617,Cloud_Experiment_FR_REAL,001,04,
images/fcloud_D1.2_6.tif,1.2,0,,,,,,,,,0,45,45,14,,,,,,,,,,,,,,,1,space,2,0.934,8.04281517389,,,,,2019_Jan_15_1804,60.66010582633617,Cloud_Experiment_FR_REAL,001,04,
images/fcloud80-20_D1.8_4.tif,1.8,2,,,,,,,,,0,46,46,102,,,,,,,,,,,,,,,None,None,None,10.274,,,,,,2019_Jan_15_1804,60.66010582633617,Cloud_Experiment_FR_REAL,001,04,
images/fcloud65-35_D1.8_4.tif,1.8,1,,,,,,,,,0,47,47,66,,,,,,,,,,,,,,,3,space,5,1.535,6.03644294111,,,,,2019_Jan_15_1804,60.66010582633617,Cloud_Experiment_FR_REAL,001,04,
images/fcloud_D1.2_4.tif,1.2,0,,,,,,,,,0,48,48,12,,,,,,,,,,,,,,,1,space,5,0.538,6.50671330863,,,,,2019_Jan_15_1804,60.66010582633617,Cloud_Experiment_FR_REAL,001,04,
images/fcloud80-20_D1_4.tif,1.0,2,,,,,,,,,0,49,49,78,,,,,,,,,,,,,,,1,space,4,0.569,5.37083762782,,,,,2019_Jan_15_1804,60.66010582633617,Cloud_Experiment_FR_REAL,001,04,
images/fcloud_D1.8_6.tif,1.8,0,,,,,,,,,0,50,50,32,,,,,,,,,,,,,,,1,space,4,0.435,7.76295869821,,,,,2019_Jan_15_1804,60.66010582633617,Cloud_Experiment_FR_REAL,001,04,
images/fcloud80-20_D0.9_6.tif,0.9,2,,,,,,,,,0,51,51,77,,,,,,,,,,,,,,,2,space,3,0.801,5.92640420704,,,,,2019_Jan_15_1804,60.66010582633617,Cloud_Experiment_FR_REAL,001,04,
images/fcloud80-20_D1.1_4.tif,1.1,2,,,,,,,,,0,52,52,81,,,,,,,,,,,,,,,1,space,3,1.534,5.34545253598,,,,,2019_Jan_15_1804,60.66010582633617,Cloud_Experiment_FR_REAL,001,04,
images/fcloud65-35_D1.3_5.tif,1.3,1,,,,,,,,,0,53,53,52,,,,,,,,,,,,,,,2,space,3,0.834,7.43670151106,,,,,2019_Jan_15_1804,60.66010582633617,Cloud_Experiment_FR_REAL,001,04,
images/fcloud65-35_D0.9_4.tif,0.9,1,,,,,,,,,0,54,54,39,,,,,,,,,,,,,,,1,space,5,0.535,3.43412198024,,,,,2019_Jan_15_1804,60.66010582633617,Cloud_Experiment_FR_REAL,001,04,
images/fcloud80-20_D1.8_6.tif,1.8,2,,,,,,,,,0,55,55,104,,,,,,,,,,,,,,,1,space,4,2.4,6.84272007362,,,,,2019_Jan_15_1804,60.66010582633617,Cloud_Experiment_FR_REAL,001,04,
images/fcloud_D1.2_5.tif,1.2,0,,,,,,,,,0,56,56,13,,,,,,,,,,,,,,,1,None,4,1.217,,,,,,2019_Jan_15_1804,60.66010582633617,Cloud_Experiment_FR_REAL,001,04,
images/fcloud80-20_D1.5_4.tif,1.5,2,,,,,,,,,0,57,57,93,,,,,,,,,,,,,,,1,space,3,0.636,7.76455741102,,,,,2019_Jan_15_1804,60.66010582633617,Cloud_Experiment_FR_REAL,001,04,
images/fcloud80-20_D1.2_4.tif,1.2,2,,,,,,,,,0,58,58,84,,,,,,,,,,,,,,,2,space,5,1.001,4.38242546836,,,,,2019_Jan_15_1804,60.66010582633617,Cloud_Experiment_FR_REAL,001,04,
images/fcloud80-20_D1.6_6.tif,1.6,2,,,,,,,,,0,59,59,98,,,,,,,,,,,,,,,None,None,None,10.078,,,,,,2019_Jan_15_1804,60.66010582633617,Cloud_Experiment_FR_REAL,001,04,
images/fcloud65-35_D0.9_6.tif,0.9,1,,,,,,,,,0,60,60,41,,,,,,,,,,,,,,,2,space,4,0.586,7.2131474851,,,,,2019_Jan_15_1804,60.66010582633617,Cloud_Experiment_FR_REAL,001,04,
images/fcloud80-20_D1.4_5.tif,1.4,2,,,,,,,,,0,61,61,91,,,,,,,,,,,,,,,1,space,4,0.851,3.52569738062,,,,,2019_Jan_15_1804,60.66010582633617,Cloud_Experiment_FR_REAL,001,04,
images/fcloud65-35_D1.9_4.tif,1.9,1,,,,,,,,,0,62,62,69,,,,,,,,,,,,,,,2,space,4,0.652,5.95999568191,,,,,2019_Jan_15_1804,60.66010582633617,Cloud_Experiment_FR_REAL,001,04,
images/fcloud_D1.9_6.tif,1.9,0,,,,,,,,,0,63,63,35,,,,,,,,,,,,,,,1,None,4,2.299,,,,,,2019_Jan_15_1804,60.66010582633617,Cloud_Experiment_FR_REAL,001,04,
images/fcloud65-35_D0.9_5.tif,0.9,1,,,,,,,,,0,64,64,40,,,,,,,,,,,,,,,2,space,5,0.587,6.56941575016,,,,,2019_Jan_15_1804,60.66010582633617,Cloud_Experiment_FR_REAL,001,04,
images/fcloud_D1.3_6.tif,1.3,0,,,,,,,,,0,65,65,17,,,,,,,,,,,,,,,3,space,5,1.253,5.23931908197,,,,,2019_Jan_15_1804,60.66010582633617,Cloud_Experiment_FR_REAL,001,04,
images/fcloud_D1.8_5.tif,1.8,0,,,,,,,,,0,66,66,31,,,,,,,,,,,,,,,None,None,None,10.096,,,,,,2019_Jan_15_1804,60.66010582633617,Cloud_Experiment_FR_REAL,001,04,
images/fcloud80-20_D1.7_4.tif,1.7,2,,,,,,,,,0,67,67,99,,,,,,,,,,,,,,,None,None,None,19.252,,,,,,2019_Jan_15_1804,60.66010582633617,Cloud_Experiment_FR_REAL,001,04,
images/fcloud80-20_D1.9_5.tif,1.9,2,,,,,,,,,0,68,68,106,,,,,,,,,,,,,,,1,None,3,1.134,,,,,,2019_Jan_15_1804,60.66010582633617,Cloud_Experiment_FR_REAL,001,04,
images/fcloud65-35_D1.1_4.tif,1.1,1,,,,,,,,,0,69,69,45,,,,,,,,,,,,,,,2,space,4,0.789,4.58623410604,,,,,2019_Jan_15_1804,60.66010582633617,Cloud_Experiment_FR_REAL,001,04,
images/fcloud65-35_D1.3_4.tif,1.3,1,,,,,,,,,0,70,70,51,,,,,,,,,,,,,,,2,space,4,0.804,6.95246785224,,,,,2019_Jan_15_1804,60.66010582633617,Cloud_Experiment_FR_REAL,001,04,
images/fcloud80-20_D0.8_5.tif,0.8,2,,,,,,,,,0,71,71,73,,,,,,,,,,,,,,,2,space,5,0.969,2.73486761784,,,,,2019_Jan_15_1804,60.66010582633617,Cloud_Experiment_FR_REAL,001,04,
images/fcloud_D1.1_4.tif,1.1,0,,,,,,,,,0,72,72,9,,,,,,,,,,,,,,,2,space,4,0.637,6.22031444777,,,,,2019_Jan_15_1804,60.66010582633617,Cloud_Experiment_FR_REAL,001,04,
images/fcloud_D0.9_6.tif,0.9,0,,,,,,,,,0,73,73,5,,,,,,,,,,,,,,,1,space,4,1.051,7.47075357975,,,,,2019_Jan_15_1804,60.66010582633617,Cloud_Experiment_FR_REAL,001,04,
images/fcloud_D0.9_5.tif,0.9,0,,,,,,,,,0,74,74,4,,,,,,,,,,,,,,,1,space,4,0.701,7.84901622616,,,,,2019_Jan_15_1804,60.66010582633617,Cloud_Experiment_FR_REAL,001,04,
images/fcloud65-35_D1.4_5.tif,1.4,1,,,,,,,,,0,75,75,55,,,,,,,,,,,,,,,1,space,4,0.867,5.7418428378,,,,,2019_Jan_15_1804,60.66010582633617,Cloud_Experiment_FR_REAL,001,04,
images/fcloud_D1.6_4.tif,1.6,0,,,,,,,,,0,76,76,24,,,,,,,,,,,,,,,None,None,None,10.141,,,,,,2019_Jan_15_1804,60.66010582633617,Cloud_Experiment_FR_REAL,001,04,
images/fcloud65-35_D1.4_4.tif,1.4,1,,,,,,,,,0,77,77,54,,,,,,,,,,,,,,,2,space,4,1.4,5.76764328656,,,,,2019_Jan_15_1804,60.66010582633617,Cloud_Experiment_FR_REAL,001,04,
images/fcloud_D1.6_6.tif,1.6,0,,,,,,,,,0,78,78,26,,,,,,,,,,,,,,,5,space,5,0.884,2.89694368263,,,,,2019_Jan_15_1804,60.66010582633617,Cloud_Experiment_FR_REAL,001,04,
images/fcloud_D1.7_4.tif,1.7,0,,,,,,,,,0,79,79,27,,,,,,,,,,,,,,,1,space,5,1.004,3.14419052954,,,,,2019_Jan_15_1804,60.66010582633617,Cloud_Experiment_FR_REAL,001,04,
images/fcloud80-20_D1.3_4.tif,1.3,2,,,,,,,,,0,80,80,87,,,,,,,,,,,,,,,1,None,4,1.353,,,,,,2019_Jan_15_1804,60.66010582633617,Cloud_Experiment_FR_REAL,001,04,
images/fcloud65-35_D1.7_5.tif,1.7,1,,,,,,,,,0,81,81,64,,,,,,,,,,,,,,,None,None,None,10.045,,,,,,2019_Jan_15_1804,60.66010582633617,Cloud_Experiment_FR_REAL,001,04,
images/fcloud65-35_D1.6_5.tif,1.6,1,,,,,,,,,0,82,82,61,,,,,,,,,,,,,,,1,space,4,0.487,5.32033475299,,,,,2019_Jan_15_1804,60.66010582633617,Cloud_Experiment_FR_REAL,001,04,
images/fcloud_D1.7_5.tif,1.7,0,,,,,,,,,0,83,83,28,,,,,,,,,,,,,,,2,space,4,0.903,2.63937305784,,,,,2019_Jan_15_1804,60.66010582633617,Cloud_Experiment_FR_REAL,001,04,
images/fcloud65-35_D1.7_6.tif,1.7,1,,,,,,,,,0,84,84,65,,,,,,,,,,,,,,,1,space,4,0.603,6.07789226939,,,,,2019_Jan_15_1804,60.66010582633617,Cloud_Experiment_FR_REAL,001,04,
images/fcloud80-20_D1.5_6.tif,1.5,2,,,,,,,,,0,85,85,95,,,,,,,,,,,,,,,1,space,4,0.936,3.38759840952,,,,,2019_Jan_15_1804,60.66010582633617,Cloud_Experiment_FR_REAL,001,04,
images/fcloud65-35_D1.5_4.tif,1.5,1,,,,,,,,,0,86,86,57,,,,,,,,,,,,,,,2,space,5,0.969,3.70043566209,,,,,2019_Jan_15_1804,60.66010582633617,Cloud_Experiment_FR_REAL,001,04,
images/fcloud65-35_D1.7_4.tif,1.7,1,,,,,,,,,0,87,87,63,,,,,,,,,,,,,,,None,None,None,10.008,,,,,,2019_Jan_15_1804,60.66010582633617,Cloud_Experiment_FR_REAL,001,04,
images/fcloud_D1.4_6.tif,1.4,0,,,,,,,,,0,88,88,20,,,,,,,,,,,,,,,2,space,1,4.33,4.45790630308,,,,,2019_Jan_15_1804,60.66010582633617,Cloud_Experiment_FR_REAL,001,04,
images/fcloud65-35_D1.3_6.tif,1.3,1,,,,,,,,,0,89,89,53,,,,,,,,,,,,,,,1,space,5,0.453,4.36223953447,,,,,2019_Jan_15_1804,60.66010582633617,Cloud_Experiment_FR_REAL,001,04,
images/fcloud80-20_D1.3_5.tif,1.3,2,,,,,,,,,0,90,90,88,,,,,,,,,,,,,,,None,None,None,9.328,,,,,,2019_Jan_15_1804,60.66010582633617,Cloud_Experiment_FR_REAL,001,04,
images/fcloud_D1.9_5.tif,1.9,0,,,,,,,,,0,91,91,34,,,,,,,,,,,,,,,3,space,5,5.2,5.248801865,,,,,2019_Jan_15_1804,60.66010582633617,Cloud_Experiment_FR_REAL,001,04,
images/fcloud80-20_D0.9_5.tif,0.9,2,,,,,,,,,0,92,92,76,,,,,,,,,,,,,,,1,space,5,0.52,3.87297378574,,,,,2019_Jan_15_1804,60.66010582633617,Cloud_Experiment_FR_REAL,001,04,
images/fcloud_D1.3_4.tif,1.3,0,,,,,,,,,0,93,93,15,,,,,,,,,,,,,,,1,space,4,0.636,6.21838159888,,,,,2019_Jan_15_1804,60.66010582633617,Cloud_Experiment_FR_REAL,001,04,
images/fcloud65-35_D1.9_6.tif,1.9,1,,,,,,,,,0,94,94,71,,,,,,,,,,,,,,,1,space,4,0.451,8.38523735231,,,,,2019_Jan_15_1804,60.66010582633617,Cloud_Experiment_FR_REAL,001,04,
images/fcloud_D1.4_4.tif,1.4,0,,,,,,,,,0,95,95,18,,,,,,,,,,,,,,,None,None,None,9.145,,,,,,2019_Jan_15_1804,60.66010582633617,Cloud_Experiment_FR_REAL,001,04,
images/fcloud_D1_6.tif,1.0,0,,,,,,,,,0,96,96,8,,,,,,,,,,,,,,,3,space,5,0.604,2.19722255779,,,,,2019_Jan_15_1804,60.66010582633617,Cloud_Experiment_FR_REAL,001,04,
images/fcloud_D1.5_6.tif,1.5,0,,,,,,,,,0,97,97,23,,,,,,,,,,,,,,,5,space,5,0.669,6.03832335639,,,,,2019_Jan_15_1804,60.66010582633617,Cloud_Experiment_FR_REAL,001,04,
images/fcloud65-35_D1.8_6.tif,1.8,1,,,,,,,,,0,98,98,68,,,,,,,,,,,,,,,1,None,2,0.552,,,,,,2019_Jan_15_1804,60.66010582633617,Cloud_Experiment_FR_REAL,001,04,
images/fcloud_D1_5.tif,1.0,0,,,,,,,,,0,99,99,7,,,,,,,,,,,,,,,1,space,5,0.538,4.66976762118,,,,,2019_Jan_15_1804,60.66010582633617,Cloud_Experiment_FR_REAL,001,04,
images/fcloud80-20_D1.8_5.tif,1.8,2,,,,,,,,,0,100,100,103,,,,,,,,,,,,,,,1,None,2,0.82,,,,,,2019_Jan_15_1804,60.66010582633617,Cloud_Experiment_FR_REAL,001,04,
images/fcloud_D1.1_6.tif,1.1,0,,,,,,,,,0,101,101,11,,,,,,,,,,,,,,,4,space,5,0.867,1.8949912996,,,,,2019_Jan_15_1804,60.66010582633617,Cloud_Experiment_FR_REAL,001,04,
images/fcloud80-20_D0.9_4.tif,0.9,2,,,,,,,,,0,102,102,75,,,,,,,,,,,,,,,2,space,5,0.638,3.22970110239,,,,,2019_Jan_15_1804,60.66010582633617,Cloud_Experiment_FR_REAL,001,04,
images/fcloud_D1.6_5.tif,1.6,0,,,,,,,,,0,103,103,25,,,,,,,,,,,,,,,1,space,3,0.485,7.64082989129,,,,,2019_Jan_15_1804,60.66010582633617,Cloud_Experiment_FR_REAL,001,04,
images/fcloud_D0.8_4.tif,0.8,0,,,,,,,,,0,104,104,0,,,,,,,,,,,,,,,2,space,5,1.818,3.59607929821,,,,,2019_Jan_15_1804,60.66010582633617,Cloud_Experiment_FR_REAL,001,04,
images/fcloud80-20_D1.1_5.tif,1.1,2,,,,,,,,,0,105,105,82,,,,,,,,,,,,,,,1,space,2,0.502,6.97283010723,,,,,2019_Jan_15_1804,60.66010582633617,Cloud_Experiment_FR_REAL,001,04,
images/fcloud65-35_D1.6_4.tif,1.6,1,,,,,,,,,0,106,106,60,,,,,,,,,,,,,,,1,space,2,0.635,5.58353737055,,,,,2019_Jan_15_1804,60.66010582633617,Cloud_Experiment_FR_REAL,001,04,
images/fcloud_D0.8_6.tif,0.8,0,,,,,,,,,0,107,107,2,,,,,,,,,,,,,,,1,space,4,0.535,7.30987166605,,,,,2019_Jan_15_1804,60.66010582633617,Cloud_Experiment_FR_REAL,001,04,
,,,,,,,,,,,,,,,,,,,,,,,,,5,556.143,,,,,,,,,,,,2019_Jan_15_1804,60.66010582633617,Cloud_Experiment_FR_REAL,001,04,
,,,,,,,,,,,,,,,,,,,,,,,,,,,,,,,,,,,,space,8.62774923342,2019_Jan_15_1804,60.66010582633617,Cloud_Experiment_FR_REAL,001,04,
images/fcloud65-35_D1.7_9.tif,1.7,1,,,,,,,,,,,,,0,0,0,86,,,,,,,,,,,1,space,2,0.503,5.29504424732,,,,,2019_Jan_15_1804,60.66010582633617,Cloud_Experiment_FR_REAL,001,04,
images/fcloud65-35_D0.9_9.tif,0.9,1,,,,,,,,,,,,,0,1,1,54,,,,,,,,,,,2,space,4,1.184,5.54039371514,,,,,2019_Jan_15_1804,60.66010582633617,Cloud_Experiment_FR_REAL,001,04,
images/fcloud65-35_D1.9_10.tif,1.9,1,,,,,,,,,,,,,0,2,2,95,,,,,,,,,,,1,space,2,0.45,5.69310934219,,,,,2019_Jan_15_1804,60.66010582633617,Cloud_Experiment_FR_REAL,001,04,
images/fcloud_D1.6_8.tif,1.6,0,,,,,,,,,,,,,0,3,3,33,,,,,,,,,,,1,space,4,1.283,4.79939649877,,,,,2019_Jan_15_1804,60.66010582633617,Cloud_Experiment_FR_REAL,001,04,
images/fcloud80-20_D1.4_7.tif,1.4,2,,,,,,,,,,,,,0,4,4,120,,,,,,,,,,,None,None,None,10.778,,,,,,2019_Jan_15_1804,60.66010582633617,Cloud_Experiment_FR_REAL,001,04,
images/fcloud80-20_D1.5_9.tif,1.5,2,,,,,,,,,,,,,0,5,5,126,,,,,,,,,,,None,None,None,19.717,,,,,,2019_Jan_15_1804,60.66010582633617,Cloud_Experiment_FR_REAL,001,04,
images/fcloud_D1.4_7.tif,1.4,0,,,,,,,,,,,,,0,6,6,24,,,,,,,,,,,3,space,5,1.4,4.74233684517,,,,,2019_Jan_15_1804,60.66010582633617,Cloud_Experiment_FR_REAL,001,04,
images/fcloud_D1.2_8.tif,1.2,0,,,,,,,,,,,,,0,7,7,17,,,,,,,,,,,2,space,5,2.253,2.26385341192,,,,,2019_Jan_15_1804,60.66010582633617,Cloud_Experiment_FR_REAL,001,04,
images/fcloud80-20_D1.4_9.tif,1.4,2,,,,,,,,,,,,,0,8,8,122,,,,,,,,,,,None,None,None,11.475,,,,,,2019_Jan_15_1804,60.66010582633617,Cloud_Experiment_FR_REAL,001,04,
images/fcloud_D1.7_10.tif,1.7,0,,,,,,,,,,,,,0,9,9,39,,,,,,,,,,,2,space,4,1.219,5.70354261392,,,,,2019_Jan_15_1804,60.66010582633617,Cloud_Experiment_FR_REAL,001,04,
images/fcloud65-35_D1_8.tif,1.0,1,,,,,,,,,,,,,0,10,10,57,,,,,,,,,,,None,None,None,9.775,,,,,,2019_Jan_15_1804,60.66010582633617,Cloud_Experiment_FR_REAL,001,04,
images/fcloud80-20_D1.3_9.tif,1.3,2,,,,,,,,,,,,,0,11,11,118,,,,,,,,,,,4,space,4,1.8,3.22314329556,,,,,2019_Jan_15_1804,60.66010582633617,Cloud_Experiment_FR_REAL,001,04,
images/fcloud_D1.8_7.tif,1.8,0,,,,,,,,,,,,,0,12,12,40,,,,,,,,,,,5,space,5,0.503,2.82838769045,,,,,2019_Jan_15_1804,60.66010582633617,Cloud_Experiment_FR_REAL,001,04,
images/fcloud65-35_D1.6_9.tif,1.6,1,,,,,,,,,,,,,0,13,13,82,,,,,,,,,,,4,None,4,1.301,,,,,,2019_Jan_15_1804,60.66010582633617,Cloud_Experiment_FR_REAL,001,04,
images/fcloud65-35_D1.9_8.tif,1.9,1,,,,,,,,,,,,,0,14,14,93,,,,,,,,,,,2,space,3,1.352,4.2964836029,,,,,2019_Jan_15_1804,60.66010582633617,Cloud_Experiment_FR_REAL,001,04,
images/fcloud65-35_D0.9_7.tif,0.9,1,,,,,,,,,,,,,0,15,15,52,,,,,,,,,,,1,space,5,0.535,3.04127095095,,,,,2019_Jan_15_1804,60.66010582633617,Cloud_Experiment_FR_REAL,001,04,
images/fcloud65-35_D1.5_7.tif,1.5,1,,,,,,,,,,,,,0,16,16,76,,,,,,,,,,,None,None,None,10.025,,,,,,2019_Jan_15_1804,60.66010582633617,Cloud_Experiment_FR_REAL,001,04,
images/fcloud_D0.8_9.tif,0.8,0,,,,,,,,,,,,,0,17,17,2,,,,,,,,,,,5,space,5,0.419,1.00988477442,,,,,2019_Jan_15_1804,60.66010582633617,Cloud_Experiment_FR_REAL,001,04,
images/fcloud80-20_D1.9_10.tif,1.9,2,,,,,,,,,,,,,0,18,18,143,,,,,,,,,,,1,space,5,0.817,6.41950223999,,,,,2019_Jan_15_1804,60.66010582633617,Cloud_Experiment_FR_REAL,001,04,
images/fcloud65-35_D1.1_10.tif,1.1,1,,,,,,,,,,,,,0,19,19,63,,,,,,,,,,,1,space,5,2.633,1.59776180208,,,,,2019_Jan_15_1804,60.66010582633617,Cloud_Experiment_FR_REAL,001,04,
images/fcloud_D1.8_8.tif,1.8,0,,,,,,,,,,,,,0,20,20,41,,,,,,,,,,,3,space,3,0.469,2.41689392208,,,,,2019_Jan_15_1804,60.66010582633617,Cloud_Experiment_FR_REAL,001,04,
images/fcloud65-35_D1.5_8.tif,1.5,1,,,,,,,,,,,,,0,21,21,77,,,,,,,,,,,3,space,2,0.471,5.41075404242,,,,,2019_Jan_15_1804,60.66010582633617,Cloud_Experiment_FR_REAL,001,04,
images/fcloud80-20_D0.9_10.tif,0.9,2,,,,,,,,,,,,,0,22,22,103,,,,,,,,,,,1,None,3,1.018,,,,,,2019_Jan_15_1804,60.66010582633617,Cloud_Experiment_FR_REAL,001,04,
images/fcloud65-35_D0.8_8.tif,0.8,1,,,,,,,,,,,,,0,23,23,49,,,,,,,,,,,None,None,None,10.477,,,,,,2019_Jan_15_1804,60.66010582633617,Cloud_Experiment_FR_REAL,001,04,
images/fcloud65-35_D1.2_8.tif,1.2,1,,,,,,,,,,,,,0,24,24,65,,,,,,,,,,,3,space,5,0.601,3.73313473654,,,,,2019_Jan_15_1804,60.66010582633617,Cloud_Experiment_FR_REAL,001,04,
images/fcloud_D0.9_8.tif,0.9,0,,,,,,,,,,,,,0,25,25,5,,,,,,,,,,,2,space,4,0.652,4.2573079424,,,,,2019_Jan_15_1804,60.66010582633617,Cloud_Experiment_FR_REAL,001,04,
images/fcloud80-20_D0.9_8.tif,0.9,2,,,,,,,,,,,,,0,26,26,101,,,,,,,,,,,5,space,5,0.433,2.86138902954,,,,,2019_Jan_15_1804,60.66010582633617,Cloud_Experiment_FR_REAL,001,04,
images/fcloud_D0.8_8.tif,0.8,0,,,,,,,,,,,,,0,27,27,1,,,,,,,,,,,4,space,4,0.569,1.34621745066,,,,,2019_Jan_15_1804,60.66010582633617,Cloud_Experiment_FR_REAL,001,04,
images/fcloud80-20_D1.5_10.tif,1.5,2,,,,,,,,,,,,,0,28,28,127,,,,,,,,,,,2,space,3,0.501,4.20306839765,,,,,2019_Jan_15_1804,60.66010582633617,Cloud_Experiment_FR_REAL,001,04,
images/fcloud65-35_D1.2_10.tif,1.2,1,,,,,,,,,,,,,0,29,29,67,,,,,,,,,,,None,None,None,9.461,,,,,,2019_Jan_15_1804,60.66010582633617,Cloud_Experiment_FR_REAL,001,04,
images/fcloud80-20_D1_7.tif,1.0,2,,,,,,,,,,,,,0,30,30,104,,,,,,,,,,,None,None,None,18.485,,,,,,2019_Jan_15_1804,60.66010582633617,Cloud_Experiment_FR_REAL,001,04,
images/fcloud80-20_D1.3_8.tif,1.3,2,,,,,,,,,,,,,0,31,31,117,,,,,,,,,,,3,space,3,1.019,5.83600393764,,,,,2019_Jan_15_1804,60.66010582633617,Cloud_Experiment_FR_REAL,001,04,
images/fcloud80-20_D1.9_9.tif,1.9,2,,,,,,,,,,,,,0,32,32,142,,,,,,,,,,,1,None,2,0.621,,,,,,2019_Jan_15_1804,60.66010582633617,Cloud_Experiment_FR_REAL,001,04,
images/fcloud80-20_D1.6_7.tif,1.6,2,,,,,,,,,,,,,0,33,33,128,,,,,,,,,,,1,space,3,0.7,8.10959253384,,,,,2019_Jan_15_1804,60.66010582633617,Cloud_Experiment_FR_REAL,001,04,
images/fcloud65-35_D1.3_7.tif,1.3,1,,,,,,,,,,,,,0,34,34,68,,,,,,,,,,,1,space,2,0.619,7.62906778592,,,,,2019_Jan_15_1804,60.66010582633617,Cloud_Experiment_FR_REAL,001,04,
images/fcloud_D0.8_10.tif,0.8,0,,,,,,,,,,,,,0,35,35,3,,,,,,,,,,,2,space,3,0.501,2.70041098743,,,,,2019_Jan_15_1804,60.66010582633617,Cloud_Experiment_FR_REAL,001,04,
images/fcloud80-20_D1.5_8.tif,1.5,2,,,,,,,,,,,,,0,36,36,125,,,,,,,,,,,None,None,None,9.646,,,,,,2019_Jan_15_1804,60.66010582633617,Cloud_Experiment_FR_REAL,001,04,
images/fcloud65-35_D1.6_8.tif,1.6,1,,,,,,,,,,,,,0,37,37,81,,,,,,,,,,,3,space,4,0.753,4.29628209313,,,,,2019_Jan_15_1804,60.66010582633617,Cloud_Experiment_FR_REAL,001,04,
images/fcloud_D1.4_9.tif,1.4,0,,,,,,,,,,,,,0,38,38,26,,,,,,,,,,,5,space,5,0.437,2.04563939516,,,,,2019_Jan_15_1804,60.66010582633617,Cloud_Experiment_FR_REAL,001,04,
images/fcloud65-35_D1.8_7.tif,1.8,1,,,,,,,,,,,,,0,39,39,88,,,,,,,,,,,2,space,3,0.72,5.35845043091,,,,,2019_Jan_15_1804,60.66010582633617,Cloud_Experiment_FR_REAL,001,04,
images/fcloud65-35_D1.9_7.tif,1.9,1,,,,,,,,,,,,,0,40,40,92,,,,,,,,,,,1,space,3,1.002,5.50333390734,,,,,2019_Jan_15_1804,60.66010582633617,Cloud_Experiment_FR_REAL,001,04,
images/fcloud_D1_7.tif,1.0,0,,,,,,,,,,,,,0,41,41,8,,,,,,,,,,,3,space,5,0.7,2.90386492677,,,,,2019_Jan_15_1804,60.66010582633617,Cloud_Experiment_FR_REAL,001,04,
images/fcloud_D1.3_10.tif,1.3,0,,,,,,,,,,,,,0,42,42,23,,,,,,,,,,,3,space,5,0.802,3.66189383212,,,,,2019_Jan_15_1804,60.66010582633617,Cloud_Experiment_FR_REAL,001,04,
images/fcloud80-20_D0.8_7.tif,0.8,2,,,,,,,,,,,,,0,43,43,96,,,,,,,,,,,1,space,5,0.568,1.85614463466,,,,,2019_Jan_15_1804,60.66010582633617,Cloud_Experiment_FR_REAL,001,04,
images/fcloud_D1.9_8.tif,1.9,0,,,,,,,,,,,,,0,44,44,45,,,,,,,,,,,None,None,None,9.762,,,,,,2019_Jan_15_1804,60.66010582633617,Cloud_Experiment_FR_REAL,001,04,
images/fcloud65-35_D1.4_8.tif,1.4,1,,,,,,,,,,,,,0,45,45,73,,,,,,,,,,,2,space,3,0.933,3.64922184838,,,,,2019_Jan_15_1804,60.66010582633617,Cloud_Experiment_FR_REAL,001,04,
images/fcloud_D1.2_9.tif,1.2,0,,,,,,,,,,,,,0,46,46,18,,,,,,,,,,,1,space,2,0.936,4.97018631946,,,,,2019_Jan_15_1804,60.66010582633617,Cloud_Experiment_FR_REAL,001,04,
images/fcloud80-20_D1.3_10.tif,1.3,2,,,,,,,,,,,,,0,47,47,119,,,,,,,,,,,None,None,None,10.06,,,,,,2019_Jan_15_1804,60.66010582633617,Cloud_Experiment_FR_REAL,001,04,
images/fcloud65-35_D1.2_9.tif,1.2,1,,,,,,,,,,,,,0,48,48,66,,,,,,,,,,,1,space,3,0.651,4.67324829142,,,,,2019_Jan_15_1804,60.66010582633617,Cloud_Experiment_FR_REAL,001,04,
images/fcloud80-20_D0.8_9.tif,0.8,2,,,,,,,,,,,,,0,49,49,98,,,,,,,,,,,1,space,2,1.384,4.28569923123,,,,,2019_Jan_15_1804,60.66010582633617,Cloud_Experiment_FR_REAL,001,04,
images/fcloud_D1.3_8.tif,1.3,0,,,,,,,,,,,,,0,50,50,21,,,,,,,,,,,2,space,3,2.021,2.90811308194,,,,,2019_Jan_15_1804,60.66010582633617,Cloud_Experiment_FR_REAL,001,04,
images/fcloud65-35_D1.1_8.tif,1.1,1,,,,,,,,,,,,,0,51,51,61,,,,,,,,,,,None,None,None,11.526,,,,,,2019_Jan_15_1804,60.66010582633617,Cloud_Experiment_FR_REAL,001,04,
images/fcloud_D1_8.tif,1.0,0,,,,,,,,,,,,,0,52,52,9,,,,,,,,,,,2,space,5,0.634,3.76566674293,,,,,2019_Jan_15_1804,60.66010582633617,Cloud_Experiment_FR_REAL,001,04,
images/fcloud80-20_D1.8_7.tif,1.8,2,,,,,,,,,,,,,0,53,53,136,,,,,,,,,,,2,space,5,0.486,3.92864908767,,,,,2019_Jan_15_1804,60.66010582633617,Cloud_Experiment_FR_REAL,001,04,
images/fcloud80-20_D1.8_9.tif,1.8,2,,,,,,,,,,,,,0,54,54,138,,,,,,,,,,,3,space,3,1.667,6.36789671596,,,,,2019_Jan_15_1804,60.66010582633617,Cloud_Experiment_FR_REAL,001,04,
images/fcloud80-20_D1.1_10.tif,1.1,2,,,,,,,,,,,,,0,55,55,111,,,,,,,,,,,None,None,None,10.742,,,,,,2019_Jan_15_1804,60.66010582633617,Cloud_Experiment_FR_REAL,001,04,
images/fcloud80-20_D1.5_7.tif,1.5,2,,,,,,,,,,,,,0,56,56,124,,,,,,,,,,,1,space,5,1.384,6.60488455597,,,,,2019_Jan_15_1804,60.66010582633617,Cloud_Experiment_FR_REAL,001,04,
images/fcloud80-20_D1_9.tif,1.0,2,,,,,,,,,,,,,0,57,57,106,,,,,,,,,,,1,space,2,0.67,7.81563551404,,,,,2019_Jan_15_1804,60.66010582633617,Cloud_Experiment_FR_REAL,001,04,
images/fcloud65-35_D1.3_9.tif,1.3,1,,,,,,,,,,,,,0,58,58,70,,,,,,,,,,,1,space,2,2.45,2.03960643907,,,,,2019_Jan_15_1804,60.66010582633617,Cloud_Experiment_FR_REAL,001,04,
images/fcloud_D1.9_9.tif,1.9,0,,,,,,,,,,,,,0,59,59,46,,,,,,,,,,,None,None,None,12.258,,,,,,2019_Jan_15_1804,60.66010582633617,Cloud_Experiment_FR_REAL,001,04,
images/fcloud65-35_D1.8_8.tif,1.8,1,,,,,,,,,,,,,0,60,60,89,,,,,,,,,,,2,space,4,0.636,6.875575935,,,,,2019_Jan_15_1804,60.66010582633617,Cloud_Experiment_FR_REAL,001,04,
images/fcloud65-35_D0.8_10.tif,0.8,1,,,,,,,,,,,,,0,61,61,51,,,,,,,,,,,1,space,4,3.667,7.96694674128,,,,,2019_Jan_15_1804,60.66010582633617,Cloud_Experiment_FR_REAL,001,04,
images/fcloud_D1.8_10.tif,1.8,0,,,,,,,,,,,,,0,62,62,43,,,,,,,,,,,1,space,4,0.984,6.05667462596,,,,,2019_Jan_15_1804,60.66010582633617,Cloud_Experiment_FR_REAL,001,04,
images/fcloud80-20_D1.2_7.tif,1.2,2,,,,,,,,,,,,,0,63,63,112,,,,,,,,,,,1,space,2,0.587,7.73752065861,,,,,2019_Jan_15_1804,60.66010582633617,Cloud_Experiment_FR_REAL,001,04,
images/fcloud_D1.5_7.tif,1.5,0,,,,,,,,,,,,,0,64,64,28,,,,,,,,,,,None,None,None,9.696,,,,,,2019_Jan_15_1804,60.66010582633617,Cloud_Experiment_FR_REAL,001,04,
images/fcloud80-20_D1.2_8.tif,1.2,2,,,,,,,,,,,,,0,65,65,113,,,,,,,,,,,2,space,3,1.117,6.15577837007,,,,,2019_Jan_15_1804,60.66010582633617,Cloud_Experiment_FR_REAL,001,04,
images/fcloud_D1.5_10.tif,1.5,0,,,,,,,,,,,,,0,66,66,31,,,,,,,,,,,5,space,5,0.451,4.07952285363,,,,,2019_Jan_15_1804,60.66010582633617,Cloud_Experiment_FR_REAL,001,04,
images/fcloud65-35_D1.7_8.tif,1.7,1,,,,,,,,,,,,,0,67,67,85,,,,,,,,,,,2,space,3,1.1,7.54849471679,,,,,2019_Jan_15_1804,60.66010582633617,Cloud_Experiment_FR_REAL,001,04,
images/fcloud_D1.1_7.tif,1.1,0,,,,,,,,,,,,,0,68,68,12,,,,,,,,,,,1,space,4,1.77,3.31499885622,,,,,2019_Jan_15_1804,60.66010582633617,Cloud_Experiment_FR_REAL,001,04,
images/fcloud65-35_D0.8_9.tif,0.8,1,,,,,,,,,,,,,0,69,69,50,,,,,,,,,,,1,space,5,0.619,6.4419474481,,,,,2019_Jan_15_1804,60.66010582633617,Cloud_Experiment_FR_REAL,001,04,
images/fcloud_D1.7_8.tif,1.7,0,,,,,,,,,,,,,0,70,70,37,,,,,,,,,,,1,space,1,1.388,3.20828554756,,,,,2019_Jan_15_1804,60.66010582633617,Cloud_Experiment_FR_REAL,001,04,
images/fcloud80-20_D1.4_8.tif,1.4,2,,,,,,,,,,,,,0,71,71,121,,,,,,,,,,,2,space,5,1.553,3.78811554943,,,,,2019_Jan_15_1804,60.66010582633617,Cloud_Experiment_FR_REAL,001,04,
images/fcloud80-20_D0.9_9.tif,0.9,2,,,,,,,,,,,,,0,72,72,102,,,,,,,,,,,1,None,2,0.651,,,,,,2019_Jan_15_1804,60.66010582633617,Cloud_Experiment_FR_REAL,001,04,
images/fcloud65-35_D1.5_10.tif,1.5,1,,,,,,,,,,,,,0,73,73,79,,,,,,,,,,,3,space,3,0.786,6.19133456534,,,,,2019_Jan_15_1804,60.66010582633617,Cloud_Experiment_FR_REAL,001,04,
images/fcloud65-35_D1.6_10.tif,1.6,1,,,,,,,,,,,,,0,74,74,83,,,,,,,,,,,None,None,None,9.893,,,,,,2019_Jan_15_1804,60.66010582633617,Cloud_Experiment_FR_REAL,001,04,
images/fcloud_D1.4_10.tif,1.4,0,,,,,,,,,,,,,0,75,75,27,,,,,,,,,,,1,space,2,1.119,3.60356703156,,,,,2019_Jan_15_1804,60.66010582633617,Cloud_Experiment_FR_REAL,001,04,
images/fcloud80-20_D1.1_9.tif,1.1,2,,,,,,,,,,,,,0,76,76,110,,,,,,,,,,,None,None,None,10.241,,,,,,2019_Jan_15_1804,60.66010582633617,Cloud_Experiment_FR_REAL,001,04,
images/fcloud_D1.6_9.tif,1.6,0,,,,,,,,,,,,,0,77,77,34,,,,,,,,,,,5,space,5,0.568,4.50464320689,,,,,2019_Jan_15_1804,60.66010582633617,Cloud_Experiment_FR_REAL,001,04,
images/fcloud80-20_D1.8_8.tif,1.8,2,,,,,,,,,,,,,0,78,78,137,,,,,,,,,,,1,space,3,2.917,7.48608374479,,,,,2019_Jan_15_1804,60.66010582633617,Cloud_Experiment_FR_REAL,001,04,
images/fcloud65-35_D1.7_10.tif,1.7,1,,,,,,,,,,,,,0,79,79,87,,,,,,,,,,,1,space,3,0.885,7.20607305242,,,,,2019_Jan_15_1804,60.66010582633617,Cloud_Experiment_FR_REAL,001,04,
images/fcloud_D1.1_9.tif,1.1,0,,,,,,,,,,,,,0,80,80,14,,,,,,,,,,,3,space,4,1.202,4.31086533543,,,,,2019_Jan_15_1804,60.66010582633617,Cloud_Experiment_FR_REAL,001,04,
images/fcloud80-20_D1.1_8.tif,1.1,2,,,,,,,,,,,,,0,81,81,109,,,,,,,,,,,1,None,2,0.452,,,,,,2019_Jan_15_1804,60.66010582633617,Cloud_Experiment_FR_REAL,001,04,
images/fcloud_D0.9_10.tif,0.9,0,,,,,,,,,,,,,0,82,82,7,,,,,,,,,,,2,space,5,0.719,2.20816011803,,,,,2019_Jan_15_1804,60.66010582633617,Cloud_Experiment_FR_REAL,001,04,
images/fcloud_D1.8_9.tif,1.8,0,,,,,,,,,,,,,0,83,83,42,,,,,,,,,,,2,space,3,1.033,7.82953711867,,,,,2019_Jan_15_1804,60.66010582633617,Cloud_Experiment_FR_REAL,001,04,
images/fcloud_D1.3_9.tif,1.3,0,,,,,,,,,,,,,0,84,84,22,,,,,,,,,,,None,None,None,10.328,,,,,,2019_Jan_15_1804,60.66010582633617,Cloud_Experiment_FR_REAL,001,04,
images/fcloud_D1.1_8.tif,1.1,0,,,,,,,,,,,,,0,85,85,13,,,,,,,,,,,1,space,5,1.352,5.09403052976,,,,,2019_Jan_15_1804,60.66010582633617,Cloud_Experiment_FR_REAL,001,04,
images/fcloud_D1.5_8.tif,1.5,0,,,,,,,,,,,,,0,86,86,29,,,,,,,,,,,1,space,4,1.554,3.52506560634,,,,,2019_Jan_15_1804,60.66010582633617,Cloud_Experiment_FR_REAL,001,04,
images/fcloud65-35_D1.8_10.tif,1.8,1,,,,,,,,,,,,,0,87,87,91,,,,,,,,,,,1,space,5,1.65,4.83991692861,,,,,2019_Jan_15_1804,60.66010582633617,Cloud_Experiment_FR_REAL,001,04,
images/fcloud65-35_D1.4_7.tif,1.4,1,,,,,,,,,,,,,0,88,88,72,,,,,,,,,,,1,space,5,0.653,3.11704582549,,,,,2019_Jan_15_1804,60.66010582633617,Cloud_Experiment_FR_REAL,001,04,
images/fcloud_D1.9_7.tif,1.9,0,,,,,,,,,,,,,0,89,89,44,,,,,,,,,,,1,space,2,0.769,6.62648619889,,,,,2019_Jan_15_1804,60.66010582633617,Cloud_Experiment_FR_REAL,001,04,
images/fcloud65-35_D1.7_7.tif,1.7,1,,,,,,,,,,,,,0,90,90,84,,,,,,,,,,,1,None,2,2.566,,,,,,2019_Jan_15_1804,60.66010582633617,Cloud_Experiment_FR_REAL,001,04,
images/fcloud_D1.2_7.tif,1.2,0,,,,,,,,,,,,,0,91,91,16,,,,,,,,,,,2,space,4,0.652,3.793329615,,,,,2019_Jan_15_1804,60.66010582633617,Cloud_Experiment_FR_REAL,001,04,
images/fcloud65-35_D1_9.tif,1.0,1,,,,,,,,,,,,,0,92,92,58,,,,,,,,,,,1,None,3,1.484,,,,,,2019_Jan_15_1804,60.66010582633617,Cloud_Experiment_FR_REAL,001,04,
images/fcloud65-35_D1.3_10.tif,1.3,1,,,,,,,,,,,,,0,93,93,71,,,,,,,,,,,None,None,None,10.675,,,,,,2019_Jan_15_1804,60.66010582633617,Cloud_Experiment_FR_REAL,001,04,
images/fcloud65-35_D1.1_9.tif,1.1,1,,,,,,,,,,,,,0,94,94,62,,,,,,,,,,,2,space,4,0.668,3.77041558822,,,,,2019_Jan_15_1804,60.66010582633617,Cloud_Experiment_FR_REAL,001,04,
images/fcloud80-20_D1.3_7.tif,1.3,2,,,,,,,,,,,,,0,95,95,116,,,,,,,,,,,2,space,3,0.569,4.53216111532,,,,,2019_Jan_15_1804,60.66010582633617,Cloud_Experiment_FR_REAL,001,04,
images/fcloud80-20_D0.9_7.tif,0.9,2,,,,,,,,,,,,,0,96,96,100,,,,,,,,,,,2,space,3,0.605,2.24991171094,,,,,2019_Jan_15_1804,60.66010582633617,Cloud_Experiment_FR_REAL,001,04,
images/fcloud80-20_D1.7_7.tif,1.7,2,,,,,,,,,,,,,0,97,97,132,,,,,,,,,,,None,None,None,9.46,,,,,,2019_Jan_15_1804,60.66010582633617,Cloud_Experiment_FR_REAL,001,04,
images/fcloud_D1.3_7.tif,1.3,0,,,,,,,,,,,,,0,98,98,20,,,,,,,,,,,4,space,5,0.706,2.13630645938,,,,,2019_Jan_15_1804,60.66010582633617,Cloud_Experiment_FR_REAL,001,04,
images/fcloud80-20_D1_8.tif,1.0,2,,,,,,,,,,,,,0,99,99,105,,,,,,,,,,,1,space,3,0.752,1.4916699866,,,,,2019_Jan_15_1804,60.66010582633617,Cloud_Experiment_FR_REAL,001,04,
images/fcloud80-20_D1.6_10.tif,1.6,2,,,,,,,,,,,,,0,100,100,131,,,,,,,,,,,1,space,4,0.92,7.26973112323,,,,,2019_Jan_15_1804,60.66010582633617,Cloud_Experiment_FR_REAL,001,04,
images/fcloud_D0.9_7.tif,0.9,0,,,,,,,,,,,,,0,101,101,4,,,,,,,,,,,2,space,4,0.918,1.25005256216,,,,,2019_Jan_15_1804,60.66010582633617,Cloud_Experiment_FR_REAL,001,04,
images/fcloud65-35_D1_7.tif,1.0,1,,,,,,,,,,,,,0,102,102,56,,,,,,,,,,,5,space,5,0.784,2.04348498827,,,,,2019_Jan_15_1804,60.66010582633617,Cloud_Experiment_FR_REAL,001,04,
images/fcloud80-20_D1.9_7.tif,1.9,2,,,,,,,,,,,,,0,103,103,140,,,,,,,,,,,2,space,4,0.768,4.57726692077,,,,,2019_Jan_15_1804,60.66010582633617,Cloud_Experiment_FR_REAL,001,04,
images/fcloud80-20_D1.4_10.tif,1.4,2,,,,,,,,,,,,,0,104,104,123,,,,,,,,,,,None,None,None,9.843,,,,,,2019_Jan_15_1804,60.66010582633617,Cloud_Experiment_FR_REAL,001,04,
images/fcloud65-35_D1_10.tif,1.0,1,,,,,,,,,,,,,0,105,105,59,,,,,,,,,,,None,None,None,18.438,,,,,,2019_Jan_15_1804,60.66010582633617,Cloud_Experiment_FR_REAL,001,04,
images/fcloud65-35_D1.9_9.tif,1.9,1,,,,,,,,,,,,,0,106,106,94,,,,,,,,,,,2,space,3,1.353,6.49469725983,,,,,2019_Jan_15_1804,60.66010582633617,Cloud_Experiment_FR_REAL,001,04,
images/fcloud80-20_D1.6_9.tif,1.6,2,,,,,,,,,,,,,0,107,107,130,,,,,,,,,,,None,None,None,10.426,,,,,,2019_Jan_15_1804,60.66010582633617,Cloud_Experiment_FR_REAL,001,04,
images/fcloud80-20_D1.7_9.tif,1.7,2,,,,,,,,,,,,,0,108,108,134,,,,,,,,,,,None,None,None,19.536,,,,,,2019_Jan_15_1804,60.66010582633617,Cloud_Experiment_FR_REAL,001,04,
images/fcloud80-20_D1.8_10.tif,1.8,2,,,,,,,,,,,,,0,109,109,139,,,,,,,,,,,1,space,3,0.618,6.63470491924,,,,,2019_Jan_15_1804,60.66010582633617,Cloud_Experiment_FR_REAL,001,04,
images/fcloud65-35_D1.3_8.tif,1.3,1,,,,,,,,,,,,,0,110,110,69,,,,,,,,,,,1,space,3,1.754,5.41959785434,,,,,2019_Jan_15_1804,60.66010582633617,Cloud_Experiment_FR_REAL,001,04,
images/fcloud80-20_D1.1_7.tif,1.1,2,,,,,,,,,,,,,0,111,111,108,,,,,,,,,,,None,None,None,10.258,,,,,,2019_Jan_15_1804,60.66010582633617,Cloud_Experiment_FR_REAL,001,04,
images/fcloud_D1.9_10.tif,1.9,0,,,,,,,,,,,,,0,112,112,47,,,,,,,,,,,5,space,5,0.618,3.99616822982,,,,,2019_Jan_15_1804,60.66010582633617,Cloud_Experiment_FR_REAL,001,04,
images/fcloud_D1.4_8.tif,1.4,0,,,,,,,,,,,,,0,113,113,25,,,,,,,,,,,2,space,5,1.085,5.53039482038,,,,,2019_Jan_15_1804,60.66010582633617,Cloud_Experiment_FR_REAL,001,04,
images/fcloud65-35_D1.2_7.tif,1.2,1,,,,,,,,,,,,,0,114,114,64,,,,,,,,,,,4,space,4,0.468,4.98482302352,,,,,2019_Jan_15_1804,60.66010582633617,Cloud_Experiment_FR_REAL,001,04,
images/fcloud_D1.7_9.tif,1.7,0,,,,,,,,,,,,,0,115,115,38,,,,,,,,,,,4,space,5,0.968,1.73723792803,,,,,2019_Jan_15_1804,60.66010582633617,Cloud_Experiment_FR_REAL,001,04,
images/fcloud_D1.5_9.tif,1.5,0,,,,,,,,,,,,,0,116,116,30,,,,,,,,,,,2,space,3,1.085,1.83118158244,,,,,2019_Jan_15_1804,60.66010582633617,Cloud_Experiment_FR_REAL,001,04,
images/fcloud65-35_D1.8_9.tif,1.8,1,,,,,,,,,,,,,0,117,117,90,,,,,,,,,,,2,space,3,0.769,2.66814988834,,,,,2019_Jan_15_1804,60.66010582633617,Cloud_Experiment_FR_REAL,001,04,
images/fcloud_D1.1_10.tif,1.1,0,,,,,,,,,,,,,0,118,118,15,,,,,,,,,,,3,space,5,0.835,1.60563764736,,,,,2019_Jan_15_1804,60.66010582633617,Cloud_Experiment_FR_REAL,001,04,
images/fcloud65-35_D0.9_8.tif,0.9,1,,,,,,,,,,,,,0,119,119,53,,,,,,,,,,,1,space,4,0.836,5.59257189711,,,,,2019_Jan_15_1804,60.66010582633617,Cloud_Experiment_FR_REAL,001,04,
images/fcloud_D0.9_9.tif,0.9,0,,,,,,,,,,,,,0,120,120,6,,,,,,,,,,,None,None,None,9.344,,,,,,2019_Jan_15_1804,60.66010582633617,Cloud_Experiment_FR_REAL,001,04,
images/fcloud80-20_D0.8_10.tif,0.8,2,,,,,,,,,,,,,0,121,121,99,,,,,,,,,,,None,None,None,17.757,,,,,,2019_Jan_15_1804,60.66010582633617,Cloud_Experiment_FR_REAL,001,04,
images/fcloud80-20_D0.8_8.tif,0.8,2,,,,,,,,,,,,,0,122,122,97,,,,,,,,,,,3,space,5,0.99,2.24218956826,,,,,2019_Jan_15_1804,60.66010582633617,Cloud_Experiment_FR_REAL,001,04,
images/fcloud_D1.7_7.tif,1.7,0,,,,,,,,,,,,,0,123,123,36,,,,,,,,,,,None,space,None,10.126,2.34248797753,,,,,2019_Jan_15_1804,60.66010582633617,Cloud_Experiment_FR_REAL,001,04,
images/fcloud80-20_D1.9_8.tif,1.9,2,,,,,,,,,,,,,0,124,124,141,,,,,,,,,,,None,None,None,19.039,,,,,,2019_Jan_15_1804,60.66010582633617,Cloud_Experiment_FR_REAL,001,04,
images/fcloud80-20_D1.7_8.tif,1.7,2,,,,,,,,,,,,,0,125,125,133,,,,,,,,,,,3,space,5,0.535,1.80907153853,,,,,2019_Jan_15_1804,60.66010582633617,Cloud_Experiment_FR_REAL,001,04,
images/fcloud_D1_9.tif,1.0,0,,,,,,,,,,,,,0,126,126,10,,,,,,,,,,,1,None,2,0.736,,,,,,2019_Jan_15_1804,60.66010582633617,Cloud_Experiment_FR_REAL,001,04,
images/fcloud65-35_D1.6_7.tif,1.6,1,,,,,,,,,,,,,0,127,127,80,,,,,,,,,,,1,space,3,0.587,3.653714694,,,,,2019_Jan_15_1804,60.66010582633617,Cloud_Experiment_FR_REAL,001,04,
images/fcloud80-20_D1.2_10.tif,1.2,2,,,,,,,,,,,,,0,128,128,115,,,,,,,,,,,1,space,1,0.42,3.22891151303,,,,,2019_Jan_15_1804,60.66010582633617,Cloud_Experiment_FR_REAL,001,04,
images/fcloud80-20_D1_10.tif,1.0,2,,,,,,,,,,,,,0,129,129,107,,,,,,,,,,,2,space,2,0.535,3.04737227646,,,,,2019_Jan_15_1804,60.66010582633617,Cloud_Experiment_FR_REAL,001,04,
images/fcloud_D1.6_10.tif,1.6,0,,,,,,,,,,,,,0,130,130,35,,,,,,,,,,,3,space,5,0.502,2.81328628011,,,,,2019_Jan_15_1804,60.66010582633617,Cloud_Experiment_FR_REAL,001,04,
images/fcloud65-35_D1.1_7.tif,1.1,1,,,,,,,,,,,,,0,131,131,60,,,,,,,,,,,2,space,3,0.685,4.48710928563,,,,,2019_Jan_15_1804,60.66010582633617,Cloud_Experiment_FR_REAL,001,04,
images/fcloud_D1_10.tif,1.0,0,,,,,,,,,,,,,0,132,132,11,,,,,,,,,,,2,space,4,2.167,1.89281838672,,,,,2019_Jan_15_1804,60.66010582633617,Cloud_Experiment_FR_REAL,001,04,
images/fcloud65-35_D1.4_9.tif,1.4,1,,,,,,,,,,,,,0,133,133,74,,,,,,,,,,,None,None,None,11.109,,,,,,2019_Jan_15_1804,60.66010582633617,Cloud_Experiment_FR_REAL,001,04,
images/fcloud65-35_D1.5_9.tif,1.5,1,,,,,,,,,,,,,0,134,134,78,,,,,,,,,,,1,space,5,0.586,4.84766117571,,,,,2019_Jan_15_1804,60.66010582633617,Cloud_Experiment_FR_REAL,001,04,
images/fcloud65-35_D1.4_10.tif,1.4,1,,,,,,,,,,,,,0,135,135,75,,,,,,,,,,,1,space,3,0.572,5.90324446169,,,,,2019_Jan_15_1804,60.66010582633617,Cloud_Experiment_FR_REAL,001,04,
images/fcloud65-35_D0.9_10.tif,0.9,1,,,,,,,,,,,,,0,136,136,55,,,,,,,,,,,2,space,5,1.036,1.38569074933,,,,,2019_Jan_15_1804,60.66010582633617,Cloud_Experiment_FR_REAL,001,04,
images/fcloud_D1.2_10.tif,1.2,0,,,,,,,,,,,,,0,137,137,19,,,,,,,,,,,3,space,4,1.352,2.39815402648,,,,,2019_Jan_15_1804,60.66010582633617,Cloud_Experiment_FR_REAL,001,04,
images/fcloud65-35_D0.8_7.tif,0.8,1,,,,,,,,,,,,,0,138,138,48,,,,,,,,,,,1,space,2,0.936,3.83053952703,,,,,2019_Jan_15_1804,60.66010582633617,Cloud_Experiment_FR_REAL,001,04,
images/fcloud_D0.8_7.tif,0.8,0,,,,,,,,,,,,,0,139,139,0,,,,,,,,,,,1,space,3,0.785,7.83701868335,,,,,2019_Jan_15_1804,60.66010582633617,Cloud_Experiment_FR_REAL,001,04,
images/fcloud80-20_D1.2_9.tif,1.2,2,,,,,,,,,,,,,0,140,140,114,,,,,,,,,,,None,None,None,10.061,,,,,,2019_Jan_15_1804,60.66010582633617,Cloud_Experiment_FR_REAL,001,04,
images/fcloud80-20_D1.7_10.tif,1.7,2,,,,,,,,,,,,,0,141,141,135,,,,,,,,,,,2,space,4,0.986,4.38072086012,,,,,2019_Jan_15_1804,60.66010582633617,Cloud_Experiment_FR_REAL,001,04,
images/fcloud80-20_D1.6_8.tif,1.6,2,,,,,,,,,,,,,0,142,142,129,,,,,,,,,,,1,space,4,0.852,3.16242099609,,,,,2019_Jan_15_1804,60.66010582633617,Cloud_Experiment_FR_REAL,001,04,
images/fcloud_D1.6_7.tif,1.6,0,,,,,,,,,,,,,0,143,143,32,,,,,,,,,,,None,None,None,9.225,,,,,,2019_Jan_15_1804,60.66010582633617,Cloud_Experiment_FR_REAL,001,04,
,,,,,,,,,,,,,,,,,,,,,,,,,3,5.823,,,,,,,,,,,,2019_Jan_15_1804,60.66010582633617,Cloud_Experiment_FR_REAL,001,04,
