ImageFile,FD,Contrast,trials_4.thisRepN,trials_4.thisTrialN,trials_4.thisN,trials_4.thisIndex,trials.thisRepN,trials.thisTrialN,trials.thisN,trials.thisIndex,trials_2.thisRepN,trials_2.thisTrialN,trials_2.thisN,trials_2.thisIndex,trials_3.thisRepN,trials_3.thisTrialN,trials_3.thisN,trials_3.thisIndex,end_instructions.keys,end_instructions.rt,key_resp_4.keys,key_resp_4.rt,key_resp_6.keys,key_resp_6.rt,Fatigue.response,Fatigue.rt,key_resp_5.keys,key_resp_5.rt,n_objets.response,reaction_time.keys,reaction_time.rt,vividness.response,vividness.rt,key_resp_2.keys,key_resp_2.rt,key_resp_3.keys,key_resp_3.rt,date,frameRate,expName,session,participant,
,,,,,,,,,,,,,,,,,,,space,8.02049231104,,,,,,,,,,,,,,,,,,2019_Jan_16_1616,60.03150757049898,Cloud_Experiment_FR_REAL,001,05,
,,,,,,,,,,,,,,,,,,,,,space,37.0507043846,,,,,,,,,,,,,,,,2019_Jan_16_1616,60.03150757049898,Cloud_Experiment_FR_REAL,001,05,
,,,,,,,,,,,,,,,,,,,,,,,space,99.0162127984,,,,,,,,,,,,,,2019_Jan_16_1616,60.03150757049898,Cloud_Experiment_FR_REAL,001,05,
,,,,,,,,,,,,,,,,,,,,,,,,,9,11.637,,,,,,,,,,,,2019_Jan_16_1616,60.03150757049898,Cloud_Experiment_FR_REAL,001,05,
,,,,,,,,,,,,,,,,,,,,,,,,,,,space,3.06624377024,,,,,,,,,,2019_Jan_16_1616,60.03150757049898,Cloud_Experiment_FR_REAL,001,05,
pratique/fcloud_D1.4_30,1.4,0,0,0,0,1,,,,,,,,,,,,,,,,,,,,,,,2,space,0.00494367233478,2,5.082,,,,,2019_Jan_16_1616,60.03150757049898,Cloud_Experiment_FR_REAL,001,05,
pratique/fcloud65-35_D1.2_30,1.2,1,0,1,1,3,,,,,,,,,,,,,,,,,,,,,,,2,space,3.4235797287,3,2.666,,,,,2019_Jan_16_1616,60.03150757049898,Cloud_Experiment_FR_REAL,001,05,
pratique/fcloud65-35_D1.6_30,1.6,1,0,2,2,2,,,,,,,,,,,,,,,,,,,,,,,1,space,6.00642518047,1,2.516,,,,,2019_Jan_16_1616,60.03150757049898,Cloud_Experiment_FR_REAL,001,05,
pratique/fcloud_D0.8_30,0.8,0,0,3,3,0,,,,,,,,,,,,,,,,,,,,,,,None,None,,None,12.473,,,,,2019_Jan_16_1616,60.03150757049898,Cloud_Experiment_FR_REAL,001,05,
pratique/fcloud80-20_D1.8_30,1.8,2,0,4,4,4,,,,,,,,,,,,,,,,,,,,,,,3,space,4.84846258833,3,3.349,,,,,2019_Jan_16_1616,60.03150757049898,Cloud_Experiment_FR_REAL,001,05,
,,,,,,,,,,,,,,,,,,,,,,,,,,,,,,,,,,space,71.5397845593,,,2019_Jan_16_1616,60.03150757049898,Cloud_Experiment_FR_REAL,001,05,
images/fcloud_D1.1_3.tif,1.1,0,,,,,0,0,0,11,,,,,,,,,,,,,,,,,,,1,space,5.97702428652,1,1.651,,,,,2019_Jan_16_1616,60.03150757049898,Cloud_Experiment_FR_REAL,001,05,
images/fcloud80-20_D1.8_1.tif,1.8,2,,,,,0,1,1,102,,,,,,,,,,,,,,,,,,,None,None,,None,11.491,,,,,2019_Jan_16_1616,60.03150757049898,Cloud_Experiment_FR_REAL,001,05,
images/fcloud80-20_D1.2_3.tif,1.2,2,,,,,0,2,2,86,,,,,,,,,,,,,,,,,,,2,space,3.43424381141,5,3.017,,,,,2019_Jan_16_1616,60.03150757049898,Cloud_Experiment_FR_REAL,001,05,
images/fcloud80-20_D1.5_3.tif,1.5,2,,,,,0,3,3,95,,,,,,,,,,,,,,,,,,,1,space,5.13252455258,4,1.667,,,,,2019_Jan_16_1616,60.03150757049898,Cloud_Experiment_FR_REAL,001,05,
images/fcloud65-35_D1.8_1.tif,1.8,1,,,,,0,4,4,66,,,,,,,,,,,,,,,,,,,1,space,2.46809128602,4,3.45,,,,,2019_Jan_16_1616,60.03150757049898,Cloud_Experiment_FR_REAL,001,05,
images/fcloud80-20_D1_1.tif,1.0,2,,,,,0,5,5,78,,,,,,,,,,,,,,,,,,,None,None,,None,14.704,,,,,2019_Jan_16_1616,60.03150757049898,Cloud_Experiment_FR_REAL,001,05,
images/fcloud_D1.6_2.tif,1.6,0,,,,,0,6,6,25,,,,,,,,,,,,,,,,,,,3,space,1.88809987076,3,4.238,,,,,2019_Jan_16_1616,60.03150757049898,Cloud_Experiment_FR_REAL,001,05,
images/fcloud80-20_D0.9_3.tif,0.9,2,,,,,0,7,7,77,,,,,,,,,,,,,,,,,,,1,space,2.83629694936,3,3.316,,,,,2019_Jan_16_1616,60.03150757049898,Cloud_Experiment_FR_REAL,001,05,
images/fcloud80-20_D1.5_2.tif,1.5,2,,,,,0,8,8,94,,,,,,,,,,,,,,,,,,,1,space,2.4380678708,4,4.965,,,,,2019_Jan_16_1616,60.03150757049898,Cloud_Experiment_FR_REAL,001,05,
images/fcloud80-20_D1.4_3.tif,1.4,2,,,,,0,9,9,92,,,,,,,,,,,,,,,,,,,2,space,3.95549358329,3,4.016,,,,,2019_Jan_16_1616,60.03150757049898,Cloud_Experiment_FR_REAL,001,05,
images/fcloud_D1_3.tif,1.0,0,,,,,0,10,10,8,,,,,,,,,,,,,,,,,,,1,space,5.33681845875,2,2.401,,,,,2019_Jan_16_1616,60.03150757049898,Cloud_Experiment_FR_REAL,001,05,
images/fcloud_D0.8_2.tif,0.8,0,,,,,0,11,11,1,,,,,,,,,,,,,,,,,,,1,space,2.665232623,4,2.283,,,,,2019_Jan_16_1616,60.03150757049898,Cloud_Experiment_FR_REAL,001,05,
images/fcloud80-20_D1.7_3.tif,1.7,2,,,,,0,12,12,101,,,,,,,,,,,,,,,,,,,2,space,3.59786615532,2,3.266,,,,,2019_Jan_16_1616,60.03150757049898,Cloud_Experiment_FR_REAL,001,05,
images/fcloud65-35_D1.8_2.tif,1.8,1,,,,,0,13,13,67,,,,,,,,,,,,,,,,,,,None,None,,None,12.642,,,,,2019_Jan_16_1616,60.03150757049898,Cloud_Experiment_FR_REAL,001,05,
images/fcloud65-35_D0.9_1.tif,0.9,1,,,,,0,14,14,39,,,,,,,,,,,,,,,,,,,2,space,5.63204005524,3,1.65,,,,,2019_Jan_16_1616,60.03150757049898,Cloud_Experiment_FR_REAL,001,05,
images/fcloud65-35_D1.7_1.tif,1.7,1,,,,,0,15,15,63,,,,,,,,,,,,,,,,,,,1,space,3.09365732543,1,0.751,,,,,2019_Jan_16_1616,60.03150757049898,Cloud_Experiment_FR_REAL,001,05,
images/fcloud65-35_D1.5_2.tif,1.5,1,,,,,0,16,16,58,,,,,,,,,,,,,,,,,,,1,space,3.42284719954,2,3.182,,,,,2019_Jan_16_1616,60.03150757049898,Cloud_Experiment_FR_REAL,001,05,
images/fcloud65-35_D1.4_3.tif,1.4,1,,,,,0,17,17,56,,,,,,,,,,,,,,,,,,,1,space,2.40814418229,4,1.202,,,,,2019_Jan_16_1616,60.03150757049898,Cloud_Experiment_FR_REAL,001,05,
images/fcloud_D1.4_1.tif,1.4,0,,,,,0,18,18,18,,,,,,,,,,,,,,,,,,,None,None,,None,10.224,,,,,2019_Jan_16_1616,60.03150757049898,Cloud_Experiment_FR_REAL,001,05,
images/fcloud80-20_D1.8_2.tif,1.8,2,,,,,0,19,19,103,,,,,,,,,,,,,,,,,,,1,space,3.71807445062,3,1.051,,,,,2019_Jan_16_1616,60.03150757049898,Cloud_Experiment_FR_REAL,001,05,
images/fcloud80-20_D1.3_1.tif,1.3,2,,,,,0,20,20,87,,,,,,,,,,,,,,,,,,,1,space,1.79540023085,3,1.068,,,,,2019_Jan_16_1616,60.03150757049898,Cloud_Experiment_FR_REAL,001,05,
images/fcloud80-20_D1.1_3.tif,1.1,2,,,,,0,21,21,83,,,,,,,,,,,,,,,,,,,1,space,4.45812786103,3,2.1,,,,,2019_Jan_16_1616,60.03150757049898,Cloud_Experiment_FR_REAL,001,05,
images/fcloud80-20_D1.8_3.tif,1.8,2,,,,,0,22,22,104,,,,,,,,,,,,,,,,,,,2,space,3.10684028041,2,2.983,,,,,2019_Jan_16_1616,60.03150757049898,Cloud_Experiment_FR_REAL,001,05,
images/fcloud80-20_D1.7_1.tif,1.7,2,,,,,0,23,23,99,,,,,,,,,,,,,,,,,,,None,None,,None,12.508,,,,,2019_Jan_16_1616,60.03150757049898,Cloud_Experiment_FR_REAL,001,05,
images/fcloud80-20_D1.4_2.tif,1.4,2,,,,,0,24,24,91,,,,,,,,,,,,,,,,,,,2,space,3.0068636699,5,1.451,,,,,2019_Jan_16_1616,60.03150757049898,Cloud_Experiment_FR_REAL,001,05,
images/fcloud65-35_D1.5_1.tif,1.5,1,,,,,0,25,25,57,,,,,,,,,,,,,,,,,,,2,space,5.02085009369,3,1.85,,,,,2019_Jan_16_1616,60.03150757049898,Cloud_Experiment_FR_REAL,001,05,
images/fcloud65-35_D1.1_1.tif,1.1,1,,,,,0,26,26,45,,,,,,,,,,,,,,,,,,,1,space,4.09377093165,3,1.935,,,,,2019_Jan_16_1616,60.03150757049898,Cloud_Experiment_FR_REAL,001,05,
images/fcloud80-20_D0.9_2.tif,0.9,2,,,,,0,27,27,76,,,,,,,,,,,,,,,,,,,2,space,4.43618848361,3,4.215,,,,,2019_Jan_16_1616,60.03150757049898,Cloud_Experiment_FR_REAL,001,05,
images/fcloud65-35_D1.6_3.tif,1.6,1,,,,,0,28,28,62,,,,,,,,,,,,,,,,,,,None,None,,None,13.906,,,,,2019_Jan_16_1616,60.03150757049898,Cloud_Experiment_FR_REAL,001,05,
images/fcloud_D0.8_1.tif,0.8,0,,,,,0,29,29,0,,,,,,,,,,,,,,,,,,,2,space,2.48542112717,1,2.999,,,,,2019_Jan_16_1616,60.03150757049898,Cloud_Experiment_FR_REAL,001,05,
images/fcloud_D1.3_2.tif,1.3,0,,,,,0,30,30,16,,,,,,,,,,,,,,,,,,,2,space,3.21931358159,3,2.168,,,,,2019_Jan_16_1616,60.03150757049898,Cloud_Experiment_FR_REAL,001,05,
images/fcloud65-35_D1.4_2.tif,1.4,1,,,,,0,31,31,55,,,,,,,,,,,,,,,,,,,None,None,,None,11.208,,,,,2019_Jan_16_1616,60.03150757049898,Cloud_Experiment_FR_REAL,001,05,
images/fcloud_D1.5_3.tif,1.5,0,,,,,0,32,32,23,,,,,,,,,,,,,,,,,,,None,None,,None,20.118,,,,,2019_Jan_16_1616,60.03150757049898,Cloud_Experiment_FR_REAL,001,05,
images/fcloud_D1.3_1.tif,1.3,0,,,,,0,33,33,15,,,,,,,,,,,,,,,,,,,None,None,,None,29.562,,,,,2019_Jan_16_1616,60.03150757049898,Cloud_Experiment_FR_REAL,001,05,
images/fcloud_D1.2_2.tif,1.2,0,,,,,0,34,34,13,,,,,,,,,,,,,,,,,,,1,space,2.69496354065,1,1.501,,,,,2019_Jan_16_1616,60.03150757049898,Cloud_Experiment_FR_REAL,001,05,
images/fcloud_D1.7_2.tif,1.7,0,,,,,0,35,35,28,,,,,,,,,,,,,,,,,,,1,space,6.41989600653,1,0.734,,,,,2019_Jan_16_1616,60.03150757049898,Cloud_Experiment_FR_REAL,001,05,
images/fcloud_D1.5_1.tif,1.5,0,,,,,0,36,36,21,,,,,,,,,,,,,,,,,,,3,space,4.99367865874,2,1.65,,,,,2019_Jan_16_1616,60.03150757049898,Cloud_Experiment_FR_REAL,001,05,
images/fcloud_D0.9_3.tif,0.9,0,,,,,0,37,37,5,,,,,,,,,,,,,,,,,,,None,None,,None,11.375,,,,,2019_Jan_16_1616,60.03150757049898,Cloud_Experiment_FR_REAL,001,05,
images/fcloud80-20_D1.4_1.tif,1.4,2,,,,,0,38,38,90,,,,,,,,,,,,,,,,,,,3,space,3.84911235457,2,2.686,,,,,2019_Jan_16_1616,60.03150757049898,Cloud_Experiment_FR_REAL,001,05,
images/fcloud65-35_D1.5_3.tif,1.5,1,,,,,0,39,39,59,,,,,,,,,,,,,,,,,,,1,space,1.5369608521,4,0.836,,,,,2019_Jan_16_1616,60.03150757049898,Cloud_Experiment_FR_REAL,001,05,
images/fcloud65-35_D1_1.tif,1.0,1,,,,,0,40,40,42,,,,,,,,,,,,,,,,,,,2,space,2.78104060265,3,1.384,,,,,2019_Jan_16_1616,60.03150757049898,Cloud_Experiment_FR_REAL,001,05,
images/fcloud65-35_D0.8_1.tif,0.8,1,,,,,0,41,41,36,,,,,,,,,,,,,,,,,,,1,None,,1,7.646,,,,,2019_Jan_16_1616,60.03150757049898,Cloud_Experiment_FR_REAL,001,05,
images/fcloud_D1.7_3.tif,1.7,0,,,,,0,42,42,29,,,,,,,,,,,,,,,,,,,1,space,7.90162056015,1,1.384,,,,,2019_Jan_16_1616,60.03150757049898,Cloud_Experiment_FR_REAL,001,05,
images/fcloud80-20_D1_2.tif,1.0,2,,,,,0,43,43,79,,,,,,,,,,,,,,,,,,,1,space,4.83780467429,3,1.301,,,,,2019_Jan_16_1616,60.03150757049898,Cloud_Experiment_FR_REAL,001,05,
images/fcloud_D1.2_1.tif,1.2,0,,,,,0,44,44,12,,,,,,,,,,,,,,,,,,,1,space,7.84979245008,3,1.134,,,,,2019_Jan_16_1616,60.03150757049898,Cloud_Experiment_FR_REAL,001,05,
images/fcloud80-20_D1.5_1.tif,1.5,2,,,,,0,45,45,93,,,,,,,,,,,,,,,,,,,2,space,7.13675882824,1,0.835,,,,,2019_Jan_16_1616,60.03150757049898,Cloud_Experiment_FR_REAL,001,05,
images/fcloud80-20_D1.3_2.tif,1.3,2,,,,,0,46,46,88,,,,,,,,,,,,,,,,,,,1,space,7.66785379231,3,2.534,,,,,2019_Jan_16_1616,60.03150757049898,Cloud_Experiment_FR_REAL,001,05,
images/fcloud80-20_D1.6_2.tif,1.6,2,,,,,0,47,47,97,,,,,,,,,,,,,,,,,,,1,space,2.33640464395,5,3.067,,,,,2019_Jan_16_1616,60.03150757049898,Cloud_Experiment_FR_REAL,001,05,
images/fcloud80-20_D1.2_2.tif,1.2,2,,,,,0,48,48,85,,,,,,,,,,,,,,,,,,,2,space,2.10870218964,4,1.516,,,,,2019_Jan_16_1616,60.03150757049898,Cloud_Experiment_FR_REAL,001,05,
images/fcloud65-35_D1.1_3.tif,1.1,1,,,,,0,49,49,47,,,,,,,,,,,,,,,,,,,1,space,3.1876760319,2,4.632,,,,,2019_Jan_16_1616,60.03150757049898,Cloud_Experiment_FR_REAL,001,05,
images/fcloud_D1.6_1.tif,1.6,0,,,,,0,50,50,24,,,,,,,,,,,,,,,,,,,2,space,4.60763115482,3,1.067,,,,,2019_Jan_16_1616,60.03150757049898,Cloud_Experiment_FR_REAL,001,05,
images/fcloud65-35_D1_3.tif,1.0,1,,,,,0,51,51,44,,,,,,,,,,,,,,,,,,,None,None,,None,10.691,,,,,2019_Jan_16_1616,60.03150757049898,Cloud_Experiment_FR_REAL,001,05,
images/fcloud_D1_2.tif,1.0,0,,,,,0,52,52,7,,,,,,,,,,,,,,,,,,,2,space,6.75515482068,3,1.966,,,,,2019_Jan_16_1616,60.03150757049898,Cloud_Experiment_FR_REAL,001,05,
images/fcloud80-20_D1.6_1.tif,1.6,2,,,,,0,53,53,96,,,,,,,,,,,,,,,,,,,None,None,,None,11.574,,,,,2019_Jan_16_1616,60.03150757049898,Cloud_Experiment_FR_REAL,001,05,
images/fcloud65-35_D1.9_2.tif,1.9,1,,,,,0,54,54,70,,,,,,,,,,,,,,,,,,,2,space,2.86580630898,3,3.65,,,,,2019_Jan_16_1616,60.03150757049898,Cloud_Experiment_FR_REAL,001,05,
images/fcloud80-20_D1.3_3.tif,1.3,2,,,,,0,55,55,89,,,,,,,,,,,,,,,,,,,2,space,1.5735240822,2,4.931,,,,,2019_Jan_16_1616,60.03150757049898,Cloud_Experiment_FR_REAL,001,05,
images/fcloud65-35_D0.8_3.tif,0.8,1,,,,,0,56,56,38,,,,,,,,,,,,,,,,,,,2,space,3.37734608533,4,1.268,,,,,2019_Jan_16_1616,60.03150757049898,Cloud_Experiment_FR_REAL,001,05,
images/fcloud65-35_D1.7_2.tif,1.7,1,,,,,0,57,57,64,,,,,,,,,,,,,,,,,,,None,None,,None,11.741,,,,,2019_Jan_16_1616,60.03150757049898,Cloud_Experiment_FR_REAL,001,05,
images/fcloud_D1.4_3.tif,1.4,0,,,,,0,58,58,20,,,,,,,,,,,,,,,,,,,1,space,5.19936616952,5,0.752,,,,,2019_Jan_16_1616,60.03150757049898,Cloud_Experiment_FR_REAL,001,05,
images/fcloud_D1.4_2.tif,1.4,0,,,,,0,59,59,19,,,,,,,,,,,,,,,,,,,None,None,,None,9.743,,,,,2019_Jan_16_1616,60.03150757049898,Cloud_Experiment_FR_REAL,001,05,
images/fcloud80-20_D0.9_1.tif,0.9,2,,,,,0,60,60,75,,,,,,,,,,,,,,,,,,,3,space,2.32166512881,4,1.9,,,,,2019_Jan_16_1616,60.03150757049898,Cloud_Experiment_FR_REAL,001,05,
images/fcloud80-20_D1.9_3.tif,1.9,2,,,,,0,61,61,107,,,,,,,,,,,,,,,,,,,1,None,,1,0.486,,,,,2019_Jan_16_1616,60.03150757049898,Cloud_Experiment_FR_REAL,001,05,
images/fcloud_D1.8_3.tif,1.8,0,,,,,0,62,62,32,,,,,,,,,,,,,,,,,,,1,space,7.88562674937,1,0.718,,,,,2019_Jan_16_1616,60.03150757049898,Cloud_Experiment_FR_REAL,001,05,
images/fcloud80-20_D1.1_2.tif,1.1,2,,,,,0,63,63,82,,,,,,,,,,,,,,,,,,,3,space,3.95215582056,3,2.401,,,,,2019_Jan_16_1616,60.03150757049898,Cloud_Experiment_FR_REAL,001,05,
images/fcloud65-35_D1.2_1.tif,1.2,1,,,,,0,64,64,48,,,,,,,,,,,,,,,,,,,2,space,3.35596188792,2,4.114,,,,,2019_Jan_16_1616,60.03150757049898,Cloud_Experiment_FR_REAL,001,05,
images/fcloud65-35_D1.9_1.tif,1.9,1,,,,,0,65,65,69,,,,,,,,,,,,,,,,,,,1,space,7.8241724348,1,1.866,,,,,2019_Jan_16_1616,60.03150757049898,Cloud_Experiment_FR_REAL,001,05,
images/fcloud_D0.8_3.tif,0.8,0,,,,,0,66,66,2,,,,,,,,,,,,,,,,,,,1,space,4.71816543851,2,2.832,,,,,2019_Jan_16_1616,60.03150757049898,Cloud_Experiment_FR_REAL,001,05,
images/fcloud80-20_D1.9_2.tif,1.9,2,,,,,0,67,67,106,,,,,,,,,,,,,,,,,,,None,None,,None,12.008,,,,,2019_Jan_16_1616,60.03150757049898,Cloud_Experiment_FR_REAL,001,05,
images/fcloud_D1.6_3.tif,1.6,0,,,,,0,68,68,26,,,,,,,,,,,,,,,,,,,2,space,2.32903205906,1,2.6,,,,,2019_Jan_16_1616,60.03150757049898,Cloud_Experiment_FR_REAL,001,05,
images/fcloud65-35_D1.4_1.tif,1.4,1,,,,,0,69,69,54,,,,,,,,,,,,,,,,,,,2,space,3.95688667387,3,1.301,,,,,2019_Jan_16_1616,60.03150757049898,Cloud_Experiment_FR_REAL,001,05,
images/fcloud65-35_D1.6_1.tif,1.6,1,,,,,0,70,70,60,,,,,,,,,,,,,,,,,,,4,space,1.54140229221,3,2.839,,,,,2019_Jan_16_1616,60.03150757049898,Cloud_Experiment_FR_REAL,001,05,
images/fcloud80-20_D0.8_2.tif,0.8,2,,,,,0,71,71,73,,,,,,,,,,,,,,,,,,,None,None,,None,12.024,,,,,2019_Jan_16_1616,60.03150757049898,Cloud_Experiment_FR_REAL,001,05,
images/fcloud65-35_D1.9_3.tif,1.9,1,,,,,0,72,72,71,,,,,,,,,,,,,,,,,,,2,space,3.71273495554,1,1.701,,,,,2019_Jan_16_1616,60.03150757049898,Cloud_Experiment_FR_REAL,001,05,
images/fcloud_D1.5_2.tif,1.5,0,,,,,0,73,73,22,,,,,,,,,,,,,,,,,,,None,None,,None,11.458,,,,,2019_Jan_16_1616,60.03150757049898,Cloud_Experiment_FR_REAL,001,05,
images/fcloud_D1.1_2.tif,1.1,0,,,,,0,74,74,10,,,,,,,,,,,,,,,,,,,2,space,5.12735778012,1,0.453,,,,,2019_Jan_16_1616,60.03150757049898,Cloud_Experiment_FR_REAL,001,05,
images/fcloud_D0.9_2.tif,0.9,0,,,,,0,75,75,4,,,,,,,,,,,,,,,,,,,None,None,,None,9.509,,,,,2019_Jan_16_1616,60.03150757049898,Cloud_Experiment_FR_REAL,001,05,
images/fcloud80-20_D1.7_2.tif,1.7,2,,,,,0,76,76,100,,,,,,,,,,,,,,,,,,,None,None,,None,19.616,,,,,2019_Jan_16_1616,60.03150757049898,Cloud_Experiment_FR_REAL,001,05,
images/fcloud_D1.3_3.tif,1.3,0,,,,,0,77,77,17,,,,,,,,,,,,,,,,,,,5,space,2.10892169137,4,0.802,,,,,2019_Jan_16_1616,60.03150757049898,Cloud_Experiment_FR_REAL,001,05,
images/fcloud65-35_D1.8_3.tif,1.8,1,,,,,0,78,78,68,,,,,,,,,,,,,,,,,,,2,space,4.16510385205,2,2.484,,,,,2019_Jan_16_1616,60.03150757049898,Cloud_Experiment_FR_REAL,001,05,
images/fcloud65-35_D0.9_3.tif,0.9,1,,,,,0,79,79,41,,,,,,,,,,,,,,,,,,,None,space,9.38422517688,None,12.507,,,,,2019_Jan_16_1616,60.03150757049898,Cloud_Experiment_FR_REAL,001,05,
images/fcloud80-20_D1.9_1.tif,1.9,2,,,,,0,80,80,105,,,,,,,,,,,,,,,,,,,None,None,,None,21.382,,,,,2019_Jan_16_1616,60.03150757049898,Cloud_Experiment_FR_REAL,001,05,
images/fcloud_D1.8_2.tif,1.8,0,,,,,0,81,81,31,,,,,,,,,,,,,,,,,,,1,space,3.69019053469,1,1.484,,,,,2019_Jan_16_1616,60.03150757049898,Cloud_Experiment_FR_REAL,001,05,
images/fcloud65-35_D1.3_1.tif,1.3,1,,,,,0,82,82,51,,,,,,,,,,,,,,,,,,,2,space,2.74110311182,2,3.832,,,,,2019_Jan_16_1616,60.03150757049898,Cloud_Experiment_FR_REAL,001,05,
images/fcloud65-35_D1.2_2.tif,1.2,1,,,,,0,83,83,49,,,,,,,,,,,,,,,,,,,None,None,,None,13.273,,,,,2019_Jan_16_1616,60.03150757049898,Cloud_Experiment_FR_REAL,001,05,
images/fcloud80-20_D0.8_1.tif,0.8,2,,,,,0,84,84,72,,,,,,,,,,,,,,,,,,,2,space,1.42319572921,2,2.066,,,,,2019_Jan_16_1616,60.03150757049898,Cloud_Experiment_FR_REAL,001,05,
images/fcloud65-35_D1_2.tif,1.0,1,,,,,0,85,85,43,,,,,,,,,,,,,,,,,,,1,space,7.02130606101,1,0.551,,,,,2019_Jan_16_1616,60.03150757049898,Cloud_Experiment_FR_REAL,001,05,
images/fcloud65-35_D1.3_3.tif,1.3,1,,,,,0,86,86,53,,,,,,,,,,,,,,,,,,,2,space,1.83133939747,2,1.199,,,,,2019_Jan_16_1616,60.03150757049898,Cloud_Experiment_FR_REAL,001,05,
images/fcloud80-20_D1.1_1.tif,1.1,2,,,,,0,87,87,81,,,,,,,,,,,,,,,,,,,1,space,6.62829670258,1,1.502,,,,,2019_Jan_16_1616,60.03150757049898,Cloud_Experiment_FR_REAL,001,05,
images/fcloud80-20_D1_3.tif,1.0,2,,,,,0,88,88,80,,,,,,,,,,,,,,,,,,,1,space,7.05514942307,1,1.202,,,,,2019_Jan_16_1616,60.03150757049898,Cloud_Experiment_FR_REAL,001,05,
images/fcloud65-35_D1.6_2.tif,1.6,1,,,,,0,89,89,61,,,,,,,,,,,,,,,,,,,3,space,3.71063401044,2,2.134,,,,,2019_Jan_16_1616,60.03150757049898,Cloud_Experiment_FR_REAL,001,05,
images/fcloud80-20_D1.2_1.tif,1.2,2,,,,,0,90,90,84,,,,,,,,,,,,,,,,,,,1,space,5.70426691824,3,1.051,,,,,2019_Jan_16_1616,60.03150757049898,Cloud_Experiment_FR_REAL,001,05,
images/fcloud65-35_D1.7_3.tif,1.7,1,,,,,0,91,91,65,,,,,,,,,,,,,,,,,,,1,space,5.80378858955,1,0.869,,,,,2019_Jan_16_1616,60.03150757049898,Cloud_Experiment_FR_REAL,001,05,
images/fcloud65-35_D1.1_2.tif,1.1,1,,,,,0,92,92,46,,,,,,,,,,,,,,,,,,,1,space,8.02008774929,1,0.585,,,,,2019_Jan_16_1616,60.03150757049898,Cloud_Experiment_FR_REAL,001,05,
images/fcloud80-20_D1.6_3.tif,1.6,2,,,,,0,93,93,98,,,,,,,,,,,,,,,,,,,3,space,4.17512742151,3,1.718,,,,,2019_Jan_16_1616,60.03150757049898,Cloud_Experiment_FR_REAL,001,05,
images/fcloud65-35_D1.3_2.tif,1.3,1,,,,,0,94,94,52,,,,,,,,,,,,,,,,,,,3,space,1.81010221998,2,0.919,,,,,2019_Jan_16_1616,60.03150757049898,Cloud_Experiment_FR_REAL,001,05,
images/fcloud_D1.9_1.tif,1.9,0,,,,,0,95,95,33,,,,,,,,,,,,,,,,,,,2,space,3.51018986641,2,2.833,,,,,2019_Jan_16_1616,60.03150757049898,Cloud_Experiment_FR_REAL,001,05,
images/fcloud65-35_D0.9_2.tif,0.9,1,,,,,0,96,96,40,,,,,,,,,,,,,,,,,,,None,None,,None,12.274,,,,,2019_Jan_16_1616,60.03150757049898,Cloud_Experiment_FR_REAL,001,05,
images/fcloud_D1.9_3.tif,1.9,0,,,,,0,97,97,35,,,,,,,,,,,,,,,,,,,1,space,6.28170553356,4,1.267,,,,,2019_Jan_16_1616,60.03150757049898,Cloud_Experiment_FR_REAL,001,05,
images/fcloud_D0.9_1.tif,0.9,0,,,,,0,98,98,3,,,,,,,,,,,,,,,,,,,2,space,1.25856120983,4,2.384,,,,,2019_Jan_16_1616,60.03150757049898,Cloud_Experiment_FR_REAL,001,05,
images/fcloud_D1.8_1.tif,1.8,0,,,,,0,99,99,30,,,,,,,,,,,,,,,,,,,1,space,7.25160243968,1,4.033,,,,,2019_Jan_16_1616,60.03150757049898,Cloud_Experiment_FR_REAL,001,05,
images/fcloud_D1.1_1.tif,1.1,0,,,,,0,100,100,9,,,,,,,,,,,,,,,,,,,None,None,,None,13.273,,,,,2019_Jan_16_1616,60.03150757049898,Cloud_Experiment_FR_REAL,001,05,
images/fcloud65-35_D1.2_3.tif,1.2,1,,,,,0,101,101,50,,,,,,,,,,,,,,,,,,,1,space,5.66681745631,1,1.085,,,,,2019_Jan_16_1616,60.03150757049898,Cloud_Experiment_FR_REAL,001,05,
images/fcloud_D1.9_2.tif,1.9,0,,,,,0,102,102,34,,,,,,,,,,,,,,,,,,,4,space,4.6321001997,4,4.348,,,,,2019_Jan_16_1616,60.03150757049898,Cloud_Experiment_FR_REAL,001,05,
images/fcloud_D1.2_3.tif,1.2,0,,,,,0,103,103,14,,,,,,,,,,,,,,,,,,,2,space,3.87559752533,4,3.349,,,,,2019_Jan_16_1616,60.03150757049898,Cloud_Experiment_FR_REAL,001,05,
images/fcloud65-35_D0.8_2.tif,0.8,1,,,,,0,104,104,37,,,,,,,,,,,,,,,,,,,None,None,,None,12.79,,,,,2019_Jan_16_1616,60.03150757049898,Cloud_Experiment_FR_REAL,001,05,
images/fcloud_D1.7_1.tif,1.7,0,,,,,0,105,105,27,,,,,,,,,,,,,,,,,,,3,space,2.31904858595,3,6.265,,,,,2019_Jan_16_1616,60.03150757049898,Cloud_Experiment_FR_REAL,001,05,
images/fcloud80-20_D0.8_3.tif,0.8,2,,,,,0,106,106,74,,,,,,,,,,,,,,,,,,,1,space,7.97060938721,2,0.769,,,,,2019_Jan_16_1616,60.03150757049898,Cloud_Experiment_FR_REAL,001,05,
images/fcloud_D1_1.tif,1.0,0,,,,,0,107,107,6,,,,,,,,,,,,,,,,,,,2,space,4.73664573603,2,0.669,,,,,2019_Jan_16_1616,60.03150757049898,Cloud_Experiment_FR_REAL,001,05,
,,,,,,,,,,,,,,,,,,,,,,,,,6,11.53,,,,,,,,,,,,2019_Jan_16_1616,60.03150757049898,Cloud_Experiment_FR_REAL,001,05,
,,,,,,,,,,,,,,,,,,,,,,,,,,,,,,,,,,,,space,143.59354449,2019_Jan_16_1616,60.03150757049898,Cloud_Experiment_FR_REAL,001,05,
images/fcloud_D1.3_6.tif,1.3,0,,,,,,,,,0,0,0,17,,,,,,,,,,,,,,,4,space,5.52550512389,4,4.199,,,,,2019_Jan_16_1616,60.03150757049898,Cloud_Experiment_FR_REAL,001,05,
images/fcloud65-35_D1_5.tif,1.0,1,,,,,,,,,0,1,1,43,,,,,,,,,,,,,,,2,space,4.74265710183,3,1.85,,,,,2019_Jan_16_1616,60.03150757049898,Cloud_Experiment_FR_REAL,001,05,
images/fcloud_D1.8_5.tif,1.8,0,,,,,,,,,0,2,2,31,,,,,,,,,,,,,,,None,None,,None,10.823,,,,,2019_Jan_16_1616,60.03150757049898,Cloud_Experiment_FR_REAL,001,05,
images/fcloud80-20_D1.6_5.tif,1.6,2,,,,,,,,,0,3,3,97,,,,,,,,,,,,,,,1,space,5.11821221758,1,0.635,,,,,2019_Jan_16_1616,60.03150757049898,Cloud_Experiment_FR_REAL,001,05,
images/fcloud65-35_D1.3_6.tif,1.3,1,,,,,,,,,0,4,4,53,,,,,,,,,,,,,,,2,space,2.10560192051,2,1.167,,,,,2019_Jan_16_1616,60.03150757049898,Cloud_Experiment_FR_REAL,001,05,
images/fcloud65-35_D1.2_4.tif,1.2,1,,,,,,,,,0,5,5,48,,,,,,,,,,,,,,,1,space,1.62869560975,5,0.735,,,,,2019_Jan_16_1616,60.03150757049898,Cloud_Experiment_FR_REAL,001,05,
images/fcloud65-35_D0.9_6.tif,0.9,1,,,,,,,,,0,6,6,41,,,,,,,,,,,,,,,1,space,2.65694090672,4,1.767,,,,,2019_Jan_16_1616,60.03150757049898,Cloud_Experiment_FR_REAL,001,05,
images/fcloud80-20_D1.5_6.tif,1.5,2,,,,,,,,,0,7,7,95,,,,,,,,,,,,,,,3,space,3.77535257785,1,1.217,,,,,2019_Jan_16_1616,60.03150757049898,Cloud_Experiment_FR_REAL,001,05,
images/fcloud_D1.9_4.tif,1.9,0,,,,,,,,,0,8,8,33,,,,,,,,,,,,,,,1,space,2.04296990461,2,5.916,,,,,2019_Jan_16_1616,60.03150757049898,Cloud_Experiment_FR_REAL,001,05,
images/fcloud80-20_D0.9_5.tif,0.9,2,,,,,,,,,0,9,9,76,,,,,,,,,,,,,,,None,None,,None,14.904,,,,,2019_Jan_16_1616,60.03150757049898,Cloud_Experiment_FR_REAL,001,05,
images/fcloud80-20_D1.6_6.tif,1.6,2,,,,,,,,,0,10,10,98,,,,,,,,,,,,,,,3,space,4.2737659454,3,4.565,,,,,2019_Jan_16_1616,60.03150757049898,Cloud_Experiment_FR_REAL,001,05,
images/fcloud65-35_D1.8_6.tif,1.8,1,,,,,,,,,0,11,11,68,,,,,,,,,,,,,,,3,space,4.19929780008,2,1.05,,,,,2019_Jan_16_1616,60.03150757049898,Cloud_Experiment_FR_REAL,001,05,
images/fcloud_D1.7_6.tif,1.7,0,,,,,,,,,0,12,12,29,,,,,,,,,,,,,,,1,space,8.22226888704,2,1.234,,,,,2019_Jan_16_1616,60.03150757049898,Cloud_Experiment_FR_REAL,001,05,
images/fcloud_D1.9_5.tif,1.9,0,,,,,,,,,0,13,13,34,,,,,,,,,,,,,,,2,space,5.55269352265,1,0.869,,,,,2019_Jan_16_1616,60.03150757049898,Cloud_Experiment_FR_REAL,001,05,
images/fcloud65-35_D1.2_5.tif,1.2,1,,,,,,,,,0,14,14,49,,,,,,,,,,,,,,,2,space,1.66988328367,3,1.852,,,,,2019_Jan_16_1616,60.03150757049898,Cloud_Experiment_FR_REAL,001,05,
images/fcloud80-20_D1.8_4.tif,1.8,2,,,,,,,,,0,15,15,102,,,,,,,,,,,,,,,1,space,2.27321076533,1,0.486,,,,,2019_Jan_16_1616,60.03150757049898,Cloud_Experiment_FR_REAL,001,05,
images/fcloud80-20_D1.7_5.tif,1.7,2,,,,,,,,,0,16,16,100,,,,,,,,,,,,,,,2,space,3.47209937725,2,0.852,,,,,2019_Jan_16_1616,60.03150757049898,Cloud_Experiment_FR_REAL,001,05,
images/fcloud_D1.2_4.tif,1.2,0,,,,,,,,,0,17,17,12,,,,,,,,,,,,,,,1,space,7.92247579445,1,0.985,,,,,2019_Jan_16_1616,60.03150757049898,Cloud_Experiment_FR_REAL,001,05,
images/fcloud_D1.4_4.tif,1.4,0,,,,,,,,,0,18,18,18,,,,,,,,,,,,,,,None,None,,None,9.911,,,,,2019_Jan_16_1616,60.03150757049898,Cloud_Experiment_FR_REAL,001,05,
images/fcloud_D0.9_4.tif,0.9,0,,,,,,,,,0,19,19,3,,,,,,,,,,,,,,,2,space,1.39514525922,3,1.417,,,,,2019_Jan_16_1616,60.03150757049898,Cloud_Experiment_FR_REAL,001,05,
images/fcloud80-20_D1.3_5.tif,1.3,2,,,,,,,,,0,20,20,88,,,,,,,,,,,,,,,2,space,4.99159930402,2,2.702,,,,,2019_Jan_16_1616,60.03150757049898,Cloud_Experiment_FR_REAL,001,05,
images/fcloud_D1.1_4.tif,1.1,0,,,,,,,,,0,21,21,9,,,,,,,,,,,,,,,1,space,1.87603447255,3,1.016,,,,,2019_Jan_16_1616,60.03150757049898,Cloud_Experiment_FR_REAL,001,05,
images/fcloud_D1_6.tif,1.0,0,,,,,,,,,0,22,22,8,,,,,,,,,,,,,,,None,None,,None,11.058,,,,,2019_Jan_16_1616,60.03150757049898,Cloud_Experiment_FR_REAL,001,05,
images/fcloud65-35_D1.3_5.tif,1.3,1,,,,,,,,,0,23,23,52,,,,,,,,,,,,,,,None,space,7.29358278733,None,20.3,,,,,2019_Jan_16_1616,60.03150757049898,Cloud_Experiment_FR_REAL,001,05,
images/fcloud_D1.6_6.tif,1.6,0,,,,,,,,,0,24,24,26,,,,,,,,,,,,,,,None,None,,None,29.692,,,,,2019_Jan_16_1616,60.03150757049898,Cloud_Experiment_FR_REAL,001,05,
images/fcloud65-35_D1.1_5.tif,1.1,1,,,,,,,,,0,25,25,46,,,,,,,,,,,,,,,2,space,1.95849926618,3,5.247,,,,,2019_Jan_16_1616,60.03150757049898,Cloud_Experiment_FR_REAL,001,05,
images/fcloud65-35_D1.4_5.tif,1.4,1,,,,,,,,,0,26,26,55,,,,,,,,,,,,,,,1,space,6.90802672063,1,1.069,,,,,2019_Jan_16_1616,60.03150757049898,Cloud_Experiment_FR_REAL,001,05,
images/fcloud80-20_D1.8_6.tif,1.8,2,,,,,,,,,0,27,27,104,,,,,,,,,,,,,,,1,space,8.06609829259,1,0.419,,,,,2019_Jan_16_1616,60.03150757049898,Cloud_Experiment_FR_REAL,001,05,
images/fcloud80-20_D0.9_4.tif,0.9,2,,,,,,,,,0,28,28,75,,,,,,,,,,,,,,,2,space,2.90636991954,2,1.402,,,,,2019_Jan_16_1616,60.03150757049898,Cloud_Experiment_FR_REAL,001,05,
images/fcloud80-20_D0.8_5.tif,0.8,2,,,,,,,,,0,29,29,73,,,,,,,,,,,,,,,2,space,4.33844441647,3,1.052,,,,,2019_Jan_16_1616,60.03150757049898,Cloud_Experiment_FR_REAL,001,05,
images/fcloud80-20_D1.1_4.tif,1.1,2,,,,,,,,,0,30,30,81,,,,,,,,,,,,,,,2,space,3.42215990729,1,1.767,,,,,2019_Jan_16_1616,60.03150757049898,Cloud_Experiment_FR_REAL,001,05,
images/fcloud80-20_D1.2_4.tif,1.2,2,,,,,,,,,0,31,31,84,,,,,,,,,,,,,,,2,space,2.75889560307,1,3.749,,,,,2019_Jan_16_1616,60.03150757049898,Cloud_Experiment_FR_REAL,001,05,
images/fcloud_D1_5.tif,1.0,0,,,,,,,,,0,32,32,7,,,,,,,,,,,,,,,2,space,2.10521843506,3,2.204,,,,,2019_Jan_16_1616,60.03150757049898,Cloud_Experiment_FR_REAL,001,05,
images/fcloud80-20_D1.3_6.tif,1.3,2,,,,,,,,,0,33,33,89,,,,,,,,,,,,,,,None,None,,None,11.077,,,,,2019_Jan_16_1616,60.03150757049898,Cloud_Experiment_FR_REAL,001,05,
images/fcloud65-35_D1.1_6.tif,1.1,1,,,,,,,,,0,34,34,47,,,,,,,,,,,,,,,3,space,1.76170800102,2,1.386,,,,,2019_Jan_16_1616,60.03150757049898,Cloud_Experiment_FR_REAL,001,05,
images/fcloud65-35_D1.3_4.tif,1.3,1,,,,,,,,,0,35,35,51,,,,,,,,,,,,,,,2,space,3.9224562603,1,0.469,,,,,2019_Jan_16_1616,60.03150757049898,Cloud_Experiment_FR_REAL,001,05,
images/fcloud65-35_D1.8_5.tif,1.8,1,,,,,,,,,0,36,36,67,,,,,,,,,,,,,,,1,space,7.26672441221,1,1.35,,,,,2019_Jan_16_1616,60.03150757049898,Cloud_Experiment_FR_REAL,001,05,
images/fcloud80-20_D1.9_4.tif,1.9,2,,,,,,,,,0,37,37,105,,,,,,,,,,,,,,,1,space,3.72156591603,3,0.968,,,,,2019_Jan_16_1616,60.03150757049898,Cloud_Experiment_FR_REAL,001,05,
images/fcloud65-35_D1.9_5.tif,1.9,1,,,,,,,,,0,38,38,70,,,,,,,,,,,,,,,2,space,5.27082194918,1,1.067,,,,,2019_Jan_16_1616,60.03150757049898,Cloud_Experiment_FR_REAL,001,05,
images/fcloud_D0.9_5.tif,0.9,0,,,,,,,,,0,39,39,4,,,,,,,,,,,,,,,3,space,4.38059902895,4,1.987,,,,,2019_Jan_16_1616,60.03150757049898,Cloud_Experiment_FR_REAL,001,05,
images/fcloud80-20_D1.8_5.tif,1.8,2,,,,,,,,,0,40,40,103,,,,,,,,,,,,,,,None,None,,None,13.607,,,,,2019_Jan_16_1616,60.03150757049898,Cloud_Experiment_FR_REAL,001,05,
images/fcloud_D1.8_6.tif,1.8,0,,,,,,,,,0,41,41,32,,,,,,,,,,,,,,,3,space,5.1896551458,1,0.501,,,,,2019_Jan_16_1616,60.03150757049898,Cloud_Experiment_FR_REAL,001,05,
images/fcloud65-35_D1_6.tif,1.0,1,,,,,,,,,0,42,42,44,,,,,,,,,,,,,,,1,space,3.92394239496,3,0.986,,,,,2019_Jan_16_1616,60.03150757049898,Cloud_Experiment_FR_REAL,001,05,
images/fcloud65-35_D1.1_4.tif,1.1,1,,,,,,,,,0,43,43,45,,,,,,,,,,,,,,,2,space,4.13378501683,2,2.65,,,,,2019_Jan_16_1616,60.03150757049898,Cloud_Experiment_FR_REAL,001,05,
images/fcloud_D0.8_5.tif,0.8,0,,,,,,,,,0,44,44,1,,,,,,,,,,,,,,,1,space,7.6711879567,1,1.368,,,,,2019_Jan_16_1616,60.03150757049898,Cloud_Experiment_FR_REAL,001,05,
images/fcloud_D1.6_5.tif,1.6,0,,,,,,,,,0,45,45,25,,,,,,,,,,,,,,,None,space,7.10038374248,None,14.755,,,,,2019_Jan_16_1616,60.03150757049898,Cloud_Experiment_FR_REAL,001,05,
images/fcloud80-20_D1.4_4.tif,1.4,2,,,,,,,,,0,46,46,90,,,,,,,,,,,,,,,1,space,5.70845544292,1,1.317,,,,,2019_Jan_16_1616,60.03150757049898,Cloud_Experiment_FR_REAL,001,05,
images/fcloud65-35_D1.2_6.tif,1.2,1,,,,,,,,,0,47,47,50,,,,,,,,,,,,,,,2,space,3.61410105816,1,0.535,,,,,2019_Jan_16_1616,60.03150757049898,Cloud_Experiment_FR_REAL,001,05,
images/fcloud65-35_D1.4_4.tif,1.4,1,,,,,,,,,0,48,48,54,,,,,,,,,,,,,,,1,space,5.07782081567,3,1.385,,,,,2019_Jan_16_1616,60.03150757049898,Cloud_Experiment_FR_REAL,001,05,
images/fcloud_D0.8_6.tif,0.8,0,,,,,,,,,0,49,49,2,,,,,,,,,,,,,,,None,None,,None,11.74,,,,,2019_Jan_16_1616,60.03150757049898,Cloud_Experiment_FR_REAL,001,05,
images/fcloud65-35_D0.8_6.tif,0.8,1,,,,,,,,,0,50,50,38,,,,,,,,,,,,,,,1,space,6.28564165701,1,0.652,,,,,2019_Jan_16_1616,60.03150757049898,Cloud_Experiment_FR_REAL,001,05,
images/fcloud80-20_D0.9_6.tif,0.9,2,,,,,,,,,0,51,51,77,,,,,,,,,,,,,,,1,space,3.10506833089,2,1.75,,,,,2019_Jan_16_1616,60.03150757049898,Cloud_Experiment_FR_REAL,001,05,
images/fcloud_D1.5_4.tif,1.5,0,,,,,,,,,0,52,52,21,,,,,,,,,,,,,,,1,space,6.3073718138,3,3.431,,,,,2019_Jan_16_1616,60.03150757049898,Cloud_Experiment_FR_REAL,001,05,
images/fcloud65-35_D0.8_4.tif,0.8,1,,,,,,,,,0,53,53,36,,,,,,,,,,,,,,,1,space,4.00367138488,3,2.1,,,,,2019_Jan_16_1616,60.03150757049898,Cloud_Experiment_FR_REAL,001,05,
images/fcloud65-35_D1.6_5.tif,1.6,1,,,,,,,,,0,54,54,61,,,,,,,,,,,,,,,2,space,2.14505979756,1,4.415,,,,,2019_Jan_16_1616,60.03150757049898,Cloud_Experiment_FR_REAL,001,05,
images/fcloud80-20_D1.9_6.tif,1.9,2,,,,,,,,,0,55,55,107,,,,,,,,,,,,,,,1,space,5.37380321434,1,1.635,,,,,2019_Jan_16_1616,60.03150757049898,Cloud_Experiment_FR_REAL,001,05,
images/fcloud_D1.1_5.tif,1.1,0,,,,,,,,,0,56,56,10,,,,,,,,,,,,,,,3,space,2.4437173414,4,2.801,,,,,2019_Jan_16_1616,60.03150757049898,Cloud_Experiment_FR_REAL,001,05,
images/fcloud80-20_D0.8_6.tif,0.8,2,,,,,,,,,0,57,57,74,,,,,,,,,,,,,,,None,None,,None,12.024,,,,,2019_Jan_16_1616,60.03150757049898,Cloud_Experiment_FR_REAL,001,05,
images/fcloud80-20_D1.7_6.tif,1.7,2,,,,,,,,,0,58,58,101,,,,,,,,,,,,,,,3,space,3.8149579888,1,0.602,,,,,2019_Jan_16_1616,60.03150757049898,Cloud_Experiment_FR_REAL,001,05,
images/fcloud80-20_D1.5_4.tif,1.5,2,,,,,,,,,0,59,59,93,,,,,,,,,,,,,,,3,space,1.6606122916,1,0.668,,,,,2019_Jan_16_1616,60.03150757049898,Cloud_Experiment_FR_REAL,001,05,
images/fcloud80-20_D1_5.tif,1.0,2,,,,,,,,,0,60,60,79,,,,,,,,,,,,,,,3,space,6.02475331759,2,2.249,,,,,2019_Jan_16_1616,60.03150757049898,Cloud_Experiment_FR_REAL,001,05,
images/fcloud_D1.7_4.tif,1.7,0,,,,,,,,,0,61,61,27,,,,,,,,,,,,,,,2,space,3.69030362694,1,1.285,,,,,2019_Jan_16_1616,60.03150757049898,Cloud_Experiment_FR_REAL,001,05,
images/fcloud_D1.3_4.tif,1.3,0,,,,,,,,,0,62,62,15,,,,,,,,,,,,,,,None,None,,None,11.791,,,,,2019_Jan_16_1616,60.03150757049898,Cloud_Experiment_FR_REAL,001,05,
images/fcloud65-35_D1.7_6.tif,1.7,1,,,,,,,,,0,63,63,65,,,,,,,,,,,,,,,None,None,,None,20.951,,,,,2019_Jan_16_1616,60.03150757049898,Cloud_Experiment_FR_REAL,001,05,
images/fcloud65-35_D1_4.tif,1.0,1,,,,,,,,,0,64,64,42,,,,,,,,,,,,,,,3,space,4.33578469296,2,1.035,,,,,2019_Jan_16_1616,60.03150757049898,Cloud_Experiment_FR_REAL,001,05,
images/fcloud_D1.2_5.tif,1.2,0,,,,,,,,,0,65,65,13,,,,,,,,,,,,,,,4,space,1.84594217391,2,3.882,,,,,2019_Jan_16_1616,60.03150757049898,Cloud_Experiment_FR_REAL,001,05,
images/fcloud80-20_D1.1_6.tif,1.1,2,,,,,,,,,0,66,66,83,,,,,,,,,,,,,,,None,None,,None,14.405,,,,,2019_Jan_16_1616,60.03150757049898,Cloud_Experiment_FR_REAL,001,05,
images/fcloud_D1.6_4.tif,1.6,0,,,,,,,,,0,67,67,24,,,,,,,,,,,,,,,3,None,,2,2.084,,,,,2019_Jan_16_1616,60.03150757049898,Cloud_Experiment_FR_REAL,001,05,
images/fcloud_D1.5_5.tif,1.5,0,,,,,,,,,0,68,68,22,,,,,,,,,,,,,,,5,None,,1,4.049,,,,,2019_Jan_16_1616,60.03150757049898,Cloud_Experiment_FR_REAL,001,05,
images/fcloud65-35_D1.5_5.tif,1.5,1,,,,,,,,,0,69,69,58,,,,,,,,,,,,,,,None,None,,None,13.089,,,,,2019_Jan_16_1616,60.03150757049898,Cloud_Experiment_FR_REAL,001,05,
images/fcloud65-35_D1.4_6.tif,1.4,1,,,,,,,,,0,70,70,56,,,,,,,,,,,,,,,3,space,4.32220488717,1,0.636,,,,,2019_Jan_16_1616,60.03150757049898,Cloud_Experiment_FR_REAL,001,05,
images/fcloud80-20_D1.9_5.tif,1.9,2,,,,,,,,,0,71,71,106,,,,,,,,,,,,,,,None,None,,None,9.461,,,,,2019_Jan_16_1616,60.03150757049898,Cloud_Experiment_FR_REAL,001,05,
images/fcloud65-35_D1.5_6.tif,1.5,1,,,,,,,,,0,72,72,59,,,,,,,,,,,,,,,1,space,1.22696375649,4,1.251,,,,,2019_Jan_16_1616,60.03150757049898,Cloud_Experiment_FR_REAL,001,05,
images/fcloud65-35_D0.8_5.tif,0.8,1,,,,,,,,,0,73,73,37,,,,,,,,,,,,,,,1,space,1.04112855758,5,2.484,,,,,2019_Jan_16_1616,60.03150757049898,Cloud_Experiment_FR_REAL,001,05,
images/fcloud80-20_D1.4_5.tif,1.4,2,,,,,,,,,0,74,74,91,,,,,,,,,,,,,,,2,space,3.43902452814,3,6.431,,,,,2019_Jan_16_1616,60.03150757049898,Cloud_Experiment_FR_REAL,001,05,
images/fcloud80-20_D1.6_4.tif,1.6,2,,,,,,,,,0,75,75,96,,,,,,,,,,,,,,,3,space,2.52299242024,3,2.816,,,,,2019_Jan_16_1616,60.03150757049898,Cloud_Experiment_FR_REAL,001,05,
images/fcloud80-20_D1.3_4.tif,1.3,2,,,,,,,,,0,76,76,87,,,,,,,,,,,,,,,3,space,4.04419181467,2,4.133,,,,,2019_Jan_16_1616,60.03150757049898,Cloud_Experiment_FR_REAL,001,05,
images/fcloud_D1.8_4.tif,1.8,0,,,,,,,,,0,77,77,30,,,,,,,,,,,,,,,2,space,4.14237231499,1,3.316,,,,,2019_Jan_16_1616,60.03150757049898,Cloud_Experiment_FR_REAL,001,05,
images/fcloud80-20_D1.2_6.tif,1.2,2,,,,,,,,,0,78,78,86,,,,,,,,,,,,,,,1,space,6.38745961455,2,1.202,,,,,2019_Jan_16_1616,60.03150757049898,Cloud_Experiment_FR_REAL,001,05,
images/fcloud_D1.3_5.tif,1.3,0,,,,,,,,,0,79,79,16,,,,,,,,,,,,,,,None,None,,None,9.726,,,,,2019_Jan_16_1616,60.03150757049898,Cloud_Experiment_FR_REAL,001,05,
images/fcloud65-35_D1.7_5.tif,1.7,1,,,,,,,,,0,80,80,64,,,,,,,,,,,,,,,2,space,2.27150050248,1,1.567,,,,,2019_Jan_16_1616,60.03150757049898,Cloud_Experiment_FR_REAL,001,05,
images/fcloud65-35_D1.9_6.tif,1.9,1,,,,,,,,,0,81,81,71,,,,,,,,,,,,,,,2,space,7.44039397215,1,7.899,,,,,2019_Jan_16_1616,60.03150757049898,Cloud_Experiment_FR_REAL,001,05,
images/fcloud80-20_D1_4.tif,1.0,2,,,,,,,,,0,82,82,78,,,,,,,,,,,,,,,2,space,4.43596384133,3,2.383,,,,,2019_Jan_16_1616,60.03150757049898,Cloud_Experiment_FR_REAL,001,05,
images/fcloud65-35_D1.6_6.tif,1.6,1,,,,,,,,,0,83,83,62,,,,,,,,,,,,,,,1,space,2.22753230197,3,1.782,,,,,2019_Jan_16_1616,60.03150757049898,Cloud_Experiment_FR_REAL,001,05,
images/fcloud80-20_D1.2_5.tif,1.2,2,,,,,,,,,0,84,84,85,,,,,,,,,,,,,,,1,space,4.0916807818,4,3.066,,,,,2019_Jan_16_1616,60.03150757049898,Cloud_Experiment_FR_REAL,001,05,
images/fcloud_D0.9_6.tif,0.9,0,,,,,,,,,0,85,85,5,,,,,,,,,,,,,,,5,space,1.60708882625,3,2.234,,,,,2019_Jan_16_1616,60.03150757049898,Cloud_Experiment_FR_REAL,001,05,
images/fcloud80-20_D0.8_4.tif,0.8,2,,,,,,,,,0,86,86,72,,,,,,,,,,,,,,,None,None,,None,11.491,,,,,2019_Jan_16_1616,60.03150757049898,Cloud_Experiment_FR_REAL,001,05,
images/fcloud_D0.8_4.tif,0.8,0,,,,,,,,,0,87,87,0,,,,,,,,,,,,,,,1,space,5.81026877399,1,1.75,,,,,2019_Jan_16_1616,60.03150757049898,Cloud_Experiment_FR_REAL,001,05,
images/fcloud80-20_D1.4_6.tif,1.4,2,,,,,,,,,0,88,88,92,,,,,,,,,,,,,,,2,space,6.48874655261,2,1.835,,,,,2019_Jan_16_1616,60.03150757049898,Cloud_Experiment_FR_REAL,001,05,
images/fcloud65-35_D1.9_4.tif,1.9,1,,,,,,,,,0,89,89,69,,,,,,,,,,,,,,,1,space,6.53101374325,1,0.435,,,,,2019_Jan_16_1616,60.03150757049898,Cloud_Experiment_FR_REAL,001,05,
images/fcloud80-20_D1.7_4.tif,1.7,2,,,,,,,,,0,90,90,99,,,,,,,,,,,,,,,1,space,4.11281309201,1,0.802,,,,,2019_Jan_16_1616,60.03150757049898,Cloud_Experiment_FR_REAL,001,05,
images/fcloud_D1.2_6.tif,1.2,0,,,,,,,,,0,91,91,14,,,,,,,,,,,,,,,None,None,,None,10.142,,,,,2019_Jan_16_1616,60.03150757049898,Cloud_Experiment_FR_REAL,001,05,
images/fcloud_D1.7_5.tif,1.7,0,,,,,,,,,0,92,92,28,,,,,,,,,,,,,,,None,None,,None,18.951,,,,,2019_Jan_16_1616,60.03150757049898,Cloud_Experiment_FR_REAL,001,05,
images/fcloud_D1.4_5.tif,1.4,0,,,,,,,,,0,93,93,19,,,,,,,,,,,,,,,2,space,4.05875346664,2,2.801,,,,,2019_Jan_16_1616,60.03150757049898,Cloud_Experiment_FR_REAL,001,05,
images/fcloud_D1.9_6.tif,1.9,0,,,,,,,,,0,94,94,35,,,,,,,,,,,,,,,None,None,,None,11.944,,,,,2019_Jan_16_1616,60.03150757049898,Cloud_Experiment_FR_REAL,001,05,
images/fcloud80-20_D1.1_5.tif,1.1,2,,,,,,,,,0,95,95,82,,,,,,,,,,,,,,,2,space,1.83475478261,3,1.418,,,,,2019_Jan_16_1616,60.03150757049898,Cloud_Experiment_FR_REAL,001,05,
images/fcloud80-20_D1_6.tif,1.0,2,,,,,,,,,0,96,96,80,,,,,,,,,,,,,,,1,space,3.67423424998,3,1.351,,,,,2019_Jan_16_1616,60.03150757049898,Cloud_Experiment_FR_REAL,001,05,
images/fcloud65-35_D1.6_4.tif,1.6,1,,,,,,,,,0,97,97,60,,,,,,,,,,,,,,,None,None,,None,11.842,,,,,2019_Jan_16_1616,60.03150757049898,Cloud_Experiment_FR_REAL,001,05,
images/fcloud_D1.4_6.tif,1.4,0,,,,,,,,,0,98,98,20,,,,,,,,,,,,,,,1,space,4.11359137209,4,1.684,,,,,2019_Jan_16_1616,60.03150757049898,Cloud_Experiment_FR_REAL,001,05,
images/fcloud_D1.5_6.tif,1.5,0,,,,,,,,,0,99,99,23,,,,,,,,,,,,,,,1,space,7.47308636387,1,0.518,,,,,2019_Jan_16_1616,60.03150757049898,Cloud_Experiment_FR_REAL,001,05,
images/fcloud65-35_D1.5_4.tif,1.5,1,,,,,,,,,0,100,100,57,,,,,,,,,,,,,,,1,space,1.79357327736,3,3.983,,,,,2019_Jan_16_1616,60.03150757049898,Cloud_Experiment_FR_REAL,001,05,
images/fcloud65-35_D0.9_4.tif,0.9,1,,,,,,,,,0,101,101,39,,,,,,,,,,,,,,,1,space,1.12247733655,4,1.501,,,,,2019_Jan_16_1616,60.03150757049898,Cloud_Experiment_FR_REAL,001,05,
images/fcloud80-20_D1.5_5.tif,1.5,2,,,,,,,,,0,102,102,94,,,,,,,,,,,,,,,2,space,6.38798960578,1,0.534,,,,,2019_Jan_16_1616,60.03150757049898,Cloud_Experiment_FR_REAL,001,05,
images/fcloud65-35_D1.8_4.tif,1.8,1,,,,,,,,,0,103,103,66,,,,,,,,,,,,,,,1,space,1.06934866594,4,1.734,,,,,2019_Jan_16_1616,60.03150757049898,Cloud_Experiment_FR_REAL,001,05,
images/fcloud_D1_4.tif,1.0,0,,,,,,,,,0,104,104,6,,,,,,,,,,,,,,,1,space,5.07186393975,2,1.001,,,,,2019_Jan_16_1616,60.03150757049898,Cloud_Experiment_FR_REAL,001,05,
images/fcloud65-35_D0.9_5.tif,0.9,1,,,,,,,,,0,105,105,40,,,,,,,,,,,,,,,None,None,,None,10.809,,,,,2019_Jan_16_1616,60.03150757049898,Cloud_Experiment_FR_REAL,001,05,
images/fcloud65-35_D1.7_4.tif,1.7,1,,,,,,,,,0,106,106,63,,,,,,,,,,,,,,,None,None,,None,20.501,,,,,2019_Jan_16_1616,60.03150757049898,Cloud_Experiment_FR_REAL,001,05,
images/fcloud_D1.1_6.tif,1.1,0,,,,,,,,,0,107,107,11,,,,,,,,,,,,,,,None,None,,None,30.392,,,,,2019_Jan_16_1616,60.03150757049898,Cloud_Experiment_FR_REAL,001,05,
,,,,,,,,,,,,,,,,,,,,,,,,,4,7.56,,,,,,,,,,,,2019_Jan_16_1616,60.03150757049898,Cloud_Experiment_FR_REAL,001,05,
,,,,,,,,,,,,,,,,,,,,,,,,,,,,,,,,,,,,space,218.0288123,2019_Jan_16_1616,60.03150757049898,Cloud_Experiment_FR_REAL,001,05,
images/fcloud65-35_D1.1_9.tif,1.1,1,,,,,,,,,,,,,0,0,0,62,,,,,,,,,,,1,space,4.77249802731,3,2.084,,,,,2019_Jan_16_1616,60.03150757049898,Cloud_Experiment_FR_REAL,001,05,
images/fcloud80-20_D1.4_9.tif,1.4,2,,,,,,,,,,,,,0,1,1,122,,,,,,,,,,,2,space,6.52817718463,3,7.313,,,,,2019_Jan_16_1616,60.03150757049898,Cloud_Experiment_FR_REAL,001,05,
images/fcloud_D1.9_9.tif,1.9,0,,,,,,,,,,,,,0,2,2,46,,,,,,,,,,,2,space,5.88368670369,2,1.667,,,,,2019_Jan_16_1616,60.03150757049898,Cloud_Experiment_FR_REAL,001,05,
images/fcloud65-35_D1.5_7.tif,1.5,1,,,,,,,,,,,,,0,3,3,76,,,,,,,,,,,4,space,1.42989181704,3,4.048,,,,,2019_Jan_16_1616,60.03150757049898,Cloud_Experiment_FR_REAL,001,05,
images/fcloud65-35_D1.8_7.tif,1.8,1,,,,,,,,,,,,,0,4,4,88,,,,,,,,,,,2,space,5.8918920586,2,3.898,,,,,2019_Jan_16_1616,60.03150757049898,Cloud_Experiment_FR_REAL,001,05,
images/fcloud65-35_D1_10.tif,1.0,1,,,,,,,,,,,,,0,5,5,59,,,,,,,,,,,1,space,6.82357664441,1,0.92,,,,,2019_Jan_16_1616,60.03150757049898,Cloud_Experiment_FR_REAL,001,05,
images/fcloud65-35_D1.7_10.tif,1.7,1,,,,,,,,,,,,,0,6,6,87,,,,,,,,,,,None,None,,None,9.709,,,,,2019_Jan_16_1616,60.03150757049898,Cloud_Experiment_FR_REAL,001,05,
images/fcloud65-35_D1.5_10.tif,1.5,1,,,,,,,,,,,,,0,7,7,79,,,,,,,,,,,2,space,1.63856701873,5,2.051,,,,,2019_Jan_16_1616,60.03150757049898,Cloud_Experiment_FR_REAL,001,05,
images/fcloud65-35_D1.2_9.tif,1.2,1,,,,,,,,,,,,,0,8,8,66,,,,,,,,,,,2,space,2.95568686817,4,1.15,,,,,2019_Jan_16_1616,60.03150757049898,Cloud_Experiment_FR_REAL,001,05,
images/fcloud65-35_D1.7_8.tif,1.7,1,,,,,,,,,,,,,0,9,9,85,,,,,,,,,,,None,None,,None,10.808,,,,,2019_Jan_16_1616,60.03150757049898,Cloud_Experiment_FR_REAL,001,05,
images/fcloud65-35_D1.9_9.tif,1.9,1,,,,,,,,,,,,,0,10,10,94,,,,,,,,,,,2,space,2.6926939853,1,0.702,,,,,2019_Jan_16_1616,60.03150757049898,Cloud_Experiment_FR_REAL,001,05,
images/fcloud_D1.2_8.tif,1.2,0,,,,,,,,,,,,,0,11,11,17,,,,,,,,,,,1,space,3.98994507315,5,0.485,,,,,2019_Jan_16_1616,60.03150757049898,Cloud_Experiment_FR_REAL,001,05,
images/fcloud65-35_D1.8_10.tif,1.8,1,,,,,,,,,,,,,0,12,12,91,,,,,,,,,,,None,None,,None,9.41,,,,,2019_Jan_16_1616,60.03150757049898,Cloud_Experiment_FR_REAL,001,05,
images/fcloud65-35_D1_7.tif,1.0,1,,,,,,,,,,,,,0,13,13,56,,,,,,,,,,,2,space,2.18005464412,4,1.269,,,,,2019_Jan_16_1616,60.03150757049898,Cloud_Experiment_FR_REAL,001,05,
images/fcloud65-35_D1.4_9.tif,1.4,1,,,,,,,,,,,,,0,14,14,74,,,,,,,,,,,3,space,2.75920300826,3,1.768,,,,,2019_Jan_16_1616,60.03150757049898,Cloud_Experiment_FR_REAL,001,05,
images/fcloud_D1.3_8.tif,1.3,0,,,,,,,,,,,,,0,15,15,21,,,,,,,,,,,1,None,,None,None,,,,,2019_Jan_16_1616,60.03150757049898,Cloud_Experiment_FR_REAL,001,05,
images/fcloud_D1.4_9.tif,1.4,0,,,,,,,,,,,,,0,16,16,26,,,,,,,,,,,None,None,,None,9.511,,,,,2019_Jan_16_1616,60.03150757049898,Cloud_Experiment_FR_REAL,001,05,
images/fcloud80-20_D1.7_7.tif,1.7,2,,,,,,,,,,,,,0,17,17,132,,,,,,,,,,,1,space,1.19325250667,4,2.333,,,,,2019_Jan_16_1616,60.03150757049898,Cloud_Experiment_FR_REAL,001,05,
images/fcloud80-20_D0.8_10.tif,0.8,2,,,,,,,,,,,,,0,18,18,99,,,,,,,,,,,None,None,,None,11.927,,,,,2019_Jan_16_1616,60.03150757049898,Cloud_Experiment_FR_REAL,001,05,
images/fcloud65-35_D1.9_10.tif,1.9,1,,,,,,,,,,,,,0,19,19,95,,,,,,,,,,,None,None,,None,21.884,,,,,2019_Jan_16_1616,60.03150757049898,Cloud_Experiment_FR_REAL,001,05,
images/fcloud_D1.5_10.tif,1.5,0,,,,,,,,,,,,,0,20,20,31,,,,,,,,,,,2,space,3.34562577266,3,0.851,,,,,2019_Jan_16_1616,60.03150757049898,Cloud_Experiment_FR_REAL,001,05,
images/fcloud_D1.3_9.tif,1.3,0,,,,,,,,,,,,,0,21,21,22,,,,,,,,,,,3,space,3.55724548461,2,1.25,,,,,2019_Jan_16_1616,60.03150757049898,Cloud_Experiment_FR_REAL,001,05,
images/fcloud_D0.9_10.tif,0.9,0,,,,,,,,,,,,,0,22,22,7,,,,,,,,,,,None,None,,None,10.575,,,,,2019_Jan_16_1616,60.03150757049898,Cloud_Experiment_FR_REAL,001,05,
images/fcloud65-35_D1.2_7.tif,1.2,1,,,,,,,,,,,,,0,23,23,64,,,,,,,,,,,3,space,2.16740065237,2,1.734,,,,,2019_Jan_16_1616,60.03150757049898,Cloud_Experiment_FR_REAL,001,05,
images/fcloud_D1.5_8.tif,1.5,0,,,,,,,,,,,,,0,24,24,29,,,,,,,,,,,1,space,3.05435931974,1,0.502,,,,,2019_Jan_16_1616,60.03150757049898,Cloud_Experiment_FR_REAL,001,05,
images/fcloud80-20_D1.3_7.tif,1.3,2,,,,,,,,,,,,,0,25,25,116,,,,,,,,,,,2,space,2.5550777124,2,0.719,,,,,2019_Jan_16_1616,60.03150757049898,Cloud_Experiment_FR_REAL,001,05,
images/fcloud_D0.8_8.tif,0.8,0,,,,,,,,,,,,,0,26,26,1,,,,,,,,,,,None,None,,None,9.544,,,,,2019_Jan_16_1616,60.03150757049898,Cloud_Experiment_FR_REAL,001,05,
images/fcloud_D1.1_9.tif,1.1,0,,,,,,,,,,,,,0,27,27,14,,,,,,,,,,,1,space,5.94643592427,2,1.367,,,,,2019_Jan_16_1616,60.03150757049898,Cloud_Experiment_FR_REAL,001,05,
images/fcloud_D1.3_7.tif,1.3,0,,,,,,,,,,,,,0,28,28,20,,,,,,,,,,,None,None,,None,9.912,,,,,2019_Jan_16_1616,60.03150757049898,Cloud_Experiment_FR_REAL,001,05,
images/fcloud_D1.1_10.tif,1.1,0,,,,,,,,,,,,,0,29,29,15,,,,,,,,,,,3,space,4.20424455678,4,2.233,,,,,2019_Jan_16_1616,60.03150757049898,Cloud_Experiment_FR_REAL,001,05,
images/fcloud80-20_D1.6_7.tif,1.6,2,,,,,,,,,,,,,0,30,30,128,,,,,,,,,,,1,space,2.82942659676,1,3.2,,,,,2019_Jan_16_1616,60.03150757049898,Cloud_Experiment_FR_REAL,001,05,
images/fcloud80-20_D1.6_9.tif,1.6,2,,,,,,,,,,,,,0,31,31,130,,,,,,,,,,,2,space,2.7525408481,1,0.934,,,,,2019_Jan_16_1616,60.03150757049898,Cloud_Experiment_FR_REAL,001,05,
images/fcloud80-20_D1.2_7.tif,1.2,2,,,,,,,,,,,,,0,32,32,112,,,,,,,,,,,1,space,6.82261638856,1,0.966,,,,,2019_Jan_16_1616,60.03150757049898,Cloud_Experiment_FR_REAL,001,05,
images/fcloud80-20_D1.2_8.tif,1.2,2,,,,,,,,,,,,,0,33,33,113,,,,,,,,,,,2,space,1.35936133732,4,4.249,,,,,2019_Jan_16_1616,60.03150757049898,Cloud_Experiment_FR_REAL,001,05,
images/fcloud80-20_D1.1_9.tif,1.1,2,,,,,,,,,,,,,0,34,34,110,,,,,,,,,,,2,space,3.35055813583,1,0.74,,,,,2019_Jan_16_1616,60.03150757049898,Cloud_Experiment_FR_REAL,001,05,
images/fcloud_D1.6_8.tif,1.6,0,,,,,,,,,,,,,0,35,35,33,,,,,,,,,,,None,None,,None,9.996,,,,,2019_Jan_16_1616,60.03150757049898,Cloud_Experiment_FR_REAL,001,05,
images/fcloud_D1.8_9.tif,1.8,0,,,,,,,,,,,,,0,36,36,42,,,,,,,,,,,1,space,2.83552689414,4,0.802,,,,,2019_Jan_16_1616,60.03150757049898,Cloud_Experiment_FR_REAL,001,05,
images/fcloud_D1.7_7.tif,1.7,0,,,,,,,,,,,,,0,37,37,36,,,,,,,,,,,None,None,,None,9.958,,,,,2019_Jan_16_1616,60.03150757049898,Cloud_Experiment_FR_REAL,001,05,
images/fcloud65-35_D1.6_8.tif,1.6,1,,,,,,,,,,,,,0,38,38,81,,,,,,,,,,,1,space,2.49280964781,2,0.618,,,,,2019_Jan_16_1616,60.03150757049898,Cloud_Experiment_FR_REAL,001,05,
images/fcloud65-35_D1.3_9.tif,1.3,1,,,,,,,,,,,,,0,39,39,70,,,,,,,,,,,2,space,1.95897528162,3,1.318,,,,,2019_Jan_16_1616,60.03150757049898,Cloud_Experiment_FR_REAL,001,05,
images/fcloud80-20_D1.7_9.tif,1.7,2,,,,,,,,,,,,,0,40,40,134,,,,,,,,,,,1,space,7.23769158212,1,0.501,,,,,2019_Jan_16_1616,60.03150757049898,Cloud_Experiment_FR_REAL,001,05,
images/fcloud80-20_D1.5_9.tif,1.5,2,,,,,,,,,,,,,0,41,41,126,,,,,,,,,,,1,space,5.59369562258,2,0.702,,,,,2019_Jan_16_1616,60.03150757049898,Cloud_Experiment_FR_REAL,001,05,
images/fcloud65-35_D1.2_10.tif,1.2,1,,,,,,,,,,,,,0,42,42,67,,,,,,,,,,,None,None,,None,9.794,,,,,2019_Jan_16_1616,60.03150757049898,Cloud_Experiment_FR_REAL,001,05,
images/fcloud80-20_D1.4_8.tif,1.4,2,,,,,,,,,,,,,0,43,43,121,,,,,,,,,,,1,space,2.22020135552,1,0.419,,,,,2019_Jan_16_1616,60.03150757049898,Cloud_Experiment_FR_REAL,001,05,
images/fcloud80-20_D1.6_10.tif,1.6,2,,,,,,,,,,,,,0,44,44,131,,,,,,,,,,,2,space,5.75272539409,1,0.753,,,,,2019_Jan_16_1616,60.03150757049898,Cloud_Experiment_FR_REAL,001,05,
images/fcloud65-35_D1.9_8.tif,1.9,1,,,,,,,,,,,,,0,45,45,93,,,,,,,,,,,None,None,,None,11.506,,,,,2019_Jan_16_1616,60.03150757049898,Cloud_Experiment_FR_REAL,001,05,
images/fcloud80-20_D1.3_10.tif,1.3,2,,,,,,,,,,,,,0,46,46,119,,,,,,,,,,,None,None,,None,20.085,,,,,2019_Jan_16_1616,60.03150757049898,Cloud_Experiment_FR_REAL,001,05,
images/fcloud65-35_D1.3_7.tif,1.3,1,,,,,,,,,,,,,0,47,47,68,,,,,,,,,,,4,space,2.6995818158,2,1.367,,,,,2019_Jan_16_1616,60.03150757049898,Cloud_Experiment_FR_REAL,001,05,
images/fcloud_D1.1_8.tif,1.1,0,,,,,,,,,,,,,0,48,48,13,,,,,,,,,,,3,space,4.54148248484,2,0.67,,,,,2019_Jan_16_1616,60.03150757049898,Cloud_Experiment_FR_REAL,001,05,
images/fcloud_D1.5_9.tif,1.5,0,,,,,,,,,,,,,0,49,49,30,,,,,,,,,,,4,space,1.72459421738,2,1.185,,,,,2019_Jan_16_1616,60.03150757049898,Cloud_Experiment_FR_REAL,001,05,
images/fcloud80-20_D1.2_9.tif,1.2,2,,,,,,,,,,,,,0,50,50,114,,,,,,,,,,,None,None,,None,9.993,,,,,2019_Jan_16_1616,60.03150757049898,Cloud_Experiment_FR_REAL,001,05,
images/fcloud65-35_D0.8_10.tif,0.8,1,,,,,,,,,,,,,0,51,51,51,,,,,,,,,,,1,space,5.63859015121,1,0.468,,,,,2019_Jan_16_1616,60.03150757049898,Cloud_Experiment_FR_REAL,001,05,
images/fcloud80-20_D1.3_8.tif,1.3,2,,,,,,,,,,,,,0,52,52,117,,,,,,,,,,,None,None,,None,9.292,,,,,2019_Jan_16_1616,60.03150757049898,Cloud_Experiment_FR_REAL,001,05,
images/fcloud80-20_D1.5_8.tif,1.5,2,,,,,,,,,,,,,0,53,53,125,,,,,,,,,,,1,space,5.13638768013,1,1.2,,,,,2019_Jan_16_1616,60.03150757049898,Cloud_Experiment_FR_REAL,001,05,
images/fcloud80-20_D0.8_8.tif,0.8,2,,,,,,,,,,,,,0,54,54,97,,,,,,,,,,,1,space,2.24613854307,3,1.649,,,,,2019_Jan_16_1616,60.03150757049898,Cloud_Experiment_FR_REAL,001,05,
images/fcloud65-35_D0.9_7.tif,0.9,1,,,,,,,,,,,,,0,55,55,52,,,,,,,,,,,2,space,4.40324266249,3,0.751,,,,,2019_Jan_16_1616,60.03150757049898,Cloud_Experiment_FR_REAL,001,05,
images/fcloud65-35_D1.8_9.tif,1.8,1,,,,,,,,,,,,,0,56,56,90,,,,,,,,,,,2,space,2.5940904172,2,2.316,,,,,2019_Jan_16_1616,60.03150757049898,Cloud_Experiment_FR_REAL,001,05,
images/fcloud80-20_D1_9.tif,1.0,2,,,,,,,,,,,,,0,57,57,106,,,,,,,,,,,None,None,,None,10.858,,,,,2019_Jan_16_1616,60.03150757049898,Cloud_Experiment_FR_REAL,001,05,
images/fcloud80-20_D1.1_10.tif,1.1,2,,,,,,,,,,,,,0,58,58,111,,,,,,,,,,,2,space,3.26835756679,1,0.652,,,,,2019_Jan_16_1616,60.03150757049898,Cloud_Experiment_FR_REAL,001,05,
images/fcloud_D1_9.tif,1.0,0,,,,,,,,,,,,,0,59,59,10,,,,,,,,,,,2,space,1.20880217344,4,1.717,,,,,2019_Jan_16_1616,60.03150757049898,Cloud_Experiment_FR_REAL,001,05,
images/fcloud80-20_D1.5_10.tif,1.5,2,,,,,,,,,,,,,0,60,60,127,,,,,,,,,,,1,space,8.00573634607,3,1.435,,,,,2019_Jan_16_1616,60.03150757049898,Cloud_Experiment_FR_REAL,001,05,
images/fcloud_D1.2_7.tif,1.2,0,,,,,,,,,,,,,0,61,61,16,,,,,,,,,,,2,space,3.41214918921,1,0.934,,,,,2019_Jan_16_1616,60.03150757049898,Cloud_Experiment_FR_REAL,001,05,
images/fcloud_D1.7_9.tif,1.7,0,,,,,,,,,,,,,0,62,62,38,,,,,,,,,,,1,space,6.98682989646,1,0.485,,,,,2019_Jan_16_1616,60.03150757049898,Cloud_Experiment_FR_REAL,001,05,
images/fcloud65-35_D1.1_8.tif,1.1,1,,,,,,,,,,,,,0,63,63,61,,,,,,,,,,,1,space,6.10262708092,1,0.503,,,,,2019_Jan_16_1616,60.03150757049898,Cloud_Experiment_FR_REAL,001,05,
images/fcloud80-20_D1.1_8.tif,1.1,2,,,,,,,,,,,,,0,64,64,109,,,,,,,,,,,1,space,3.30808275263,3,0.834,,,,,2019_Jan_16_1616,60.03150757049898,Cloud_Experiment_FR_REAL,001,05,
images/fcloud65-35_D1.1_7.tif,1.1,1,,,,,,,,,,,,,0,65,65,60,,,,,,,,,,,1,space,1.80394948891,2,0.618,,,,,2019_Jan_16_1616,60.03150757049898,Cloud_Experiment_FR_REAL,001,05,
images/fcloud65-35_D1.6_10.tif,1.6,1,,,,,,,,,,,,,0,66,66,83,,,,,,,,,,,2,space,5.07715357153,3,0.952,,,,,2019_Jan_16_1616,60.03150757049898,Cloud_Experiment_FR_REAL,001,05,
images/fcloud80-20_D1.3_9.tif,1.3,2,,,,,,,,,,,,,0,67,67,118,,,,,,,,,,,1,space,6.87145732186,1,0.702,,,,,2019_Jan_16_1616,60.03150757049898,Cloud_Experiment_FR_REAL,001,05,
images/fcloud_D0.8_7.tif,0.8,0,,,,,,,,,,,,,0,68,68,0,,,,,,,,,,,1,None,,1,1.484,,,,,2019_Jan_16_1616,60.03150757049898,Cloud_Experiment_FR_REAL,001,05,
images/fcloud80-20_D1_10.tif,1.0,2,,,,,,,,,,,,,0,69,69,107,,,,,,,,,,,None,None,,None,10.86,,,,,2019_Jan_16_1616,60.03150757049898,Cloud_Experiment_FR_REAL,001,05,
images/fcloud_D0.8_9.tif,0.8,0,,,,,,,,,,,,,0,70,70,2,,,,,,,,,,,2,space,1.92994656391,4,1.335,,,,,2019_Jan_16_1616,60.03150757049898,Cloud_Experiment_FR_REAL,001,05,
images/fcloud80-20_D1.8_9.tif,1.8,2,,,,,,,,,,,,,0,71,71,138,,,,,,,,,,,None,None,,None,12.391,,,,,2019_Jan_16_1616,60.03150757049898,Cloud_Experiment_FR_REAL,001,05,
images/fcloud80-20_D1.9_9.tif,1.9,2,,,,,,,,,,,,,0,72,72,142,,,,,,,,,,,None,None,,None,21.183,,,,,2019_Jan_16_1616,60.03150757049898,Cloud_Experiment_FR_REAL,001,05,
images/fcloud65-35_D1.7_9.tif,1.7,1,,,,,,,,,,,,,0,73,73,86,,,,,,,,,,,3,space,2.410435842,3,1.119,,,,,2019_Jan_16_1616,60.03150757049898,Cloud_Experiment_FR_REAL,001,05,
images/fcloud80-20_D0.8_7.tif,0.8,2,,,,,,,,,,,,,0,74,74,96,,,,,,,,,,,1,space,3.95488956803,3,2.068,,,,,2019_Jan_16_1616,60.03150757049898,Cloud_Experiment_FR_REAL,001,05,
images/fcloud65-35_D1.7_7.tif,1.7,1,,,,,,,,,,,,,0,75,75,84,,,,,,,,,,,2,space,2.77159483166,2,1.634,,,,,2019_Jan_16_1616,60.03150757049898,Cloud_Experiment_FR_REAL,001,05,
images/fcloud65-35_D0.8_9.tif,0.8,1,,,,,,,,,,,,,0,76,76,50,,,,,,,,,,,1,space,1.70628715656,4,1.135,,,,,2019_Jan_16_1616,60.03150757049898,Cloud_Experiment_FR_REAL,001,05,
images/fcloud65-35_D1.1_10.tif,1.1,1,,,,,,,,,,,,,0,77,77,63,,,,,,,,,,,None,None,,None,10.343,,,,,2019_Jan_16_1616,60.03150757049898,Cloud_Experiment_FR_REAL,001,05,
images/fcloud65-35_D1.9_7.tif,1.9,1,,,,,,,,,,,,,0,78,78,92,,,,,,,,,,,None,None,,None,19.019,,,,,2019_Jan_16_1616,60.03150757049898,Cloud_Experiment_FR_REAL,001,05,
images/fcloud_D0.8_10.tif,0.8,0,,,,,,,,,,,,,0,79,79,3,,,,,,,,,,,3,space,4.40900522535,1,0.468,,,,,2019_Jan_16_1616,60.03150757049898,Cloud_Experiment_FR_REAL,001,05,
images/fcloud_D1.6_7.tif,1.6,0,,,,,,,,,,,,,0,80,80,32,,,,,,,,,,,2,space,3.45797364437,1,7.397,,,,,2019_Jan_16_1616,60.03150757049898,Cloud_Experiment_FR_REAL,001,05,
images/fcloud_D1.6_10.tif,1.6,0,,,,,,,,,,,,,0,81,81,35,,,,,,,,,,,None,None,,None,16.154,,,,,2019_Jan_16_1616,60.03150757049898,Cloud_Experiment_FR_REAL,001,05,
images/fcloud65-35_D0.9_9.tif,0.9,1,,,,,,,,,,,,,0,82,82,54,,,,,,,,,,,2,space,2.81398590974,3,1.368,,,,,2019_Jan_16_1616,60.03150757049898,Cloud_Experiment_FR_REAL,001,05,
images/fcloud80-20_D0.9_7.tif,0.9,2,,,,,,,,,,,,,0,83,83,100,,,,,,,,,,,1,space,4.42495585547,2,2.002,,,,,2019_Jan_16_1616,60.03150757049898,Cloud_Experiment_FR_REAL,001,05,
images/fcloud80-20_D1.8_7.tif,1.8,2,,,,,,,,,,,,,0,84,84,136,,,,,,,,,,,None,None,,None,10.842,,,,,2019_Jan_16_1616,60.03150757049898,Cloud_Experiment_FR_REAL,001,05,
images/fcloud65-35_D1.6_7.tif,1.6,1,,,,,,,,,,,,,0,85,85,80,,,,,,,,,,,2,space,6.59842647595,1,1.634,,,,,2019_Jan_16_1616,60.03150757049898,Cloud_Experiment_FR_REAL,001,05,
images/fcloud65-35_D0.8_8.tif,0.8,1,,,,,,,,,,,,,0,86,86,49,,,,,,,,,,,1,None,,2,1.701,,,,,2019_Jan_16_1616,60.03150757049898,Cloud_Experiment_FR_REAL,001,05,
images/fcloud_D1_7.tif,1.0,0,,,,,,,,,,,,,0,87,87,8,,,,,,,,,,,1,space,4.70651539724,3,1.601,,,,,2019_Jan_16_1616,60.03150757049898,Cloud_Experiment_FR_REAL,001,05,
images/fcloud_D1.2_10.tif,1.2,0,,,,,,,,,,,,,0,88,88,19,,,,,,,,,,,None,None,,None,11.009,,,,,2019_Jan_16_1616,60.03150757049898,Cloud_Experiment_FR_REAL,001,05,
images/fcloud65-35_D1.3_10.tif,1.3,1,,,,,,,,,,,,,0,89,89,71,,,,,,,,,,,None,None,,None,19.668,,,,,2019_Jan_16_1616,60.03150757049898,Cloud_Experiment_FR_REAL,001,05,
images/fcloud_D1.9_7.tif,1.9,0,,,,,,,,,,,,,0,90,90,44,,,,,,,,,,,1,space,4.62433179206,4,1.268,,,,,2019_Jan_16_1616,60.03150757049898,Cloud_Experiment_FR_REAL,001,05,
images/fcloud_D1.8_8.tif,1.8,0,,,,,,,,,,,,,0,91,91,41,,,,,,,,,,,1,None,,2,0.835,,,,,2019_Jan_16_1616,60.03150757049898,Cloud_Experiment_FR_REAL,001,05,
images/fcloud80-20_D1.7_8.tif,1.7,2,,,,,,,,,,,,,0,92,92,133,,,,,,,,,,,None,None,,None,10.193,,,,,2019_Jan_16_1616,60.03150757049898,Cloud_Experiment_FR_REAL,001,05,
images/fcloud_D1.5_7.tif,1.5,0,,,,,,,,,,,,,0,93,93,28,,,,,,,,,,,None,None,,None,20.634,,,,,2019_Jan_16_1616,60.03150757049898,Cloud_Experiment_FR_REAL,001,05,
images/fcloud65-35_D1.4_10.tif,1.4,1,,,,,,,,,,,,,0,94,94,75,,,,,,,,,,,2,space,1.31196078786,2,2.816,,,,,2019_Jan_16_1616,60.03150757049898,Cloud_Experiment_FR_REAL,001,05,
images/fcloud80-20_D1.9_8.tif,1.9,2,,,,,,,,,,,,,0,95,95,141,,,,,,,,,,,None,None,,None,12.307,,,,,2019_Jan_16_1616,60.03150757049898,Cloud_Experiment_FR_REAL,001,05,
images/fcloud65-35_D1.4_7.tif,1.4,1,,,,,,,,,,,,,0,96,96,72,,,,,,,,,,,None,None,,None,21.949,,,,,2019_Jan_16_1616,60.03150757049898,Cloud_Experiment_FR_REAL,001,05,
images/fcloud65-35_D0.8_7.tif,0.8,1,,,,,,,,,,,,,0,97,97,48,,,,,,,,,,,1,space,4.76724335132,4,1.517,,,,,2019_Jan_16_1616,60.03150757049898,Cloud_Experiment_FR_REAL,001,05,
images/fcloud80-20_D0.9_9.tif,0.9,2,,,,,,,,,,,,,0,98,98,102,,,,,,,,,,,None,None,,None,12.44,,,,,2019_Jan_16_1616,60.03150757049898,Cloud_Experiment_FR_REAL,001,05,
images/fcloud80-20_D1.4_7.tif,1.4,2,,,,,,,,,,,,,0,99,99,120,,,,,,,,,,,1,space,2.6798086685,2,0.469,,,,,2019_Jan_16_1616,60.03150757049898,Cloud_Experiment_FR_REAL,001,05,
images/fcloud65-35_D1_9.tif,1.0,1,,,,,,,,,,,,,0,100,100,58,,,,,,,,,,,None,None,,None,10.008,,,,,2019_Jan_16_1616,60.03150757049898,Cloud_Experiment_FR_REAL,001,05,
images/fcloud80-20_D1.8_8.tif,1.8,2,,,,,,,,,,,,,0,101,101,137,,,,,,,,,,,1,space,6.95447421115,1,0.438,,,,,2019_Jan_16_1616,60.03150757049898,Cloud_Experiment_FR_REAL,001,05,
images/fcloud_D1.2_9.tif,1.2,0,,,,,,,,,,,,,0,102,102,18,,,,,,,,,,,4,space,2.46636303118,3,2.234,,,,,2019_Jan_16_1616,60.03150757049898,Cloud_Experiment_FR_REAL,001,05,
images/fcloud65-35_D0.9_10.tif,0.9,1,,,,,,,,,,,,,0,103,103,55,,,,,,,,,,,None,None,,None,11.74,,,,,2019_Jan_16_1616,60.03150757049898,Cloud_Experiment_FR_REAL,001,05,
images/fcloud_D1.1_7.tif,1.1,0,,,,,,,,,,,,,0,104,104,12,,,,,,,,,,,1,space,5.0029501649,2,0.468,,,,,2019_Jan_16_1616,60.03150757049898,Cloud_Experiment_FR_REAL,001,05,
images/fcloud65-35_D1.5_9.tif,1.5,1,,,,,,,,,,,,,0,105,105,78,,,,,,,,,,,2,space,2.08934851171,2,1.602,,,,,2019_Jan_16_1616,60.03150757049898,Cloud_Experiment_FR_REAL,001,05,
images/fcloud_D1.4_8.tif,1.4,0,,,,,,,,,,,,,0,106,106,25,,,,,,,,,,,1,None,,1,2.434,,,,,2019_Jan_16_1616,60.03150757049898,Cloud_Experiment_FR_REAL,001,05,
images/fcloud_D0.9_9.tif,0.9,0,,,,,,,,,,,,,0,107,107,6,,,,,,,,,,,1,space,2.62250226823,1,0.851,,,,,2019_Jan_16_1616,60.03150757049898,Cloud_Experiment_FR_REAL,001,05,
images/fcloud_D1.4_7.tif,1.4,0,,,,,,,,,,,,,0,108,108,24,,,,,,,,,,,None,None,,None,10.092,,,,,2019_Jan_16_1616,60.03150757049898,Cloud_Experiment_FR_REAL,001,05,
images/fcloud_D0.9_8.tif,0.9,0,,,,,,,,,,,,,0,109,109,5,,,,,,,,,,,1,space,7.33291831915,3,0.951,,,,,2019_Jan_16_1616,60.03150757049898,Cloud_Experiment_FR_REAL,001,05,
images/fcloud65-35_D1.5_8.tif,1.5,1,,,,,,,,,,,,,0,110,110,77,,,,,,,,,,,None,None,,None,10.708,,,,,2019_Jan_16_1616,60.03150757049898,Cloud_Experiment_FR_REAL,001,05,
images/fcloud80-20_D0.9_8.tif,0.9,2,,,,,,,,,,,,,0,111,111,101,,,,,,,,,,,1,space,1.18040574406,3,1.186,,,,,2019_Jan_16_1616,60.03150757049898,Cloud_Experiment_FR_REAL,001,05,
images/fcloud80-20_D1.2_10.tif,1.2,2,,,,,,,,,,,,,0,112,112,115,,,,,,,,,,,2,space,5.12169597211,3,1.618,,,,,2019_Jan_16_1616,60.03150757049898,Cloud_Experiment_FR_REAL,001,05,
images/fcloud_D1.4_10.tif,1.4,0,,,,,,,,,,,,,0,113,113,27,,,,,,,,,,,1,space,3.05904133781,2,0.868,,,,,2019_Jan_16_1616,60.03150757049898,Cloud_Experiment_FR_REAL,001,05,
images/fcloud_D1.7_8.tif,1.7,0,,,,,,,,,,,,,0,114,114,37,,,,,,,,,,,3,space,1.64547078498,3,1.367,,,,,2019_Jan_16_1616,60.03150757049898,Cloud_Experiment_FR_REAL,001,05,
images/fcloud_D1.6_9.tif,1.6,0,,,,,,,,,,,,,0,115,115,34,,,,,,,,,,,1,space,7.37154856668,2,0.535,,,,,2019_Jan_16_1616,60.03150757049898,Cloud_Experiment_FR_REAL,001,05,
images/fcloud80-20_D1.9_10.tif,1.9,2,,,,,,,,,,,,,0,116,116,143,,,,,,,,,,,None,None,,None,9.577,,,,,2019_Jan_16_1616,60.03150757049898,Cloud_Experiment_FR_REAL,001,05,
images/fcloud65-35_D1.8_8.tif,1.8,1,,,,,,,,,,,,,0,117,117,89,,,,,,,,,,,1,space,4.85696352524,1,1.019,,,,,2019_Jan_16_1616,60.03150757049898,Cloud_Experiment_FR_REAL,001,05,
images/fcloud_D1.9_8.tif,1.9,0,,,,,,,,,,,,,0,118,118,45,,,,,,,,,,,1,space,6.9679183063,1,0.518,,,,,2019_Jan_16_1616,60.03150757049898,Cloud_Experiment_FR_REAL,001,05,
images/fcloud80-20_D1.7_10.tif,1.7,2,,,,,,,,,,,,,0,119,119,135,,,,,,,,,,,1,space,7.87028887356,1,0.42,,,,,2019_Jan_16_1616,60.03150757049898,Cloud_Experiment_FR_REAL,001,05,
images/fcloud65-35_D0.9_8.tif,0.9,1,,,,,,,,,,,,,0,120,120,53,,,,,,,,,,,1,space,7.41786754329,2,0.635,,,,,2019_Jan_16_1616,60.03150757049898,Cloud_Experiment_FR_REAL,001,05,
images/fcloud_D1.3_10.tif,1.3,0,,,,,,,,,,,,,0,121,121,23,,,,,,,,,,,None,None,,None,10.425,,,,,2019_Jan_16_1616,60.03150757049898,Cloud_Experiment_FR_REAL,001,05,
images/fcloud65-35_D1_8.tif,1.0,1,,,,,,,,,,,,,0,122,122,57,,,,,,,,,,,1,None,,1,2.034,,,,,2019_Jan_16_1616,60.03150757049898,Cloud_Experiment_FR_REAL,001,05,
images/fcloud80-20_D1.4_10.tif,1.4,2,,,,,,,,,,,,,0,123,123,123,,,,,,,,,,,3,space,1.77620899444,3,4.431,,,,,2019_Jan_16_1616,60.03150757049898,Cloud_Experiment_FR_REAL,001,05,
images/fcloud80-20_D1.6_8.tif,1.6,2,,,,,,,,,,,,,0,124,124,129,,,,,,,,,,,1,space,3.20886437414,2,0.785,,,,,2019_Jan_16_1616,60.03150757049898,Cloud_Experiment_FR_REAL,001,05,
images/fcloud80-20_D1.9_7.tif,1.9,2,,,,,,,,,,,,,0,125,125,140,,,,,,,,,,,None,None,,None,9.912,,,,,2019_Jan_16_1616,60.03150757049898,Cloud_Experiment_FR_REAL,001,05,
images/fcloud65-35_D1.2_8.tif,1.2,1,,,,,,,,,,,,,0,126,126,65,,,,,,,,,,,1,space,8.00814058393,2,0.984,,,,,2019_Jan_16_1616,60.03150757049898,Cloud_Experiment_FR_REAL,001,05,
images/fcloud80-20_D1.5_7.tif,1.5,2,,,,,,,,,,,,,0,127,127,124,,,,,,,,,,,None,None,,None,11.191,,,,,2019_Jan_16_1616,60.03150757049898,Cloud_Experiment_FR_REAL,001,05,
images/fcloud_D1_10.tif,1.0,0,,,,,,,,,,,,,0,128,128,11,,,,,,,,,,,1,space,4.10527138278,1,0.968,,,,,2019_Jan_16_1616,60.03150757049898,Cloud_Experiment_FR_REAL,001,05,
images/fcloud_D1_8.tif,1.0,0,,,,,,,,,,,,,0,129,129,9,,,,,,,,,,,None,None,,None,10.076,,,,,2019_Jan_16_1616,60.03150757049898,Cloud_Experiment_FR_REAL,001,05,
images/fcloud80-20_D0.8_9.tif,0.8,2,,,,,,,,,,,,,0,130,130,98,,,,,,,,,,,1,space,3.36659358512,3,0.686,,,,,2019_Jan_16_1616,60.03150757049898,Cloud_Experiment_FR_REAL,001,05,
images/fcloud80-20_D1_7.tif,1.0,2,,,,,,,,,,,,,0,131,131,104,,,,,,,,,,,None,None,,None,9.895,,,,,2019_Jan_16_1616,60.03150757049898,Cloud_Experiment_FR_REAL,001,05,
images/fcloud80-20_D0.9_10.tif,0.9,2,,,,,,,,,,,,,0,132,132,103,,,,,,,,,,,1,space,5.64437636064,4,0.468,,,,,2019_Jan_16_1616,60.03150757049898,Cloud_Experiment_FR_REAL,001,05,
images/fcloud_D1.9_10.tif,1.9,0,,,,,,,,,,,,,0,133,133,47,,,,,,,,,,,None,space,3.61476418987,None,11.175,,,,,2019_Jan_16_1616,60.03150757049898,Cloud_Experiment_FR_REAL,001,05,
images/fcloud65-35_D1.3_8.tif,1.3,1,,,,,,,,,,,,,0,134,134,69,,,,,,,,,,,2,space,4.01067179348,1,1.102,,,,,2019_Jan_16_1616,60.03150757049898,Cloud_Experiment_FR_REAL,001,05,
images/fcloud80-20_D1.8_10.tif,1.8,2,,,,,,,,,,,,,0,135,135,139,,,,,,,,,,,None,None,,None,10.377,,,,,2019_Jan_16_1616,60.03150757049898,Cloud_Experiment_FR_REAL,001,05,
images/fcloud_D1.7_10.tif,1.7,0,,,,,,,,,,,,,0,136,136,39,,,,,,,,,,,None,None,,None,19.251,,,,,2019_Jan_16_1616,60.03150757049898,Cloud_Experiment_FR_REAL,001,05,
images/fcloud_D1.8_10.tif,1.8,0,,,,,,,,,,,,,0,137,137,43,,,,,,,,,,,None,None,,None,28.111,,,,,2019_Jan_16_1616,60.03150757049898,Cloud_Experiment_FR_REAL,001,05,
images/fcloud_D0.9_7.tif,0.9,0,,,,,,,,,,,,,0,138,138,4,,,,,,,,,,,1,space,1.30047935678,2,4.532,,,,,2019_Jan_16_1616,60.03150757049898,Cloud_Experiment_FR_REAL,001,05,
images/fcloud65-35_D1.4_8.tif,1.4,1,,,,,,,,,,,,,0,139,139,73,,,,,,,,,,,None,None,,None,14.256,,,,,2019_Jan_16_1616,60.03150757049898,Cloud_Experiment_FR_REAL,001,05,
images/fcloud80-20_D1.1_7.tif,1.1,2,,,,,,,,,,,,,0,140,140,108,,,,,,,,,,,2,space,6.55886424566,4,2.583,,,,,2019_Jan_16_1616,60.03150757049898,Cloud_Experiment_FR_REAL,001,05,
images/fcloud_D1.8_7.tif,1.8,0,,,,,,,,,,,,,0,141,141,40,,,,,,,,,,,1,space,8.96954426408,2,0.92,,,,,2019_Jan_16_1616,60.03150757049898,Cloud_Experiment_FR_REAL,001,05,
images/fcloud65-35_D1.6_9.tif,1.6,1,,,,,,,,,,,,,0,142,142,82,,,,,,,,,,,None,None,,None,11.026,,,,,2019_Jan_16_1616,60.03150757049898,Cloud_Experiment_FR_REAL,001,05,
images/fcloud80-20_D1_8.tif,1.0,2,,,,,,,,,,,,,0,143,143,105,,,,,,,,,,,None,None,,None,20.085,,,,,2019_Jan_16_1616,60.03150757049898,Cloud_Experiment_FR_REAL,001,05,
,,,,,,,,,,,,,,,,,,,,,,,,,3,6.765,,,,,,,,,,,,2019_Jan_16_1616,60.03150757049898,Cloud_Experiment_FR_REAL,001,05,
