ImageFile,FD,Contrast,trials_4.thisRepN,trials_4.thisTrialN,trials_4.thisN,trials_4.thisIndex,trials.thisRepN,trials.thisTrialN,trials.thisN,trials.thisIndex,trials_2.thisRepN,trials_2.thisTrialN,trials_2.thisN,trials_2.thisIndex,trials_3.thisRepN,trials_3.thisTrialN,trials_3.thisN,trials_3.thisIndex,end_instructions.keys,end_instructions.rt,key_resp_4.keys,key_resp_4.rt,key_resp_6.keys,key_resp_6.rt,Fatigue.response,Fatigue.rt,key_resp_5.keys,key_resp_5.rt,n_objets.response,reaction_time.keys,reaction_time.rt,vividness.response,vividness.rt,key_resp_2.keys,key_resp_2.rt,key_resp_3.keys,key_resp_3.rt,date,frameRate,expName,session,participant,
,,,,,,,,,,,,,,,,,,,space,39.3751193895,,,,,,,,,,,,,,,,,,2019_Jan_19_1401,59.611134610797755,Cloud_Experiment_FR_REAL,001,06,
,,,,,,,,,,,,,,,,,,,,,space,221.724528791,,,,,,,,,,,,,,,,2019_Jan_19_1401,59.611134610797755,Cloud_Experiment_FR_REAL,001,06,
,,,,,,,,,,,,,,,,,,,,,,,space,121.111955705,,,,,,,,,,,,,,2019_Jan_19_1401,59.611134610797755,Cloud_Experiment_FR_REAL,001,06,
,,,,,,,,,,,,,,,,,,,,,,,,,8,17.966,,,,,,,,,,,,2019_Jan_19_1401,59.611134610797755,Cloud_Experiment_FR_REAL,001,06,
,,,,,,,,,,,,,,,,,,,,,,,,,,,space,72.1551944827,,,,,,,,,,2019_Jan_19_1401,59.611134610797755,Cloud_Experiment_FR_REAL,001,06,
pratique/fcloud_D1.4_30,1.4,0,0,0,0,1,,,,,,,,,,,,,,,,,,,,,,,1,space,6.28377475307,2,16.205,,,,,2019_Jan_19_1401,59.611134610797755,Cloud_Experiment_FR_REAL,001,06,
pratique/fcloud65-35_D1.6_30,1.6,1,0,1,1,2,,,,,,,,,,,,,,,,,,,,,,,1,None,,2,28.929,,,,,2019_Jan_19_1401,59.611134610797755,Cloud_Experiment_FR_REAL,001,06,
pratique/fcloud65-35_D1.2_30,1.2,1,0,2,2,3,,,,,,,,,,,,,,,,,,,,,,,None,None,,None,39.416,,,,,2019_Jan_19_1401,59.611134610797755,Cloud_Experiment_FR_REAL,001,06,
pratique/fcloud80-20_D1.8_30,1.8,2,0,3,3,4,,,,,,,,,,,,,,,,,,,,,,,1,None,,1,1.785,,,,,2019_Jan_19_1401,59.611134610797755,Cloud_Experiment_FR_REAL,001,06,
pratique/fcloud_D0.8_30,0.8,0,0,4,4,0,,,,,,,,,,,,,,,,,,,,,,,2,space,3.22454986701,3,13.108,,,,,2019_Jan_19_1401,59.611134610797755,Cloud_Experiment_FR_REAL,001,06,
,,,,,,,,,,,,,,,,,,,,,,,,,,,,,,,,,,space,55.969273341,,,2019_Jan_19_1401,59.611134610797755,Cloud_Experiment_FR_REAL,001,06,
images/fcloud_D0.9_1.tif,0.9,0,,,,,0,0,0,3,,,,,,,,,,,,,,,,,,,3,None,,2,5.565,,,,,2019_Jan_19_1401,59.611134610797755,Cloud_Experiment_FR_REAL,001,06,
images/fcloud80-20_D1_1.tif,1.0,2,,,,,0,1,1,78,,,,,,,,,,,,,,,,,,,1,None,,1,1.385,,,,,2019_Jan_19_1401,59.611134610797755,Cloud_Experiment_FR_REAL,001,06,
images/fcloud80-20_D1.7_3.tif,1.7,2,,,,,0,2,2,101,,,,,,,,,,,,,,,,,,,2,None,,1,5.349,,,,,2019_Jan_19_1401,59.611134610797755,Cloud_Experiment_FR_REAL,001,06,
images/fcloud80-20_D1.8_2.tif,1.8,2,,,,,0,3,3,103,,,,,,,,,,,,,,,,,,,1,None,,4,5.698,,,,,2019_Jan_19_1401,59.611134610797755,Cloud_Experiment_FR_REAL,001,06,
images/fcloud_D1.5_2.tif,1.5,0,,,,,0,4,4,22,,,,,,,,,,,,,,,,,,,1,None,,1,6.431,,,,,2019_Jan_19_1401,59.611134610797755,Cloud_Experiment_FR_REAL,001,06,
images/fcloud65-35_D1.1_3.tif,1.1,1,,,,,0,5,5,47,,,,,,,,,,,,,,,,,,,2,None,,2,5.982,,,,,2019_Jan_19_1401,59.611134610797755,Cloud_Experiment_FR_REAL,001,06,
images/fcloud_D1.4_2.tif,1.4,0,,,,,0,6,6,19,,,,,,,,,,,,,,,,,,,1,None,,2,5.481,,,,,2019_Jan_19_1401,59.611134610797755,Cloud_Experiment_FR_REAL,001,06,
images/fcloud65-35_D0.9_2.tif,0.9,1,,,,,0,7,7,40,,,,,,,,,,,,,,,,,,,1,None,,1,2.066,,,,,2019_Jan_19_1401,59.611134610797755,Cloud_Experiment_FR_REAL,001,06,
images/fcloud_D1.3_3.tif,1.3,0,,,,,0,8,8,17,,,,,,,,,,,,,,,,,,,2,None,,3,6.497,,,,,2019_Jan_19_1401,59.611134610797755,Cloud_Experiment_FR_REAL,001,06,
images/fcloud65-35_D1.2_1.tif,1.2,1,,,,,0,9,9,48,,,,,,,,,,,,,,,,,,,None,None,,None,18.686,,,,,2019_Jan_19_1401,59.611134610797755,Cloud_Experiment_FR_REAL,001,06,
images/fcloud65-35_D1.7_3.tif,1.7,1,,,,,0,10,10,65,,,,,,,,,,,,,,,,,,,None,None,,None,32.723,,,,,2019_Jan_19_1401,59.611134610797755,Cloud_Experiment_FR_REAL,001,06,
images/fcloud_D0.9_2.tif,0.9,0,,,,,0,11,11,4,,,,,,,,,,,,,,,,,,,2,None,,1,2.002,,,,,2019_Jan_19_1401,59.611134610797755,Cloud_Experiment_FR_REAL,001,06,
images/fcloud80-20_D1.2_1.tif,1.2,2,,,,,0,12,12,84,,,,,,,,,,,,,,,,,,,1,None,,4,2.635,,,,,2019_Jan_19_1401,59.611134610797755,Cloud_Experiment_FR_REAL,001,06,
images/fcloud80-20_D1.6_2.tif,1.6,2,,,,,0,13,13,97,,,,,,,,,,,,,,,,,,,2,None,,1,9.543,,,,,2019_Jan_19_1401,59.611134610797755,Cloud_Experiment_FR_REAL,001,06,
images/fcloud80-20_D1.5_1.tif,1.5,2,,,,,0,14,14,93,,,,,,,,,,,,,,,,,,,1,space,7.6079167682,1,3.336,,,,,2019_Jan_19_1401,59.611134610797755,Cloud_Experiment_FR_REAL,001,06,
images/fcloud65-35_D1.6_1.tif,1.6,1,,,,,0,15,15,60,,,,,,,,,,,,,,,,,,,2,None,,1,3.3,,,,,2019_Jan_19_1401,59.611134610797755,Cloud_Experiment_FR_REAL,001,06,
images/fcloud65-35_D0.8_2.tif,0.8,1,,,,,0,16,16,37,,,,,,,,,,,,,,,,,,,2,space,2.00859090101,1,1.402,,,,,2019_Jan_19_1401,59.611134610797755,Cloud_Experiment_FR_REAL,001,06,
images/fcloud_D0.8_3.tif,0.8,0,,,,,0,17,17,2,,,,,,,,,,,,,,,,,,,2,None,,2,3.283,,,,,2019_Jan_19_1401,59.611134610797755,Cloud_Experiment_FR_REAL,001,06,
images/fcloud80-20_D1.3_1.tif,1.3,2,,,,,0,18,18,87,,,,,,,,,,,,,,,,,,,3,space,3.80959577736,2,3.483,,,,,2019_Jan_19_1401,59.611134610797755,Cloud_Experiment_FR_REAL,001,06,
images/fcloud_D1_2.tif,1.0,0,,,,,0,19,19,7,,,,,,,,,,,,,,,,,,,3,None,,2,7.114,,,,,2019_Jan_19_1401,59.611134610797755,Cloud_Experiment_FR_REAL,001,06,
images/fcloud_D1.4_3.tif,1.4,0,,,,,0,20,20,20,,,,,,,,,,,,,,,,,,,2,space,4.67843134835,4,7.099,,,,,2019_Jan_19_1401,59.611134610797755,Cloud_Experiment_FR_REAL,001,06,
images/fcloud80-20_D1.3_2.tif,1.3,2,,,,,0,21,21,88,,,,,,,,,,,,,,,,,,,1,None,,1,1.784,,,,,2019_Jan_19_1401,59.611134610797755,Cloud_Experiment_FR_REAL,001,06,
images/fcloud65-35_D1_1.tif,1.0,1,,,,,0,22,22,42,,,,,,,,,,,,,,,,,,,None,None,,None,14.14,,,,,2019_Jan_19_1401,59.611134610797755,Cloud_Experiment_FR_REAL,001,06,
images/fcloud80-20_D1_2.tif,1.0,2,,,,,0,23,23,79,,,,,,,,,,,,,,,,,,,None,None,,None,26.029,,,,,2019_Jan_19_1401,59.611134610797755,Cloud_Experiment_FR_REAL,001,06,
images/fcloud80-20_D1.7_1.tif,1.7,2,,,,,0,24,24,99,,,,,,,,,,,,,,,,,,,2,space,2.89524210486,1,2.666,,,,,2019_Jan_19_1401,59.611134610797755,Cloud_Experiment_FR_REAL,001,06,
images/fcloud_D1.1_2.tif,1.1,0,,,,,0,25,25,10,,,,,,,,,,,,,,,,,,,3,space,1.73304669579,3,2.484,,,,,2019_Jan_19_1401,59.611134610797755,Cloud_Experiment_FR_REAL,001,06,
images/fcloud65-35_D1.8_1.tif,1.8,1,,,,,0,26,26,66,,,,,,,,,,,,,,,,,,,2,space,4.94163564339,4,3.134,,,,,2019_Jan_19_1401,59.611134610797755,Cloud_Experiment_FR_REAL,001,06,
images/fcloud80-20_D1.6_3.tif,1.6,2,,,,,0,27,27,98,,,,,,,,,,,,,,,,,,,2,None,,1,2.667,,,,,2019_Jan_19_1401,59.611134610797755,Cloud_Experiment_FR_REAL,001,06,
images/fcloud80-20_D1.3_3.tif,1.3,2,,,,,0,28,28,89,,,,,,,,,,,,,,,,,,,3,space,1.96527090226,2,5.199,,,,,2019_Jan_19_1401,59.611134610797755,Cloud_Experiment_FR_REAL,001,06,
images/fcloud65-35_D1.1_1.tif,1.1,1,,,,,0,29,29,45,,,,,,,,,,,,,,,,,,,None,None,,None,20.27,,,,,2019_Jan_19_1401,59.611134610797755,Cloud_Experiment_FR_REAL,001,06,
images/fcloud65-35_D0.9_3.tif,0.9,1,,,,,0,30,30,41,,,,,,,,,,,,,,,,,,,None,None,,None,36.019,,,,,2019_Jan_19_1401,59.611134610797755,Cloud_Experiment_FR_REAL,001,06,
images/fcloud80-20_D1.4_1.tif,1.4,2,,,,,0,31,31,90,,,,,,,,,,,,,,,,,,,2,space,4.25374258347,1,1.333,,,,,2019_Jan_19_1401,59.611134610797755,Cloud_Experiment_FR_REAL,001,06,
images/fcloud80-20_D1.8_1.tif,1.8,2,,,,,0,32,32,102,,,,,,,,,,,,,,,,,,,2,None,,2,2.219,,,,,2019_Jan_19_1401,59.611134610797755,Cloud_Experiment_FR_REAL,001,06,
images/fcloud65-35_D1_2.tif,1.0,1,,,,,0,33,33,43,,,,,,,,,,,,,,,,,,,1,space,3.55400773344,1,1.734,,,,,2019_Jan_19_1401,59.611134610797755,Cloud_Experiment_FR_REAL,001,06,
images/fcloud65-35_D1.3_2.tif,1.3,1,,,,,0,34,34,52,,,,,,,,,,,,,,,,,,,2,None,,2,3.866,,,,,2019_Jan_19_1401,59.611134610797755,Cloud_Experiment_FR_REAL,001,06,
images/fcloud65-35_D1.1_2.tif,1.1,1,,,,,0,35,35,46,,,,,,,,,,,,,,,,,,,None,None,,None,15.373,,,,,2019_Jan_19_1401,59.611134610797755,Cloud_Experiment_FR_REAL,001,06,
images/fcloud_D1.3_1.tif,1.3,0,,,,,0,36,36,15,,,,,,,,,,,,,,,,,,,3,None,,3,3.133,,,,,2019_Jan_19_1401,59.611134610797755,Cloud_Experiment_FR_REAL,001,06,
images/fcloud80-20_D0.8_3.tif,0.8,2,,,,,0,37,37,74,,,,,,,,,,,,,,,,,,,None,None,,None,14.789,,,,,2019_Jan_19_1401,59.611134610797755,Cloud_Experiment_FR_REAL,001,06,
images/fcloud_D1.9_1.tif,1.9,0,,,,,0,38,38,33,,,,,,,,,,,,,,,,,,,2,None,,2,2.067,,,,,2019_Jan_19_1401,59.611134610797755,Cloud_Experiment_FR_REAL,001,06,
images/fcloud80-20_D1.5_2.tif,1.5,2,,,,,0,39,39,94,,,,,,,,,,,,,,,,,,,1,None,,1,0.82,,,,,2019_Jan_19_1401,59.611134610797755,Cloud_Experiment_FR_REAL,001,06,
images/fcloud_D1.8_2.tif,1.8,0,,,,,0,40,40,31,,,,,,,,,,,,,,,,,,,1,space,4.71311418104,1,5.981,,,,,2019_Jan_19_1401,59.611134610797755,Cloud_Experiment_FR_REAL,001,06,
images/fcloud65-35_D0.9_1.tif,0.9,1,,,,,0,41,41,39,,,,,,,,,,,,,,,,,,,1,None,,2,1.467,,,,,2019_Jan_19_1401,59.611134610797755,Cloud_Experiment_FR_REAL,001,06,
images/fcloud80-20_D1.4_2.tif,1.4,2,,,,,0,42,42,91,,,,,,,,,,,,,,,,,,,1,space,2.29680144181,2,1.934,,,,,2019_Jan_19_1401,59.611134610797755,Cloud_Experiment_FR_REAL,001,06,
images/fcloud65-35_D1.6_3.tif,1.6,1,,,,,0,43,43,62,,,,,,,,,,,,,,,,,,,2,space,3.08069442774,2,3.084,,,,,2019_Jan_19_1401,59.611134610797755,Cloud_Experiment_FR_REAL,001,06,
images/fcloud80-20_D1.2_2.tif,1.2,2,,,,,0,44,44,85,,,,,,,,,,,,,,,,,,,3,space,5.24005584704,2,1.653,,,,,2019_Jan_19_1401,59.611134610797755,Cloud_Experiment_FR_REAL,001,06,
images/fcloud65-35_D1.3_3.tif,1.3,1,,,,,0,45,45,53,,,,,,,,,,,,,,,,,,,3,space,2.00050840119,1,3.283,,,,,2019_Jan_19_1401,59.611134610797755,Cloud_Experiment_FR_REAL,001,06,
images/fcloud_D1.9_3.tif,1.9,0,,,,,0,46,46,35,,,,,,,,,,,,,,,,,,,3,space,6.79572346676,1,5.547,,,,,2019_Jan_19_1401,59.611134610797755,Cloud_Experiment_FR_REAL,001,06,
images/fcloud65-35_D1.3_1.tif,1.3,1,,,,,0,47,47,51,,,,,,,,,,,,,,,,,,,2,space,4.26645364193,1,5.431,,,,,2019_Jan_19_1401,59.611134610797755,Cloud_Experiment_FR_REAL,001,06,
images/fcloud_D0.8_2.tif,0.8,0,,,,,0,48,48,1,,,,,,,,,,,,,,,,,,,2,space,2.47782363155,2,1.935,,,,,2019_Jan_19_1401,59.611134610797755,Cloud_Experiment_FR_REAL,001,06,
images/fcloud80-20_D1.9_3.tif,1.9,2,,,,,0,49,49,107,,,,,,,,,,,,,,,,,,,1,space,5.30729794779,1,0.919,,,,,2019_Jan_19_1401,59.611134610797755,Cloud_Experiment_FR_REAL,001,06,
images/fcloud_D1.1_1.tif,1.1,0,,,,,0,50,50,9,,,,,,,,,,,,,,,,,,,1,space,7.34443077058,1,3.049,,,,,2019_Jan_19_1401,59.611134610797755,Cloud_Experiment_FR_REAL,001,06,
images/fcloud_D1.7_1.tif,1.7,0,,,,,0,51,51,27,,,,,,,,,,,,,,,,,,,4,space,2.6398272978,2,4.283,,,,,2019_Jan_19_1401,59.611134610797755,Cloud_Experiment_FR_REAL,001,06,
images/fcloud_D1.7_2.tif,1.7,0,,,,,0,52,52,28,,,,,,,,,,,,,,,,,,,None,None,,None,14.324,,,,,2019_Jan_19_1401,59.611134610797755,Cloud_Experiment_FR_REAL,001,06,
images/fcloud80-20_D1.1_2.tif,1.1,2,,,,,0,53,53,82,,,,,,,,,,,,,,,,,,,1,space,5.91125957042,1,1.367,,,,,2019_Jan_19_1401,59.611134610797755,Cloud_Experiment_FR_REAL,001,06,
images/fcloud65-35_D1.7_2.tif,1.7,1,,,,,0,54,54,64,,,,,,,,,,,,,,,,,,,2,space,7.81372107536,1,0.951,,,,,2019_Jan_19_1401,59.611134610797755,Cloud_Experiment_FR_REAL,001,06,
images/fcloud65-35_D1.2_3.tif,1.2,1,,,,,0,55,55,50,,,,,,,,,,,,,,,,,,,1,space,5.54516597322,1,1.419,,,,,2019_Jan_19_1401,59.611134610797755,Cloud_Experiment_FR_REAL,001,06,
images/fcloud80-20_D0.9_1.tif,0.9,2,,,,,0,56,56,75,,,,,,,,,,,,,,,,,,,1,space,5.59005846872,3,3.782,,,,,2019_Jan_19_1401,59.611134610797755,Cloud_Experiment_FR_REAL,001,06,
images/fcloud65-35_D0.8_1.tif,0.8,1,,,,,0,57,57,36,,,,,,,,,,,,,,,,,,,2,space,4.45494249259,2,6.115,,,,,2019_Jan_19_1401,59.611134610797755,Cloud_Experiment_FR_REAL,001,06,
images/fcloud80-20_D1.1_3.tif,1.1,2,,,,,0,58,58,83,,,,,,,,,,,,,,,,,,,2,space,5.62992812472,1,1.334,,,,,2019_Jan_19_1401,59.611134610797755,Cloud_Experiment_FR_REAL,001,06,
images/fcloud_D1.2_1.tif,1.2,0,,,,,0,59,59,12,,,,,,,,,,,,,,,,,,,2,None,,1,2.867,,,,,2019_Jan_19_1401,59.611134610797755,Cloud_Experiment_FR_REAL,001,06,
images/fcloud_D1.6_3.tif,1.6,0,,,,,0,60,60,26,,,,,,,,,,,,,,,,,,,2,space,4.61401398439,1,3.683,,,,,2019_Jan_19_1401,59.611134610797755,Cloud_Experiment_FR_REAL,001,06,
images/fcloud_D1.6_1.tif,1.6,0,,,,,0,61,61,24,,,,,,,,,,,,,,,,,,,2,space,6.29810200309,1,1.751,,,,,2019_Jan_19_1401,59.611134610797755,Cloud_Experiment_FR_REAL,001,06,
images/fcloud65-35_D1.9_3.tif,1.9,1,,,,,0,62,62,71,,,,,,,,,,,,,,,,,,,None,None,,None,11.609,,,,,2019_Jan_19_1401,59.611134610797755,Cloud_Experiment_FR_REAL,001,06,
images/fcloud65-35_D1.4_2.tif,1.4,1,,,,,0,63,63,55,,,,,,,,,,,,,,,,,,,1,space,6.99570866194,1,4.315,,,,,2019_Jan_19_1401,59.611134610797755,Cloud_Experiment_FR_REAL,001,06,
images/fcloud65-35_D1.7_1.tif,1.7,1,,,,,0,64,64,63,,,,,,,,,,,,,,,,,,,3,space,3.42091302483,2,1.485,,,,,2019_Jan_19_1401,59.611134610797755,Cloud_Experiment_FR_REAL,001,06,
images/fcloud_D1.9_2.tif,1.9,0,,,,,0,65,65,34,,,,,,,,,,,,,,,,,,,3,space,3.70690078827,2,3.067,,,,,2019_Jan_19_1401,59.611134610797755,Cloud_Experiment_FR_REAL,001,06,
images/fcloud65-35_D1.5_1.tif,1.5,1,,,,,0,66,66,57,,,,,,,,,,,,,,,,,,,2,None,,2,2.567,,,,,2019_Jan_19_1401,59.611134610797755,Cloud_Experiment_FR_REAL,001,06,
images/fcloud80-20_D1.2_3.tif,1.2,2,,,,,0,67,67,86,,,,,,,,,,,,,,,,,,,2,space,3.60280962352,3,4.167,,,,,2019_Jan_19_1401,59.611134610797755,Cloud_Experiment_FR_REAL,001,06,
images/fcloud_D0.8_1.tif,0.8,0,,,,,0,68,68,0,,,,,,,,,,,,,,,,,,,3,space,3.59741255137,1,1.569,,,,,2019_Jan_19_1401,59.611134610797755,Cloud_Experiment_FR_REAL,001,06,
images/fcloud65-35_D1_3.tif,1.0,1,,,,,0,69,69,44,,,,,,,,,,,,,,,,,,,2,None,,2,1.6,,,,,2019_Jan_19_1401,59.611134610797755,Cloud_Experiment_FR_REAL,001,06,
images/fcloud_D1.2_2.tif,1.2,0,,,,,0,70,70,13,,,,,,,,,,,,,,,,,,,3,space,2.412286654,2,2.901,,,,,2019_Jan_19_1401,59.611134610797755,Cloud_Experiment_FR_REAL,001,06,
images/fcloud65-35_D1.8_3.tif,1.8,1,,,,,0,71,71,68,,,,,,,,,,,,,,,,,,,2,space,6.13172269362,1,2.818,,,,,2019_Jan_19_1401,59.611134610797755,Cloud_Experiment_FR_REAL,001,06,
images/fcloud65-35_D1.4_3.tif,1.4,1,,,,,0,72,72,56,,,,,,,,,,,,,,,,,,,2,space,2.55944850034,4,2.019,,,,,2019_Jan_19_1401,59.611134610797755,Cloud_Experiment_FR_REAL,001,06,
images/fcloud80-20_D1.4_3.tif,1.4,2,,,,,0,73,73,92,,,,,,,,,,,,,,,,,,,2,space,2.74114564538,2,2.068,,,,,2019_Jan_19_1401,59.611134610797755,Cloud_Experiment_FR_REAL,001,06,
images/fcloud80-20_D0.9_2.tif,0.9,2,,,,,0,74,74,76,,,,,,,,,,,,,,,,,,,None,None,,None,11.109,,,,,2019_Jan_19_1401,59.611134610797755,Cloud_Experiment_FR_REAL,001,06,
images/fcloud_D1.6_2.tif,1.6,0,,,,,0,75,75,25,,,,,,,,,,,,,,,,,,,1,None,,2,1.634,,,,,2019_Jan_19_1401,59.611134610797755,Cloud_Experiment_FR_REAL,001,06,
images/fcloud_D1.8_1.tif,1.8,0,,,,,0,76,76,30,,,,,,,,,,,,,,,,,,,2,space,6.39926459172,2,7.28,,,,,2019_Jan_19_1401,59.611134610797755,Cloud_Experiment_FR_REAL,001,06,
images/fcloud65-35_D1.5_3.tif,1.5,1,,,,,0,77,77,59,,,,,,,,,,,,,,,,,,,2,space,3.27369668853,3,4.416,,,,,2019_Jan_19_1401,59.611134610797755,Cloud_Experiment_FR_REAL,001,06,
images/fcloud80-20_D1_3.tif,1.0,2,,,,,0,78,78,80,,,,,,,,,,,,,,,,,,,1,space,5.72400599596,2,3.317,,,,,2019_Jan_19_1401,59.611134610797755,Cloud_Experiment_FR_REAL,001,06,
images/fcloud65-35_D1.9_2.tif,1.9,1,,,,,0,79,79,70,,,,,,,,,,,,,,,,,,,1,space,6.61028039691,1,5.499,,,,,2019_Jan_19_1401,59.611134610797755,Cloud_Experiment_FR_REAL,001,06,
images/fcloud_D1.4_1.tif,1.4,0,,,,,0,80,80,18,,,,,,,,,,,,,,,,,,,2,space,2.55986025906,1,4.965,,,,,2019_Jan_19_1401,59.611134610797755,Cloud_Experiment_FR_REAL,001,06,
images/fcloud_D1.7_3.tif,1.7,0,,,,,0,81,81,29,,,,,,,,,,,,,,,,,,,2,space,4.89680637675,2,2.134,,,,,2019_Jan_19_1401,59.611134610797755,Cloud_Experiment_FR_REAL,001,06,
images/fcloud_D1.1_3.tif,1.1,0,,,,,0,82,82,11,,,,,,,,,,,,,,,,,,,2,space,2.79337525973,2,2.202,,,,,2019_Jan_19_1401,59.611134610797755,Cloud_Experiment_FR_REAL,001,06,
images/fcloud80-20_D1.1_1.tif,1.1,2,,,,,0,83,83,81,,,,,,,,,,,,,,,,,,,2,space,3.11489816039,1,1.268,,,,,2019_Jan_19_1401,59.611134610797755,Cloud_Experiment_FR_REAL,001,06,
images/fcloud80-20_D1.6_1.tif,1.6,2,,,,,0,84,84,96,,,,,,,,,,,,,,,,,,,2,space,3.99295332271,2,2.217,,,,,2019_Jan_19_1401,59.611134610797755,Cloud_Experiment_FR_REAL,001,06,
images/fcloud80-20_D1.7_2.tif,1.7,2,,,,,0,85,85,100,,,,,,,,,,,,,,,,,,,2,space,1.33228620159,1,1.301,,,,,2019_Jan_19_1401,59.611134610797755,Cloud_Experiment_FR_REAL,001,06,
images/fcloud65-35_D1.4_1.tif,1.4,1,,,,,0,86,86,54,,,,,,,,,,,,,,,,,,,1,None,,1,1.502,,,,,2019_Jan_19_1401,59.611134610797755,Cloud_Experiment_FR_REAL,001,06,
images/fcloud65-35_D1.2_2.tif,1.2,1,,,,,0,87,87,49,,,,,,,,,,,,,,,,,,,2,space,4.05715889568,2,1.852,,,,,2019_Jan_19_1401,59.611134610797755,Cloud_Experiment_FR_REAL,001,06,
images/fcloud65-35_D1.5_2.tif,1.5,1,,,,,0,88,88,58,,,,,,,,,,,,,,,,,,,2,space,6.07685237448,2,2.434,,,,,2019_Jan_19_1401,59.611134610797755,Cloud_Experiment_FR_REAL,001,06,
images/fcloud_D1_3.tif,1.0,0,,,,,0,89,89,8,,,,,,,,,,,,,,,,,,,2,space,2.29133240186,4,5.765,,,,,2019_Jan_19_1401,59.611134610797755,Cloud_Experiment_FR_REAL,001,06,
images/fcloud80-20_D1.9_1.tif,1.9,2,,,,,0,90,90,105,,,,,,,,,,,,,,,,,,,1,space,6.45456466154,1,2.335,,,,,2019_Jan_19_1401,59.611134610797755,Cloud_Experiment_FR_REAL,001,06,
images/fcloud_D1_1.tif,1.0,0,,,,,0,91,91,6,,,,,,,,,,,,,,,,,,,1,space,2.89045573105,1,1.502,,,,,2019_Jan_19_1401,59.611134610797755,Cloud_Experiment_FR_REAL,001,06,
images/fcloud80-20_D0.9_3.tif,0.9,2,,,,,0,92,92,77,,,,,,,,,,,,,,,,,,,2,space,5.85979589928,2,0.835,,,,,2019_Jan_19_1401,59.611134610797755,Cloud_Experiment_FR_REAL,001,06,
images/fcloud80-20_D0.8_1.tif,0.8,2,,,,,0,93,93,72,,,,,,,,,,,,,,,,,,,2,space,7.35234723033,1,3.516,,,,,2019_Jan_19_1401,59.611134610797755,Cloud_Experiment_FR_REAL,001,06,
images/fcloud80-20_D0.8_2.tif,0.8,2,,,,,0,94,94,73,,,,,,,,,,,,,,,,,,,2,space,2.20105391726,1,1.253,,,,,2019_Jan_19_1401,59.611134610797755,Cloud_Experiment_FR_REAL,001,06,
images/fcloud_D0.9_3.tif,0.9,0,,,,,0,95,95,5,,,,,,,,,,,,,,,,,,,2,space,2.91219155365,2,3.733,,,,,2019_Jan_19_1401,59.611134610797755,Cloud_Experiment_FR_REAL,001,06,
images/fcloud_D1.8_3.tif,1.8,0,,,,,0,96,96,32,,,,,,,,,,,,,,,,,,,2,space,4.24762480505,1,2.101,,,,,2019_Jan_19_1401,59.611134610797755,Cloud_Experiment_FR_REAL,001,06,
images/fcloud_D1.2_3.tif,1.2,0,,,,,0,97,97,14,,,,,,,,,,,,,,,,,,,3,space,5.05588403723,1,1.819,,,,,2019_Jan_19_1401,59.611134610797755,Cloud_Experiment_FR_REAL,001,06,
images/fcloud65-35_D1.8_2.tif,1.8,1,,,,,0,98,98,67,,,,,,,,,,,,,,,,,,,1,None,,1,0.752,,,,,2019_Jan_19_1401,59.611134610797755,Cloud_Experiment_FR_REAL,001,06,
images/fcloud65-35_D1.6_2.tif,1.6,1,,,,,0,99,99,61,,,,,,,,,,,,,,,,,,,1,space,5.07821308027,3,1.635,,,,,2019_Jan_19_1401,59.611134610797755,Cloud_Experiment_FR_REAL,001,06,
images/fcloud80-20_D1.9_2.tif,1.9,2,,,,,0,100,100,106,,,,,,,,,,,,,,,,,,,3,space,1.95788494815,1,1.502,,,,,2019_Jan_19_1401,59.611134610797755,Cloud_Experiment_FR_REAL,001,06,
images/fcloud65-35_D1.9_1.tif,1.9,1,,,,,0,101,101,69,,,,,,,,,,,,,,,,,,,1,space,2.33020273334,1,1.517,,,,,2019_Jan_19_1401,59.611134610797755,Cloud_Experiment_FR_REAL,001,06,
images/fcloud_D1.5_1.tif,1.5,0,,,,,0,102,102,21,,,,,,,,,,,,,,,,,,,4,space,1.15064457461,3,2.15,,,,,2019_Jan_19_1401,59.611134610797755,Cloud_Experiment_FR_REAL,001,06,
images/fcloud65-35_D0.8_3.tif,0.8,1,,,,,0,103,103,38,,,,,,,,,,,,,,,,,,,2,space,1.88985788412,2,1.319,,,,,2019_Jan_19_1401,59.611134610797755,Cloud_Experiment_FR_REAL,001,06,
images/fcloud_D1.5_3.tif,1.5,0,,,,,0,104,104,23,,,,,,,,,,,,,,,,,,,3,space,2.09266935824,1,4.132,,,,,2019_Jan_19_1401,59.611134610797755,Cloud_Experiment_FR_REAL,001,06,
images/fcloud_D1.3_2.tif,1.3,0,,,,,0,105,105,16,,,,,,,,,,,,,,,,,,,3,space,2.61439232947,2,4.413,,,,,2019_Jan_19_1401,59.611134610797755,Cloud_Experiment_FR_REAL,001,06,
images/fcloud80-20_D1.5_3.tif,1.5,2,,,,,0,106,106,95,,,,,,,,,,,,,,,,,,,3,space,2.66433696565,1,3.267,,,,,2019_Jan_19_1401,59.611134610797755,Cloud_Experiment_FR_REAL,001,06,
images/fcloud80-20_D1.8_3.tif,1.8,2,,,,,0,107,107,104,,,,,,,,,,,,,,,,,,,2,space,2.58375511612,1,1.833,,,,,2019_Jan_19_1401,59.611134610797755,Cloud_Experiment_FR_REAL,001,06,
,,,,,,,,,,,,,,,,,,,,,,,,,7,533.029,,,,,,,,,,,,2019_Jan_19_1401,59.611134610797755,Cloud_Experiment_FR_REAL,001,06,
,,,,,,,,,,,,,,,,,,,,,,,,,,,,,,,,,,,,space,2.3667978537,2019_Jan_19_1401,59.611134610797755,Cloud_Experiment_FR_REAL,001,06,
images/fcloud65-35_D1.3_4.tif,1.3,1,,,,,,,,,0,0,0,51,,,,,,,,,,,,,,,4,space,3.49243361226,2,1.835,,,,,2019_Jan_19_1401,59.611134610797755,Cloud_Experiment_FR_REAL,001,06,
images/fcloud_D1_5.tif,1.0,0,,,,,,,,,0,1,1,7,,,,,,,,,,,,,,,2,space,7.56221823316,2,3.6,,,,,2019_Jan_19_1401,59.611134610797755,Cloud_Experiment_FR_REAL,001,06,
images/fcloud65-35_D1.9_4.tif,1.9,1,,,,,,,,,0,2,2,69,,,,,,,,,,,,,,,3,space,3.49449291991,1,6.198,,,,,2019_Jan_19_1401,59.611134610797755,Cloud_Experiment_FR_REAL,001,06,
images/fcloud_D1.3_5.tif,1.3,0,,,,,,,,,0,3,3,16,,,,,,,,,,,,,,,3,space,2.27959959162,2,3.599,,,,,2019_Jan_19_1401,59.611134610797755,Cloud_Experiment_FR_REAL,001,06,
images/fcloud_D1.8_6.tif,1.8,0,,,,,,,,,0,4,4,32,,,,,,,,,,,,,,,2,space,3.92833444884,3,2.033,,,,,2019_Jan_19_1401,59.611134610797755,Cloud_Experiment_FR_REAL,001,06,
images/fcloud65-35_D1.9_6.tif,1.9,1,,,,,,,,,0,5,5,71,,,,,,,,,,,,,,,2,space,5.34387507619,1,1.252,,,,,2019_Jan_19_1401,59.611134610797755,Cloud_Experiment_FR_REAL,001,06,
images/fcloud65-35_D1.4_6.tif,1.4,1,,,,,,,,,0,6,6,56,,,,,,,,,,,,,,,2,space,1.91860954068,4,5.433,,,,,2019_Jan_19_1401,59.611134610797755,Cloud_Experiment_FR_REAL,001,06,
images/fcloud65-35_D1.7_4.tif,1.7,1,,,,,,,,,0,7,7,63,,,,,,,,,,,,,,,2,space,6.30570745905,1,1.285,,,,,2019_Jan_19_1401,59.611134610797755,Cloud_Experiment_FR_REAL,001,06,
images/fcloud80-20_D1.8_5.tif,1.8,2,,,,,,,,,0,8,8,103,,,,,,,,,,,,,,,2,space,5.39524621732,1,0.501,,,,,2019_Jan_19_1401,59.611134610797755,Cloud_Experiment_FR_REAL,001,06,
images/fcloud80-20_D1.4_4.tif,1.4,2,,,,,,,,,0,9,9,90,,,,,,,,,,,,,,,2,space,5.40461539887,1,1.237,,,,,2019_Jan_19_1401,59.611134610797755,Cloud_Experiment_FR_REAL,001,06,
images/fcloud_D0.8_5.tif,0.8,0,,,,,,,,,0,10,10,1,,,,,,,,,,,,,,,3,space,2.88393544694,2,2.668,,,,,2019_Jan_19_1401,59.611134610797755,Cloud_Experiment_FR_REAL,001,06,
images/fcloud65-35_D1.7_6.tif,1.7,1,,,,,,,,,0,11,11,65,,,,,,,,,,,,,,,2,space,6.884405808,1,1.635,,,,,2019_Jan_19_1401,59.611134610797755,Cloud_Experiment_FR_REAL,001,06,
images/fcloud80-20_D1.5_6.tif,1.5,2,,,,,,,,,0,12,12,95,,,,,,,,,,,,,,,2,space,2.77194478631,1,0.852,,,,,2019_Jan_19_1401,59.611134610797755,Cloud_Experiment_FR_REAL,001,06,
images/fcloud_D1.9_6.tif,1.9,0,,,,,,,,,0,13,13,35,,,,,,,,,,,,,,,3,space,3.75467816507,1,5.564,,,,,2019_Jan_19_1401,59.611134610797755,Cloud_Experiment_FR_REAL,001,06,
images/fcloud65-35_D1.9_5.tif,1.9,1,,,,,,,,,0,14,14,70,,,,,,,,,,,,,,,2,space,5.4412166879,2,1.419,,,,,2019_Jan_19_1401,59.611134610797755,Cloud_Experiment_FR_REAL,001,06,
images/fcloud65-35_D1.3_6.tif,1.3,1,,,,,,,,,0,15,15,53,,,,,,,,,,,,,,,3,space,3.58313670699,2,2.167,,,,,2019_Jan_19_1401,59.611134610797755,Cloud_Experiment_FR_REAL,001,06,
images/fcloud65-35_D1.5_6.tif,1.5,1,,,,,,,,,0,16,16,59,,,,,,,,,,,,,,,2,space,4.2601127633,3,4.717,,,,,2019_Jan_19_1401,59.611134610797755,Cloud_Experiment_FR_REAL,001,06,
images/fcloud80-20_D1.8_6.tif,1.8,2,,,,,,,,,0,17,17,104,,,,,,,,,,,,,,,2,space,6.0330383681,1,1.302,,,,,2019_Jan_19_1401,59.611134610797755,Cloud_Experiment_FR_REAL,001,06,
images/fcloud80-20_D0.8_5.tif,0.8,2,,,,,,,,,0,18,18,73,,,,,,,,,,,,,,,2,space,5.19993738798,1,1.219,,,,,2019_Jan_19_1401,59.611134610797755,Cloud_Experiment_FR_REAL,001,06,
images/fcloud65-35_D0.8_5.tif,0.8,1,,,,,,,,,0,19,19,37,,,,,,,,,,,,,,,None,None,,None,11.724,,,,,2019_Jan_19_1401,59.611134610797755,Cloud_Experiment_FR_REAL,001,06,
images/fcloud80-20_D0.9_4.tif,0.9,2,,,,,,,,,0,20,20,75,,,,,,,,,,,,,,,1,space,7.71020565319,1,0.901,,,,,2019_Jan_19_1401,59.611134610797755,Cloud_Experiment_FR_REAL,001,06,
images/fcloud_D1.7_4.tif,1.7,0,,,,,,,,,0,21,21,27,,,,,,,,,,,,,,,4,space,2.84511240857,2,3.25,,,,,2019_Jan_19_1401,59.611134610797755,Cloud_Experiment_FR_REAL,001,06,
images/fcloud_D1.9_5.tif,1.9,0,,,,,,,,,0,22,22,34,,,,,,,,,,,,,,,5,space,1.88835889733,2,8.179,,,,,2019_Jan_19_1401,59.611134610797755,Cloud_Experiment_FR_REAL,001,06,
images/fcloud_D0.9_4.tif,0.9,0,,,,,,,,,0,23,23,3,,,,,,,,,,,,,,,2,space,4.23089383001,2,1.935,,,,,2019_Jan_19_1401,59.611134610797755,Cloud_Experiment_FR_REAL,001,06,
images/fcloud65-35_D1.2_5.tif,1.2,1,,,,,,,,,0,24,24,49,,,,,,,,,,,,,,,2,space,5.19729205672,1,0.886,,,,,2019_Jan_19_1401,59.611134610797755,Cloud_Experiment_FR_REAL,001,06,
images/fcloud_D1.2_6.tif,1.2,0,,,,,,,,,0,25,25,14,,,,,,,,,,,,,,,2,space,5.14233948864,2,3.898,,,,,2019_Jan_19_1401,59.611134610797755,Cloud_Experiment_FR_REAL,001,06,
images/fcloud_D1.4_5.tif,1.4,0,,,,,,,,,0,26,26,19,,,,,,,,,,,,,,,3,space,3.11841070387,2,0.951,,,,,2019_Jan_19_1401,59.611134610797755,Cloud_Experiment_FR_REAL,001,06,
images/fcloud65-35_D0.9_6.tif,0.9,1,,,,,,,,,0,27,27,41,,,,,,,,,,,,,,,None,None,,None,13.172,,,,,2019_Jan_19_1401,59.611134610797755,Cloud_Experiment_FR_REAL,001,06,
images/fcloud65-35_D1.2_6.tif,1.2,1,,,,,,,,,0,28,28,50,,,,,,,,,,,,,,,2,space,3.57790053432,3,1.368,,,,,2019_Jan_19_1401,59.611134610797755,Cloud_Experiment_FR_REAL,001,06,
images/fcloud_D1.5_5.tif,1.5,0,,,,,,,,,0,29,29,22,,,,,,,,,,,,,,,3,space,2.18580702139,2,1.335,,,,,2019_Jan_19_1401,59.611134610797755,Cloud_Experiment_FR_REAL,001,06,
images/fcloud65-35_D1.3_5.tif,1.3,1,,,,,,,,,0,30,30,52,,,,,,,,,,,,,,,2,space,5.20560536755,1,0.952,,,,,2019_Jan_19_1401,59.611134610797755,Cloud_Experiment_FR_REAL,001,06,
images/fcloud65-35_D1.6_4.tif,1.6,1,,,,,,,,,0,31,31,60,,,,,,,,,,,,,,,3,space,4.55182351024,2,1.352,,,,,2019_Jan_19_1401,59.611134610797755,Cloud_Experiment_FR_REAL,001,06,
images/fcloud80-20_D0.8_6.tif,0.8,2,,,,,,,,,0,32,32,74,,,,,,,,,,,,,,,2,space,3.4483492125,1,1.785,,,,,2019_Jan_19_1401,59.611134610797755,Cloud_Experiment_FR_REAL,001,06,
images/fcloud80-20_D1.2_6.tif,1.2,2,,,,,,,,,0,33,33,86,,,,,,,,,,,,,,,2,space,2.70228456691,2,3.667,,,,,2019_Jan_19_1401,59.611134610797755,Cloud_Experiment_FR_REAL,001,06,
images/fcloud80-20_D1.7_4.tif,1.7,2,,,,,,,,,0,34,34,99,,,,,,,,,,,,,,,1,space,7.33524613507,1,0.919,,,,,2019_Jan_19_1401,59.611134610797755,Cloud_Experiment_FR_REAL,001,06,
images/fcloud80-20_D0.9_6.tif,0.9,2,,,,,,,,,0,35,35,77,,,,,,,,,,,,,,,1,None,,1,0.852,,,,,2019_Jan_19_1401,59.611134610797755,Cloud_Experiment_FR_REAL,001,06,
images/fcloud65-35_D1.5_4.tif,1.5,1,,,,,,,,,0,36,36,57,,,,,,,,,,,,,,,3,space,4.5710856962,1,1.502,,,,,2019_Jan_19_1401,59.611134610797755,Cloud_Experiment_FR_REAL,001,06,
images/fcloud80-20_D1.9_4.tif,1.9,2,,,,,,,,,0,37,37,105,,,,,,,,,,,,,,,3,space,3.76943979226,1,0.454,,,,,2019_Jan_19_1401,59.611134610797755,Cloud_Experiment_FR_REAL,001,06,
images/fcloud80-20_D0.9_5.tif,0.9,2,,,,,,,,,0,38,38,76,,,,,,,,,,,,,,,1,None,,1,1.752,,,,,2019_Jan_19_1401,59.611134610797755,Cloud_Experiment_FR_REAL,001,06,
images/fcloud80-20_D1.1_6.tif,1.1,2,,,,,,,,,0,39,39,83,,,,,,,,,,,,,,,1,space,4.14801106657,2,2.634,,,,,2019_Jan_19_1401,59.611134610797755,Cloud_Experiment_FR_REAL,001,06,
images/fcloud65-35_D1.8_5.tif,1.8,1,,,,,,,,,0,40,40,67,,,,,,,,,,,,,,,2,space,3.15365848391,2,1.918,,,,,2019_Jan_19_1401,59.611134610797755,Cloud_Experiment_FR_REAL,001,06,
images/fcloud65-35_D0.8_4.tif,0.8,1,,,,,,,,,0,41,41,36,,,,,,,,,,,,,,,1,space,5.61443036958,3,1.934,,,,,2019_Jan_19_1401,59.611134610797755,Cloud_Experiment_FR_REAL,001,06,
images/fcloud65-35_D1.1_5.tif,1.1,1,,,,,,,,,0,42,42,46,,,,,,,,,,,,,,,2,None,,1,3.931,,,,,2019_Jan_19_1401,59.611134610797755,Cloud_Experiment_FR_REAL,001,06,
images/fcloud80-20_D1.6_5.tif,1.6,2,,,,,,,,,0,43,43,97,,,,,,,,,,,,,,,1,space,7.01739667734,1,0.784,,,,,2019_Jan_19_1401,59.611134610797755,Cloud_Experiment_FR_REAL,001,06,
images/fcloud80-20_D1_5.tif,1.0,2,,,,,,,,,0,44,44,79,,,,,,,,,,,,,,,1,space,6.61245845145,1,1.55,,,,,2019_Jan_19_1401,59.611134610797755,Cloud_Experiment_FR_REAL,001,06,
images/fcloud80-20_D1.1_4.tif,1.1,2,,,,,,,,,0,45,45,81,,,,,,,,,,,,,,,2,space,3.44573164024,2,2.35,,,,,2019_Jan_19_1401,59.611134610797755,Cloud_Experiment_FR_REAL,001,06,
images/fcloud80-20_D1.3_6.tif,1.3,2,,,,,,,,,0,46,46,89,,,,,,,,,,,,,,,3,space,3.46503083821,1,3.683,,,,,2019_Jan_19_1401,59.611134610797755,Cloud_Experiment_FR_REAL,001,06,
images/fcloud_D0.9_5.tif,0.9,0,,,,,,,,,0,47,47,4,,,,,,,,,,,,,,,3,space,4.74284100151,1,6.081,,,,,2019_Jan_19_1401,59.611134610797755,Cloud_Experiment_FR_REAL,001,06,
images/fcloud_D1.9_4.tif,1.9,0,,,,,,,,,0,48,48,33,,,,,,,,,,,,,,,1,space,5.89034058255,2,4.348,,,,,2019_Jan_19_1401,59.611134610797755,Cloud_Experiment_FR_REAL,001,06,
images/fcloud_D1.7_6.tif,1.7,0,,,,,,,,,0,49,49,29,,,,,,,,,,,,,,,3,space,1.67014579652,2,1.519,,,,,2019_Jan_19_1401,59.611134610797755,Cloud_Experiment_FR_REAL,001,06,
images/fcloud65-35_D0.9_5.tif,0.9,1,,,,,,,,,0,50,50,40,,,,,,,,,,,,,,,2,space,4.76985052286,2,4.331,,,,,2019_Jan_19_1401,59.611134610797755,Cloud_Experiment_FR_REAL,001,06,
images/fcloud80-20_D1.5_5.tif,1.5,2,,,,,,,,,0,51,51,94,,,,,,,,,,,,,,,2,space,5.91865940409,1,16.772,,,,,2019_Jan_19_1401,59.611134610797755,Cloud_Experiment_FR_REAL,001,06,
images/fcloud65-35_D1.6_6.tif,1.6,1,,,,,,,,,0,52,52,62,,,,,,,,,,,,,,,4,space,1.53640749,2,1.717,,,,,2019_Jan_19_1401,59.611134610797755,Cloud_Experiment_FR_REAL,001,06,
images/fcloud80-20_D1.8_4.tif,1.8,2,,,,,,,,,0,53,53,102,,,,,,,,,,,,,,,1,space,6.40501122182,1,0.952,,,,,2019_Jan_19_1401,59.611134610797755,Cloud_Experiment_FR_REAL,001,06,
images/fcloud65-35_D1.7_5.tif,1.7,1,,,,,,,,,0,54,54,64,,,,,,,,,,,,,,,3,space,2.4006335224,1,5.682,,,,,2019_Jan_19_1401,59.611134610797755,Cloud_Experiment_FR_REAL,001,06,
images/fcloud_D1.6_6.tif,1.6,0,,,,,,,,,0,55,55,26,,,,,,,,,,,,,,,3,space,2.45975662541,2,2.353,,,,,2019_Jan_19_1401,59.611134610797755,Cloud_Experiment_FR_REAL,001,06,
images/fcloud80-20_D1.7_6.tif,1.7,2,,,,,,,,,0,56,56,101,,,,,,,,,,,,,,,1,space,5.66893827938,2,0.935,,,,,2019_Jan_19_1401,59.611134610797755,Cloud_Experiment_FR_REAL,001,06,
images/fcloud_D1.2_4.tif,1.2,0,,,,,,,,,0,57,57,12,,,,,,,,,,,,,,,1,space,3.36015471024,1,1.052,,,,,2019_Jan_19_1401,59.611134610797755,Cloud_Experiment_FR_REAL,001,06,
images/fcloud65-35_D1.1_4.tif,1.1,1,,,,,,,,,0,58,58,45,,,,,,,,,,,,,,,None,None,,None,12.574,,,,,2019_Jan_19_1401,59.611134610797755,Cloud_Experiment_FR_REAL,001,06,
images/fcloud65-35_D1_6.tif,1.0,1,,,,,,,,,0,59,59,44,,,,,,,,,,,,,,,2,space,2.97440567435,2,1.251,,,,,2019_Jan_19_1401,59.611134610797755,Cloud_Experiment_FR_REAL,001,06,
images/fcloud80-20_D1.4_6.tif,1.4,2,,,,,,,,,0,60,60,92,,,,,,,,,,,,,,,2,space,1.89958176418,1,1.696,,,,,2019_Jan_19_1401,59.611134610797755,Cloud_Experiment_FR_REAL,001,06,
images/fcloud80-20_D1.2_4.tif,1.2,2,,,,,,,,,0,61,61,84,,,,,,,,,,,,,,,2,space,2.50182335603,2,3.449,,,,,2019_Jan_19_1401,59.611134610797755,Cloud_Experiment_FR_REAL,001,06,
images/fcloud65-35_D1.8_4.tif,1.8,1,,,,,,,,,0,62,62,66,,,,,,,,,,,,,,,1,space,4.81634790066,1,0.884,,,,,2019_Jan_19_1401,59.611134610797755,Cloud_Experiment_FR_REAL,001,06,
images/fcloud_D0.9_6.tif,0.9,0,,,,,,,,,0,63,63,5,,,,,,,,,,,,,,,2,space,4.5738086499,3,0.835,,,,,2019_Jan_19_1401,59.611134610797755,Cloud_Experiment_FR_REAL,001,06,
images/fcloud80-20_D1.9_6.tif,1.9,2,,,,,,,,,0,64,64,107,,,,,,,,,,,,,,,2,space,6.32065363228,1,1.352,,,,,2019_Jan_19_1401,59.611134610797755,Cloud_Experiment_FR_REAL,001,06,
images/fcloud_D1.6_4.tif,1.6,0,,,,,,,,,0,65,65,24,,,,,,,,,,,,,,,3,space,5.68759285132,2,6.514,,,,,2019_Jan_19_1401,59.611134610797755,Cloud_Experiment_FR_REAL,001,06,
images/fcloud65-35_D1.6_5.tif,1.6,1,,,,,,,,,0,66,66,61,,,,,,,,,,,,,,,1,space,6.12450123735,2,1.502,,,,,2019_Jan_19_1401,59.611134610797755,Cloud_Experiment_FR_REAL,001,06,
images/fcloud65-35_D0.9_4.tif,0.9,1,,,,,,,,,0,67,67,39,,,,,,,,,,,,,,,1,space,5.90698622432,1,2.034,,,,,2019_Jan_19_1401,59.611134610797755,Cloud_Experiment_FR_REAL,001,06,
images/fcloud_D1.8_5.tif,1.8,0,,,,,,,,,0,68,68,31,,,,,,,,,,,,,,,3,None,,1,1.818,,,,,2019_Jan_19_1401,59.611134610797755,Cloud_Experiment_FR_REAL,001,06,
images/fcloud_D1.4_4.tif,1.4,0,,,,,,,,,0,69,69,18,,,,,,,,,,,,,,,2,None,,1,2.119,,,,,2019_Jan_19_1401,59.611134610797755,Cloud_Experiment_FR_REAL,001,06,
images/fcloud80-20_D0.8_4.tif,0.8,2,,,,,,,,,0,70,70,72,,,,,,,,,,,,,,,3,space,7.4487697102,3,4.898,,,,,2019_Jan_19_1401,59.611134610797755,Cloud_Experiment_FR_REAL,001,06,
images/fcloud_D1.4_6.tif,1.4,0,,,,,,,,,0,71,71,20,,,,,,,,,,,,,,,2,None,,2,3.134,,,,,2019_Jan_19_1401,59.611134610797755,Cloud_Experiment_FR_REAL,001,06,
images/fcloud_D0.8_6.tif,0.8,0,,,,,,,,,0,72,72,2,,,,,,,,,,,,,,,1,space,6.28042053879,1,13.006,,,,,2019_Jan_19_1401,59.611134610797755,Cloud_Experiment_FR_REAL,001,06,
images/fcloud80-20_D1.9_5.tif,1.9,2,,,,,,,,,0,73,73,106,,,,,,,,,,,,,,,1,space,6.66013712951,1,0.818,,,,,2019_Jan_19_1401,59.611134610797755,Cloud_Experiment_FR_REAL,001,06,
images/fcloud_D1.2_5.tif,1.2,0,,,,,,,,,0,74,74,13,,,,,,,,,,,,,,,2,space,2.93332747312,1,0.935,,,,,2019_Jan_19_1401,59.611134610797755,Cloud_Experiment_FR_REAL,001,06,
images/fcloud_D1.5_4.tif,1.5,0,,,,,,,,,0,75,75,21,,,,,,,,,,,,,,,1,space,6.66174201184,1,1.601,,,,,2019_Jan_19_1401,59.611134610797755,Cloud_Experiment_FR_REAL,001,06,
images/fcloud_D1.8_4.tif,1.8,0,,,,,,,,,0,76,76,30,,,,,,,,,,,,,,,2,space,5.7888114721,1,1.003,,,,,2019_Jan_19_1401,59.611134610797755,Cloud_Experiment_FR_REAL,001,06,
images/fcloud65-35_D1.1_6.tif,1.1,1,,,,,,,,,0,77,77,47,,,,,,,,,,,,,,,None,None,,None,11.158,,,,,2019_Jan_19_1401,59.611134610797755,Cloud_Experiment_FR_REAL,001,06,
images/fcloud65-35_D1.4_5.tif,1.4,1,,,,,,,,,0,78,78,55,,,,,,,,,,,,,,,1,space,7.09887452619,1,2.069,,,,,2019_Jan_19_1401,59.611134610797755,Cloud_Experiment_FR_REAL,001,06,
images/fcloud_D1.7_5.tif,1.7,0,,,,,,,,,0,79,79,28,,,,,,,,,,,,,,,3,space,2.0669912415,2,3.499,,,,,2019_Jan_19_1401,59.611134610797755,Cloud_Experiment_FR_REAL,001,06,
images/fcloud80-20_D1.7_5.tif,1.7,2,,,,,,,,,0,80,80,100,,,,,,,,,,,,,,,1,space,7.12923157905,2,1.689,,,,,2019_Jan_19_1401,59.611134610797755,Cloud_Experiment_FR_REAL,001,06,
images/fcloud65-35_D1_5.tif,1.0,1,,,,,,,,,0,81,81,43,,,,,,,,,,,,,,,1,space,7.48749353574,1,0.853,,,,,2019_Jan_19_1401,59.611134610797755,Cloud_Experiment_FR_REAL,001,06,
images/fcloud65-35_D1.8_6.tif,1.8,1,,,,,,,,,0,82,82,68,,,,,,,,,,,,,,,1,space,2.48403239783,2,0.854,,,,,2019_Jan_19_1401,59.611134610797755,Cloud_Experiment_FR_REAL,001,06,
images/fcloud65-35_D1_4.tif,1.0,1,,,,,,,,,0,83,83,42,,,,,,,,,,,,,,,1,space,5.10082948051,3,2.451,,,,,2019_Jan_19_1401,59.611134610797755,Cloud_Experiment_FR_REAL,001,06,
images/fcloud80-20_D1.3_5.tif,1.3,2,,,,,,,,,0,84,84,88,,,,,,,,,,,,,,,2,space,3.98961453009,3,1.353,,,,,2019_Jan_19_1401,59.611134610797755,Cloud_Experiment_FR_REAL,001,06,
images/fcloud80-20_D1_6.tif,1.0,2,,,,,,,,,0,85,85,80,,,,,,,,,,,,,,,1,None,,1,1.319,,,,,2019_Jan_19_1401,59.611134610797755,Cloud_Experiment_FR_REAL,001,06,
images/fcloud65-35_D1.5_5.tif,1.5,1,,,,,,,,,0,86,86,58,,,,,,,,,,,,,,,1,space,4.91740870627,2,6.747,,,,,2019_Jan_19_1401,59.611134610797755,Cloud_Experiment_FR_REAL,001,06,
images/fcloud80-20_D1.6_6.tif,1.6,2,,,,,,,,,0,87,87,98,,,,,,,,,,,,,,,1,space,3.25547032509,1,0.851,,,,,2019_Jan_19_1401,59.611134610797755,Cloud_Experiment_FR_REAL,001,06,
images/fcloud_D1.1_4.tif,1.1,0,,,,,,,,,0,88,88,9,,,,,,,,,,,,,,,2,space,4.24183550829,2,0.935,,,,,2019_Jan_19_1401,59.611134610797755,Cloud_Experiment_FR_REAL,001,06,
images/fcloud_D1.1_6.tif,1.1,0,,,,,,,,,0,89,89,11,,,,,,,,,,,,,,,3,space,4.40336418696,2,0.969,,,,,2019_Jan_19_1401,59.611134610797755,Cloud_Experiment_FR_REAL,001,06,
images/fcloud_D1.6_5.tif,1.6,0,,,,,,,,,0,90,90,25,,,,,,,,,,,,,,,2,space,4.3482368399,3,0.785,,,,,2019_Jan_19_1401,59.611134610797755,Cloud_Experiment_FR_REAL,001,06,
images/fcloud80-20_D1.4_5.tif,1.4,2,,,,,,,,,0,91,91,91,,,,,,,,,,,,,,,None,None,,None,10.175,,,,,2019_Jan_19_1401,59.611134610797755,Cloud_Experiment_FR_REAL,001,06,
images/fcloud_D1.1_5.tif,1.1,0,,,,,,,,,0,92,92,10,,,,,,,,,,,,,,,1,space,8.37607758952,1,0.985,,,,,2019_Jan_19_1401,59.611134610797755,Cloud_Experiment_FR_REAL,001,06,
images/fcloud_D0.8_4.tif,0.8,0,,,,,,,,,0,93,93,0,,,,,,,,,,,,,,,None,None,,None,10.609,,,,,2019_Jan_19_1401,59.611134610797755,Cloud_Experiment_FR_REAL,001,06,
images/fcloud80-20_D1_4.tif,1.0,2,,,,,,,,,0,94,94,78,,,,,,,,,,,,,,,2,space,3.68730240982,1,1.502,,,,,2019_Jan_19_1401,59.611134610797755,Cloud_Experiment_FR_REAL,001,06,
images/fcloud80-20_D1.5_4.tif,1.5,2,,,,,,,,,0,95,95,93,,,,,,,,,,,,,,,3,space,2.75048295545,2,0.453,,,,,2019_Jan_19_1401,59.611134610797755,Cloud_Experiment_FR_REAL,001,06,
images/fcloud65-35_D1.4_4.tif,1.4,1,,,,,,,,,0,96,96,54,,,,,,,,,,,,,,,1,space,6.34413827278,1,0.503,,,,,2019_Jan_19_1401,59.611134610797755,Cloud_Experiment_FR_REAL,001,06,
images/fcloud_D1.3_4.tif,1.3,0,,,,,,,,,0,97,97,15,,,,,,,,,,,,,,,1,space,3.77626234121,1,0.486,,,,,2019_Jan_19_1401,59.611134610797755,Cloud_Experiment_FR_REAL,001,06,
images/fcloud65-35_D1.2_4.tif,1.2,1,,,,,,,,,0,98,98,48,,,,,,,,,,,,,,,1,space,6.5627867789,2,1.567,,,,,2019_Jan_19_1401,59.611134610797755,Cloud_Experiment_FR_REAL,001,06,
images/fcloud80-20_D1.6_4.tif,1.6,2,,,,,,,,,0,99,99,96,,,,,,,,,,,,,,,1,space,5.49285565209,1,5.915,,,,,2019_Jan_19_1401,59.611134610797755,Cloud_Experiment_FR_REAL,001,06,
images/fcloud65-35_D0.8_6.tif,0.8,1,,,,,,,,,0,100,100,38,,,,,,,,,,,,,,,None,None,,None,16.138,,,,,2019_Jan_19_1401,59.611134610797755,Cloud_Experiment_FR_REAL,001,06,
images/fcloud80-20_D1.1_5.tif,1.1,2,,,,,,,,,0,101,101,82,,,,,,,,,,,,,,,2,space,3.65532608103,3,2.202,,,,,2019_Jan_19_1401,59.611134610797755,Cloud_Experiment_FR_REAL,001,06,
images/fcloud_D1.3_6.tif,1.3,0,,,,,,,,,0,102,102,17,,,,,,,,,,,,,,,None,None,,None,11.907,,,,,2019_Jan_19_1401,59.611134610797755,Cloud_Experiment_FR_REAL,001,06,
images/fcloud80-20_D1.2_5.tif,1.2,2,,,,,,,,,0,103,103,85,,,,,,,,,,,,,,,1,space,6.11711271291,1,3.552,,,,,2019_Jan_19_1401,59.611134610797755,Cloud_Experiment_FR_REAL,001,06,
images/fcloud_D1_4.tif,1.0,0,,,,,,,,,0,104,104,6,,,,,,,,,,,,,,,1,space,6.45280659059,1,1.285,,,,,2019_Jan_19_1401,59.611134610797755,Cloud_Experiment_FR_REAL,001,06,
images/fcloud80-20_D1.3_4.tif,1.3,2,,,,,,,,,0,105,105,87,,,,,,,,,,,,,,,1,space,2.29751546538,1,0.787,,,,,2019_Jan_19_1401,59.611134610797755,Cloud_Experiment_FR_REAL,001,06,
images/fcloud_D1_6.tif,1.0,0,,,,,,,,,0,106,106,8,,,,,,,,,,,,,,,2,space,2.5458003181,1,2.535,,,,,2019_Jan_19_1401,59.611134610797755,Cloud_Experiment_FR_REAL,001,06,
images/fcloud_D1.5_6.tif,1.5,0,,,,,,,,,0,107,107,23,,,,,,,,,,,,,,,1,space,4.97062479376,2,0.868,,,,,2019_Jan_19_1401,59.611134610797755,Cloud_Experiment_FR_REAL,001,06,
,,,,,,,,,,,,,,,,,,,,,,,,,6,6.219,,,,,,,,,,,,2019_Jan_19_1401,59.611134610797755,Cloud_Experiment_FR_REAL,001,06,
,,,,,,,,,,,,,,,,,,,,,,,,,,,,,,,,,,,,space,959.21516732,2019_Jan_19_1401,59.611134610797755,Cloud_Experiment_FR_REAL,001,06,
images/fcloud_D1.4_10.tif,1.4,0,,,,,,,,,,,,,0,0,0,27,,,,,,,,,,,2,space,4.48039905127,2,2.383,,,,,2019_Jan_19_1401,59.611134610797755,Cloud_Experiment_FR_REAL,001,06,
images/fcloud65-35_D1_10.tif,1.0,1,,,,,,,,,,,,,0,1,1,59,,,,,,,,,,,1,space,5.56537402188,2,0.867,,,,,2019_Jan_19_1401,59.611134610797755,Cloud_Experiment_FR_REAL,001,06,
images/fcloud80-20_D0.9_7.tif,0.9,2,,,,,,,,,,,,,0,2,2,100,,,,,,,,,,,3,space,4.50209272129,1,2.7,,,,,2019_Jan_19_1401,59.611134610797755,Cloud_Experiment_FR_REAL,001,06,
images/fcloud65-35_D1.5_10.tif,1.5,1,,,,,,,,,,,,,0,3,3,79,,,,,,,,,,,None,None,,None,12.225,,,,,2019_Jan_19_1401,59.611134610797755,Cloud_Experiment_FR_REAL,001,06,
images/fcloud_D0.8_8.tif,0.8,0,,,,,,,,,,,,,0,4,4,1,,,,,,,,,,,2,space,5.47211606969,2,2.95,,,,,2019_Jan_19_1401,59.611134610797755,Cloud_Experiment_FR_REAL,001,06,
images/fcloud_D1.3_8.tif,1.3,0,,,,,,,,,,,,,0,5,5,21,,,,,,,,,,,2,space,4.43178067909,2,0.819,,,,,2019_Jan_19_1401,59.611134610797755,Cloud_Experiment_FR_REAL,001,06,
images/fcloud80-20_D1.8_7.tif,1.8,2,,,,,,,,,,,,,0,6,6,136,,,,,,,,,,,2,space,3.96363877502,1,0.987,,,,,2019_Jan_19_1401,59.611134610797755,Cloud_Experiment_FR_REAL,001,06,
images/fcloud65-35_D1.7_8.tif,1.7,1,,,,,,,,,,,,,0,7,7,85,,,,,,,,,,,1,space,3.92987558819,1,0.735,,,,,2019_Jan_19_1401,59.611134610797755,Cloud_Experiment_FR_REAL,001,06,
images/fcloud80-20_D0.9_9.tif,0.9,2,,,,,,,,,,,,,0,8,8,102,,,,,,,,,,,2,space,3.59890125706,2,0.985,,,,,2019_Jan_19_1401,59.611134610797755,Cloud_Experiment_FR_REAL,001,06,
images/fcloud_D1_10.tif,1.0,0,,,,,,,,,,,,,0,9,9,11,,,,,,,,,,,3,space,4.06693880784,3,1.052,,,,,2019_Jan_19_1401,59.611134610797755,Cloud_Experiment_FR_REAL,001,06,
images/fcloud80-20_D1.3_7.tif,1.3,2,,,,,,,,,,,,,0,10,10,116,,,,,,,,,,,2,space,4.01582006813,2,2.418,,,,,2019_Jan_19_1401,59.611134610797755,Cloud_Experiment_FR_REAL,001,06,
images/fcloud80-20_D1.9_7.tif,1.9,2,,,,,,,,,,,,,0,11,11,140,,,,,,,,,,,2,space,3.49060460163,1,0.953,,,,,2019_Jan_19_1401,59.611134610797755,Cloud_Experiment_FR_REAL,001,06,
images/fcloud_D1.8_8.tif,1.8,0,,,,,,,,,,,,,0,12,12,41,,,,,,,,,,,2,space,3.88684500291,2,0.969,,,,,2019_Jan_19_1401,59.611134610797755,Cloud_Experiment_FR_REAL,001,06,
images/fcloud65-35_D1.4_10.tif,1.4,1,,,,,,,,,,,,,0,13,13,75,,,,,,,,,,,2,space,3.43167735389,4,1.335,,,,,2019_Jan_19_1401,59.611134610797755,Cloud_Experiment_FR_REAL,001,06,
images/fcloud65-35_D1.1_7.tif,1.1,1,,,,,,,,,,,,,0,14,14,60,,,,,,,,,,,1,space,7.774520206,2,1.035,,,,,2019_Jan_19_1401,59.611134610797755,Cloud_Experiment_FR_REAL,001,06,
images/fcloud65-35_D0.9_8.tif,0.9,1,,,,,,,,,,,,,0,15,15,53,,,,,,,,,,,1,space,4.68300850148,3,1.75,,,,,2019_Jan_19_1401,59.611134610797755,Cloud_Experiment_FR_REAL,001,06,
images/fcloud65-35_D1.2_9.tif,1.2,1,,,,,,,,,,,,,0,16,16,66,,,,,,,,,,,None,None,,None,11.908,,,,,2019_Jan_19_1401,59.611134610797755,Cloud_Experiment_FR_REAL,001,06,
images/fcloud_D1.1_9.tif,1.1,0,,,,,,,,,,,,,0,17,17,14,,,,,,,,,,,3,space,2.51894090106,2,1.668,,,,,2019_Jan_19_1401,59.611134610797755,Cloud_Experiment_FR_REAL,001,06,
images/fcloud_D0.9_10.tif,0.9,0,,,,,,,,,,,,,0,18,18,7,,,,,,,,,,,3,space,3.16428864442,2,2.183,,,,,2019_Jan_19_1401,59.611134610797755,Cloud_Experiment_FR_REAL,001,06,
images/fcloud_D0.8_10.tif,0.8,0,,,,,,,,,,,,,0,19,19,3,,,,,,,,,,,1,space,4.77321964473,2,0.969,,,,,2019_Jan_19_1401,59.611134610797755,Cloud_Experiment_FR_REAL,001,06,
images/fcloud80-20_D1.1_10.tif,1.1,2,,,,,,,,,,,,,0,20,20,111,,,,,,,,,,,2,space,6.1067262149,1,1.418,,,,,2019_Jan_19_1401,59.611134610797755,Cloud_Experiment_FR_REAL,001,06,
images/fcloud65-35_D1.8_7.tif,1.8,1,,,,,,,,,,,,,0,21,21,88,,,,,,,,,,,None,None,,None,12.174,,,,,2019_Jan_19_1401,59.611134610797755,Cloud_Experiment_FR_REAL,001,06,
images/fcloud80-20_D1.9_8.tif,1.9,2,,,,,,,,,,,,,0,22,22,141,,,,,,,,,,,None,None,,None,28.393,,,,,2019_Jan_19_1401,59.611134610797755,Cloud_Experiment_FR_REAL,001,06,
images/fcloud80-20_D1.6_8.tif,1.6,2,,,,,,,,,,,,,0,23,23,129,,,,,,,,,,,None,None,,None,41.482,,,,,2019_Jan_19_1401,59.611134610797755,Cloud_Experiment_FR_REAL,001,06,
images/fcloud80-20_D1.5_9.tif,1.5,2,,,,,,,,,,,,,0,24,24,126,,,,,,,,,,,2,space,1.99473144181,2,1.001,,,,,2019_Jan_19_1401,59.611134610797755,Cloud_Experiment_FR_REAL,001,06,
images/fcloud65-35_D1.1_9.tif,1.1,1,,,,,,,,,,,,,0,25,25,62,,,,,,,,,,,1,space,3.58335004016,3,1.435,,,,,2019_Jan_19_1401,59.611134610797755,Cloud_Experiment_FR_REAL,001,06,
images/fcloud_D1_8.tif,1.0,0,,,,,,,,,,,,,0,26,26,9,,,,,,,,,,,3,space,3.90465035467,2,2.7,,,,,2019_Jan_19_1401,59.611134610797755,Cloud_Experiment_FR_REAL,001,06,
images/fcloud80-20_D1_9.tif,1.0,2,,,,,,,,,,,,,0,27,27,106,,,,,,,,,,,2,space,2.62933181995,1,1.201,,,,,2019_Jan_19_1401,59.611134610797755,Cloud_Experiment_FR_REAL,001,06,
images/fcloud_D1.7_7.tif,1.7,0,,,,,,,,,,,,,0,28,28,36,,,,,,,,,,,2,space,2.69942847273,2,1.252,,,,,2019_Jan_19_1401,59.611134610797755,Cloud_Experiment_FR_REAL,001,06,
images/fcloud80-20_D1.6_7.tif,1.6,2,,,,,,,,,,,,,0,29,29,128,,,,,,,,,,,3,space,7.09179597741,1,0.886,,,,,2019_Jan_19_1401,59.611134610797755,Cloud_Experiment_FR_REAL,001,06,
images/fcloud80-20_D0.8_8.tif,0.8,2,,,,,,,,,,,,,0,30,30,97,,,,,,,,,,,None,None,,None,10.343,,,,,2019_Jan_19_1401,59.611134610797755,Cloud_Experiment_FR_REAL,001,06,
images/fcloud65-35_D1.9_7.tif,1.9,1,,,,,,,,,,,,,0,31,31,92,,,,,,,,,,,3,space,3.01324053598,1,2.233,,,,,2019_Jan_19_1401,59.611134610797755,Cloud_Experiment_FR_REAL,001,06,
images/fcloud_D1.4_7.tif,1.4,0,,,,,,,,,,,,,0,32,32,24,,,,,,,,,,,3,space,4.81742022111,1,3.699,,,,,2019_Jan_19_1401,59.611134610797755,Cloud_Experiment_FR_REAL,001,06,
images/fcloud_D1.6_10.tif,1.6,0,,,,,,,,,,,,,0,33,33,35,,,,,,,,,,,3,space,1.53879476528,1,2.351,,,,,2019_Jan_19_1401,59.611134610797755,Cloud_Experiment_FR_REAL,001,06,
images/fcloud80-20_D1.1_7.tif,1.1,2,,,,,,,,,,,,,0,34,34,108,,,,,,,,,,,2,space,2.55051061165,2,1.719,,,,,2019_Jan_19_1401,59.611134610797755,Cloud_Experiment_FR_REAL,001,06,
images/fcloud_D0.9_7.tif,0.9,0,,,,,,,,,,,,,0,35,35,4,,,,,,,,,,,1,None,,1,1.551,,,,,2019_Jan_19_1401,59.611134610797755,Cloud_Experiment_FR_REAL,001,06,
images/fcloud65-35_D1.3_9.tif,1.3,1,,,,,,,,,,,,,0,36,36,70,,,,,,,,,,,1,space,6.51859494147,3,1.368,,,,,2019_Jan_19_1401,59.611134610797755,Cloud_Experiment_FR_REAL,001,06,
images/fcloud_D1.9_7.tif,1.9,0,,,,,,,,,,,,,0,37,37,44,,,,,,,,,,,2,space,5.32169973588,1,7.412,,,,,2019_Jan_19_1401,59.611134610797755,Cloud_Experiment_FR_REAL,001,06,
images/fcloud_D1.6_8.tif,1.6,0,,,,,,,,,,,,,0,38,38,33,,,,,,,,,,,1,space,3.06142761529,1,0.488,,,,,2019_Jan_19_1401,59.611134610797755,Cloud_Experiment_FR_REAL,001,06,
images/fcloud_D1.1_8.tif,1.1,0,,,,,,,,,,,,,0,39,39,13,,,,,,,,,,,1,space,5.63237040397,1,0.669,,,,,2019_Jan_19_1401,59.611134610797755,Cloud_Experiment_FR_REAL,001,06,
images/fcloud_D1.5_7.tif,1.5,0,,,,,,,,,,,,,0,40,40,28,,,,,,,,,,,2,space,2.51500940209,1,0.852,,,,,2019_Jan_19_1401,59.611134610797755,Cloud_Experiment_FR_REAL,001,06,
images/fcloud_D1.4_8.tif,1.4,0,,,,,,,,,,,,,0,41,41,25,,,,,,,,,,,2,space,7.4122691761,1,0.586,,,,,2019_Jan_19_1401,59.611134610797755,Cloud_Experiment_FR_REAL,001,06,
images/fcloud65-35_D0.8_9.tif,0.8,1,,,,,,,,,,,,,0,42,42,50,,,,,,,,,,,2,space,4.46176349936,1,1.136,,,,,2019_Jan_19_1401,59.611134610797755,Cloud_Experiment_FR_REAL,001,06,
images/fcloud_D1.6_7.tif,1.6,0,,,,,,,,,,,,,0,43,43,32,,,,,,,,,,,1,space,3.79182640952,1,0.868,,,,,2019_Jan_19_1401,59.611134610797755,Cloud_Experiment_FR_REAL,001,06,
images/fcloud65-35_D0.8_10.tif,0.8,1,,,,,,,,,,,,,0,44,44,51,,,,,,,,,,,1,None,,1,0.984,,,,,2019_Jan_19_1401,59.611134610797755,Cloud_Experiment_FR_REAL,001,06,
images/fcloud_D1.8_10.tif,1.8,0,,,,,,,,,,,,,0,45,45,43,,,,,,,,,,,3,space,1.92515861191,1,3.117,,,,,2019_Jan_19_1401,59.611134610797755,Cloud_Experiment_FR_REAL,001,06,
images/fcloud65-35_D1_8.tif,1.0,1,,,,,,,,,,,,,0,46,46,57,,,,,,,,,,,1,space,3.26714504702,3,1.034,,,,,2019_Jan_19_1401,59.611134610797755,Cloud_Experiment_FR_REAL,001,06,
images/fcloud_D1.9_9.tif,1.9,0,,,,,,,,,,,,,0,47,47,46,,,,,,,,,,,3,None,,1,0.487,,,,,2019_Jan_19_1401,59.611134610797755,Cloud_Experiment_FR_REAL,001,06,
images/fcloud65-35_D1.6_8.tif,1.6,1,,,,,,,,,,,,,0,48,48,81,,,,,,,,,,,3,space,4.24355913748,3,1.053,,,,,2019_Jan_19_1401,59.611134610797755,Cloud_Experiment_FR_REAL,001,06,
images/fcloud65-35_D1.4_8.tif,1.4,1,,,,,,,,,,,,,0,49,49,73,,,,,,,,,,,1,space,7.23631043624,1,0.536,,,,,2019_Jan_19_1401,59.611134610797755,Cloud_Experiment_FR_REAL,001,06,
images/fcloud_D0.8_7.tif,0.8,0,,,,,,,,,,,,,0,50,50,0,,,,,,,,,,,1,None,,3,3.867,,,,,2019_Jan_19_1401,59.611134610797755,Cloud_Experiment_FR_REAL,001,06,
images/fcloud65-35_D1.6_7.tif,1.6,1,,,,,,,,,,,,,0,51,51,80,,,,,,,,,,,1,space,6.02817231565,1,0.502,,,,,2019_Jan_19_1401,59.611134610797755,Cloud_Experiment_FR_REAL,001,06,
images/fcloud_D1_7.tif,1.0,0,,,,,,,,,,,,,0,52,52,8,,,,,,,,,,,2,space,5.39171671,1,0.601,,,,,2019_Jan_19_1401,59.611134610797755,Cloud_Experiment_FR_REAL,001,06,
images/fcloud65-35_D1.5_8.tif,1.5,1,,,,,,,,,,,,,0,53,53,77,,,,,,,,,,,None,None,,None,9.562,,,,,2019_Jan_19_1401,59.611134610797755,Cloud_Experiment_FR_REAL,001,06,
images/fcloud65-35_D1_7.tif,1.0,1,,,,,,,,,,,,,0,54,54,56,,,,,,,,,,,3,space,3.1869415426,3,1.517,,,,,2019_Jan_19_1401,59.611134610797755,Cloud_Experiment_FR_REAL,001,06,
images/fcloud65-35_D1.4_7.tif,1.4,1,,,,,,,,,,,,,0,55,55,72,,,,,,,,,,,2,space,4.48444981119,2,0.951,,,,,2019_Jan_19_1401,59.611134610797755,Cloud_Experiment_FR_REAL,001,06,
images/fcloud65-35_D1.3_7.tif,1.3,1,,,,,,,,,,,,,0,56,56,68,,,,,,,,,,,3,space,4.83305163073,1,0.402,,,,,2019_Jan_19_1401,59.611134610797755,Cloud_Experiment_FR_REAL,001,06,
images/fcloud_D1.3_7.tif,1.3,0,,,,,,,,,,,,,0,57,57,20,,,,,,,,,,,2,space,5.98971579911,1,0.536,,,,,2019_Jan_19_1401,59.611134610797755,Cloud_Experiment_FR_REAL,001,06,
images/fcloud80-20_D1.7_8.tif,1.7,2,,,,,,,,,,,,,0,58,58,133,,,,,,,,,,,1,space,3.90927428682,1,0.751,,,,,2019_Jan_19_1401,59.611134610797755,Cloud_Experiment_FR_REAL,001,06,
images/fcloud65-35_D1.1_10.tif,1.1,1,,,,,,,,,,,,,0,59,59,63,,,,,,,,,,,2,space,4.33610049586,2,0.969,,,,,2019_Jan_19_1401,59.611134610797755,Cloud_Experiment_FR_REAL,001,06,
images/fcloud_D1.6_9.tif,1.6,0,,,,,,,,,,,,,0,60,60,34,,,,,,,,,,,3,space,3.1900253635,1,0.669,,,,,2019_Jan_19_1401,59.611134610797755,Cloud_Experiment_FR_REAL,001,06,
images/fcloud80-20_D1.1_8.tif,1.1,2,,,,,,,,,,,,,0,61,61,109,,,,,,,,,,,1,space,7.13036918463,1,0.869,,,,,2019_Jan_19_1401,59.611134610797755,Cloud_Experiment_FR_REAL,001,06,
images/fcloud80-20_D0.8_9.tif,0.8,2,,,,,,,,,,,,,0,62,62,98,,,,,,,,,,,1,space,1.91461070039,1,1.583,,,,,2019_Jan_19_1401,59.611134610797755,Cloud_Experiment_FR_REAL,001,06,
images/fcloud65-35_D1.2_7.tif,1.2,1,,,,,,,,,,,,,0,63,63,64,,,,,,,,,,,2,space,6.05250257798,1,1.019,,,,,2019_Jan_19_1401,59.611134610797755,Cloud_Experiment_FR_REAL,001,06,
images/fcloud65-35_D1.7_9.tif,1.7,1,,,,,,,,,,,,,0,64,64,86,,,,,,,,,,,1,space,5.58137041115,1,1.252,,,,,2019_Jan_19_1401,59.611134610797755,Cloud_Experiment_FR_REAL,001,06,
images/fcloud80-20_D1.4_9.tif,1.4,2,,,,,,,,,,,,,0,65,65,122,,,,,,,,,,,1,space,4.59031755285,1,1.318,,,,,2019_Jan_19_1401,59.611134610797755,Cloud_Experiment_FR_REAL,001,06,
images/fcloud_D0.9_8.tif,0.9,0,,,,,,,,,,,,,0,66,66,5,,,,,,,,,,,1,space,5.9400086567,2,0.686,,,,,2019_Jan_19_1401,59.611134610797755,Cloud_Experiment_FR_REAL,001,06,
images/fcloud80-20_D1.8_10.tif,1.8,2,,,,,,,,,,,,,0,67,67,139,,,,,,,,,,,2,space,4.02667692723,1,0.504,,,,,2019_Jan_19_1401,59.611134610797755,Cloud_Experiment_FR_REAL,001,06,
images/fcloud65-35_D0.9_9.tif,0.9,1,,,,,,,,,,,,,0,68,68,54,,,,,,,,,,,2,space,6.02855939965,2,0.734,,,,,2019_Jan_19_1401,59.611134610797755,Cloud_Experiment_FR_REAL,001,06,
images/fcloud_D1.3_10.tif,1.3,0,,,,,,,,,,,,,0,69,69,23,,,,,,,,,,,1,space,1.77632299977,3,0.904,,,,,2019_Jan_19_1401,59.611134610797755,Cloud_Experiment_FR_REAL,001,06,
images/fcloud80-20_D1.5_7.tif,1.5,2,,,,,,,,,,,,,0,70,70,124,,,,,,,,,,,3,space,5.97439744946,1,0.569,,,,,2019_Jan_19_1401,59.611134610797755,Cloud_Experiment_FR_REAL,001,06,
images/fcloud65-35_D1.9_10.tif,1.9,1,,,,,,,,,,,,,0,71,71,95,,,,,,,,,,,2,space,5.83272571935,1,0.52,,,,,2019_Jan_19_1401,59.611134610797755,Cloud_Experiment_FR_REAL,001,06,
images/fcloud80-20_D1.3_9.tif,1.3,2,,,,,,,,,,,,,0,72,72,118,,,,,,,,,,,1,space,7.70494017933,2,1.302,,,,,2019_Jan_19_1401,59.611134610797755,Cloud_Experiment_FR_REAL,001,06,
images/fcloud80-20_D1.8_9.tif,1.8,2,,,,,,,,,,,,,0,73,73,138,,,,,,,,,,,None,None,,None,10.508,,,,,2019_Jan_19_1401,59.611134610797755,Cloud_Experiment_FR_REAL,001,06,
images/fcloud65-35_D1.5_7.tif,1.5,1,,,,,,,,,,,,,0,74,74,76,,,,,,,,,,,3,space,4.78312755679,2,0.818,,,,,2019_Jan_19_1401,59.611134610797755,Cloud_Experiment_FR_REAL,001,06,
images/fcloud80-20_D1_8.tif,1.0,2,,,,,,,,,,,,,0,75,75,105,,,,,,,,,,,1,space,1.85344216923,4,1.202,,,,,2019_Jan_19_1401,59.611134610797755,Cloud_Experiment_FR_REAL,001,06,
images/fcloud65-35_D1_9.tif,1.0,1,,,,,,,,,,,,,0,76,76,58,,,,,,,,,,,1,space,7.41721644939,1,0.967,,,,,2019_Jan_19_1401,59.611134610797755,Cloud_Experiment_FR_REAL,001,06,
images/fcloud80-20_D1.2_9.tif,1.2,2,,,,,,,,,,,,,0,77,77,114,,,,,,,,,,,1,space,3.96703925435,1,0.619,,,,,2019_Jan_19_1401,59.611134610797755,Cloud_Experiment_FR_REAL,001,06,
images/fcloud_D1.2_9.tif,1.2,0,,,,,,,,,,,,,0,78,78,18,,,,,,,,,,,5,space,1.93348991475,2,4.632,,,,,2019_Jan_19_1401,59.611134610797755,Cloud_Experiment_FR_REAL,001,06,
images/fcloud80-20_D1.1_9.tif,1.1,2,,,,,,,,,,,,,0,79,79,110,,,,,,,,,,,2,space,4.86424402436,1,0.419,,,,,2019_Jan_19_1401,59.611134610797755,Cloud_Experiment_FR_REAL,001,06,
images/fcloud80-20_D0.8_10.tif,0.8,2,,,,,,,,,,,,,0,80,80,99,,,,,,,,,,,2,space,7.1891817979,1,1.202,,,,,2019_Jan_19_1401,59.611134610797755,Cloud_Experiment_FR_REAL,001,06,
images/fcloud80-20_D1.7_9.tif,1.7,2,,,,,,,,,,,,,0,81,81,134,,,,,,,,,,,None,None,,None,12.574,,,,,2019_Jan_19_1401,59.611134610797755,Cloud_Experiment_FR_REAL,001,06,
images/fcloud65-35_D1.7_10.tif,1.7,1,,,,,,,,,,,,,0,82,82,87,,,,,,,,,,,1,None,,1,0.869,,,,,2019_Jan_19_1401,59.611134610797755,Cloud_Experiment_FR_REAL,001,06,
images/fcloud_D1.5_9.tif,1.5,0,,,,,,,,,,,,,0,83,83,30,,,,,,,,,,,None,None,,None,10.309,,,,,2019_Jan_19_1401,59.611134610797755,Cloud_Experiment_FR_REAL,001,06,
images/fcloud65-35_D0.9_7.tif,0.9,1,,,,,,,,,,,,,0,84,84,52,,,,,,,,,,,2,space,3.49877346281,1,0.82,,,,,2019_Jan_19_1401,59.611134610797755,Cloud_Experiment_FR_REAL,001,06,
images/fcloud65-35_D1.3_10.tif,1.3,1,,,,,,,,,,,,,0,85,85,71,,,,,,,,,,,2,space,3.89677450529,3,2.9,,,,,2019_Jan_19_1401,59.611134610797755,Cloud_Experiment_FR_REAL,001,06,
images/fcloud80-20_D1.6_9.tif,1.6,2,,,,,,,,,,,,,0,86,86,130,,,,,,,,,,,1,space,2.14145582667,1,2.932,,,,,2019_Jan_19_1401,59.611134610797755,Cloud_Experiment_FR_REAL,001,06,
images/fcloud80-20_D1.2_8.tif,1.2,2,,,,,,,,,,,,,0,87,87,113,,,,,,,,,,,1,None,,1,14.541,,,,,2019_Jan_19_1401,59.611134610797755,Cloud_Experiment_FR_REAL,001,06,
images/fcloud_D1.2_7.tif,1.2,0,,,,,,,,,,,,,0,88,88,16,,,,,,,,,,,2,space,2.27919091724,1,1.002,,,,,2019_Jan_19_1401,59.611134610797755,Cloud_Experiment_FR_REAL,001,06,
images/fcloud_D1_9.tif,1.0,0,,,,,,,,,,,,,0,89,89,10,,,,,,,,,,,2,space,3.95838461039,1,1.102,,,,,2019_Jan_19_1401,59.611134610797755,Cloud_Experiment_FR_REAL,001,06,
images/fcloud65-35_D1.1_8.tif,1.1,1,,,,,,,,,,,,,0,90,90,61,,,,,,,,,,,2,space,5.8121670846,1,2.268,,,,,2019_Jan_19_1401,59.611134610797755,Cloud_Experiment_FR_REAL,001,06,
images/fcloud_D1.4_9.tif,1.4,0,,,,,,,,,,,,,0,91,91,26,,,,,,,,,,,2,space,3.22457042924,3,4.117,,,,,2019_Jan_19_1401,59.611134610797755,Cloud_Experiment_FR_REAL,001,06,
images/fcloud_D1.5_8.tif,1.5,0,,,,,,,,,,,,,0,92,92,29,,,,,,,,,,,1,space,4.91581770347,1,0.952,,,,,2019_Jan_19_1401,59.611134610797755,Cloud_Experiment_FR_REAL,001,06,
images/fcloud_D1.1_10.tif,1.1,0,,,,,,,,,,,,,0,93,93,15,,,,,,,,,,,3,space,2.35531898704,3,0.902,,,,,2019_Jan_19_1401,59.611134610797755,Cloud_Experiment_FR_REAL,001,06,
images/fcloud80-20_D1.3_8.tif,1.3,2,,,,,,,,,,,,,0,94,94,117,,,,,,,,,,,1,None,,2,1.351,,,,,2019_Jan_19_1401,59.611134610797755,Cloud_Experiment_FR_REAL,001,06,
images/fcloud_D1.1_7.tif,1.1,0,,,,,,,,,,,,,0,95,95,12,,,,,,,,,,,1,space,3.39568881938,2,1.384,,,,,2019_Jan_19_1401,59.611134610797755,Cloud_Experiment_FR_REAL,001,06,
images/fcloud_D1.2_8.tif,1.2,0,,,,,,,,,,,,,0,96,96,17,,,,,,,,,,,2,space,6.84567941216,4,2.667,,,,,2019_Jan_19_1401,59.611134610797755,Cloud_Experiment_FR_REAL,001,06,
images/fcloud80-20_D1.5_8.tif,1.5,2,,,,,,,,,,,,,0,97,97,125,,,,,,,,,,,1,space,4.85518944499,1,2.316,,,,,2019_Jan_19_1401,59.611134610797755,Cloud_Experiment_FR_REAL,001,06,
images/fcloud65-35_D0.8_7.tif,0.8,1,,,,,,,,,,,,,0,98,98,48,,,,,,,,,,,None,None,,None,11.558,,,,,2019_Jan_19_1401,59.611134610797755,Cloud_Experiment_FR_REAL,001,06,
images/fcloud80-20_D0.9_10.tif,0.9,2,,,,,,,,,,,,,0,99,99,103,,,,,,,,,,,1,space,7.9578828919,1,0.454,,,,,2019_Jan_19_1401,59.611134610797755,Cloud_Experiment_FR_REAL,001,06,
images/fcloud_D1.8_9.tif,1.8,0,,,,,,,,,,,,,0,100,100,42,,,,,,,,,,,3,None,,1,0.803,,,,,2019_Jan_19_1401,59.611134610797755,Cloud_Experiment_FR_REAL,001,06,
images/fcloud80-20_D1.8_8.tif,1.8,2,,,,,,,,,,,,,0,101,101,137,,,,,,,,,,,2,None,,1,0.736,,,,,2019_Jan_19_1401,59.611134610797755,Cloud_Experiment_FR_REAL,001,06,
images/fcloud65-35_D1.8_10.tif,1.8,1,,,,,,,,,,,,,0,102,102,91,,,,,,,,,,,1,space,4.58251367131,1,0.603,,,,,2019_Jan_19_1401,59.611134610797755,Cloud_Experiment_FR_REAL,001,06,
images/fcloud65-35_D0.8_8.tif,0.8,1,,,,,,,,,,,,,0,103,103,49,,,,,,,,,,,1,space,6.44826799168,3,1.385,,,,,2019_Jan_19_1401,59.611134610797755,Cloud_Experiment_FR_REAL,001,06,
images/fcloud_D1.3_9.tif,1.3,0,,,,,,,,,,,,,0,104,104,22,,,,,,,,,,,3,space,2.98930558254,2,0.985,,,,,2019_Jan_19_1401,59.611134610797755,Cloud_Experiment_FR_REAL,001,06,
images/fcloud_D1.7_9.tif,1.7,0,,,,,,,,,,,,,0,105,105,38,,,,,,,,,,,2,space,1.54575816554,2,2.135,,,,,2019_Jan_19_1401,59.611134610797755,Cloud_Experiment_FR_REAL,001,06,
images/fcloud_D1.8_7.tif,1.8,0,,,,,,,,,,,,,0,106,106,40,,,,,,,,,,,2,space,2.87429021741,3,1.434,,,,,2019_Jan_19_1401,59.611134610797755,Cloud_Experiment_FR_REAL,001,06,
images/fcloud80-20_D1.2_7.tif,1.2,2,,,,,,,,,,,,,0,107,107,112,,,,,,,,,,,1,None,,1,1.401,,,,,2019_Jan_19_1401,59.611134610797755,Cloud_Experiment_FR_REAL,001,06,
images/fcloud80-20_D1.6_10.tif,1.6,2,,,,,,,,,,,,,0,108,108,131,,,,,,,,,,,1,space,6.39106437317,1,1.45,,,,,2019_Jan_19_1401,59.611134610797755,Cloud_Experiment_FR_REAL,001,06,
images/fcloud_D0.8_9.tif,0.8,0,,,,,,,,,,,,,0,109,109,2,,,,,,,,,,,1,space,6.43767227294,5,3.351,,,,,2019_Jan_19_1401,59.611134610797755,Cloud_Experiment_FR_REAL,001,06,
images/fcloud80-20_D1.9_10.tif,1.9,2,,,,,,,,,,,,,0,110,110,143,,,,,,,,,,,2,space,6.67287851727,1,1.401,,,,,2019_Jan_19_1401,59.611134610797755,Cloud_Experiment_FR_REAL,001,06,
images/fcloud80-20_D1.3_10.tif,1.3,2,,,,,,,,,,,,,0,111,111,119,,,,,,,,,,,4,space,2.85455972661,1,1.269,,,,,2019_Jan_19_1401,59.611134610797755,Cloud_Experiment_FR_REAL,001,06,
images/fcloud65-35_D1.8_9.tif,1.8,1,,,,,,,,,,,,,0,112,112,90,,,,,,,,,,,4,space,2.50469847026,1,1.418,,,,,2019_Jan_19_1401,59.611134610797755,Cloud_Experiment_FR_REAL,001,06,
images/fcloud65-35_D1.7_7.tif,1.7,1,,,,,,,,,,,,,0,113,113,84,,,,,,,,,,,2,None,,1,1.35,,,,,2019_Jan_19_1401,59.611134610797755,Cloud_Experiment_FR_REAL,001,06,
images/fcloud65-35_D1.2_8.tif,1.2,1,,,,,,,,,,,,,0,114,114,65,,,,,,,,,,,2,None,,1,3.234,,,,,2019_Jan_19_1401,59.611134610797755,Cloud_Experiment_FR_REAL,001,06,
images/fcloud_D1.9_8.tif,1.9,0,,,,,,,,,,,,,0,115,115,45,,,,,,,,,,,3,space,3.94973356486,5,2.203,,,,,2019_Jan_19_1401,59.611134610797755,Cloud_Experiment_FR_REAL,001,06,
images/fcloud65-35_D1.5_9.tif,1.5,1,,,,,,,,,,,,,0,116,116,78,,,,,,,,,,,2,space,5.89574639365,2,1.386,,,,,2019_Jan_19_1401,59.611134610797755,Cloud_Experiment_FR_REAL,001,06,
images/fcloud80-20_D1.7_10.tif,1.7,2,,,,,,,,,,,,,0,117,117,135,,,,,,,,,,,None,None,,None,11.076,,,,,2019_Jan_19_1401,59.611134610797755,Cloud_Experiment_FR_REAL,001,06,
images/fcloud_D1.9_10.tif,1.9,0,,,,,,,,,,,,,0,118,118,47,,,,,,,,,,,2,space,2.01909203347,2,3.966,,,,,2019_Jan_19_1401,59.611134610797755,Cloud_Experiment_FR_REAL,001,06,
images/fcloud65-35_D1.6_10.tif,1.6,1,,,,,,,,,,,,,0,119,119,83,,,,,,,,,,,3,space,3.40304187394,2,1.585,,,,,2019_Jan_19_1401,59.611134610797755,Cloud_Experiment_FR_REAL,001,06,
images/fcloud_D1.2_10.tif,1.2,0,,,,,,,,,,,,,0,120,120,19,,,,,,,,,,,3,space,3.55407147639,2,1.75,,,,,2019_Jan_19_1401,59.611134610797755,Cloud_Experiment_FR_REAL,001,06,
images/fcloud65-35_D1.3_8.tif,1.3,1,,,,,,,,,,,,,0,121,121,69,,,,,,,,,,,2,space,2.49477616465,2,1.485,,,,,2019_Jan_19_1401,59.611134610797755,Cloud_Experiment_FR_REAL,001,06,
images/fcloud65-35_D0.9_10.tif,0.9,1,,,,,,,,,,,,,0,122,122,55,,,,,,,,,,,4,space,7.2126212015,1,1.369,,,,,2019_Jan_19_1401,59.611134610797755,Cloud_Experiment_FR_REAL,001,06,
images/fcloud80-20_D1.4_7.tif,1.4,2,,,,,,,,,,,,,0,123,123,120,,,,,,,,,,,1,None,,3,1.635,,,,,2019_Jan_19_1401,59.611134610797755,Cloud_Experiment_FR_REAL,001,06,
images/fcloud80-20_D1.9_9.tif,1.9,2,,,,,,,,,,,,,0,124,124,142,,,,,,,,,,,2,space,2.39278594614,1,1.267,,,,,2019_Jan_19_1401,59.611134610797755,Cloud_Experiment_FR_REAL,001,06,
images/fcloud80-20_D1_7.tif,1.0,2,,,,,,,,,,,,,0,125,125,104,,,,,,,,,,,None,None,,None,11.108,,,,,2019_Jan_19_1401,59.611134610797755,Cloud_Experiment_FR_REAL,001,06,
images/fcloud65-35_D1.9_9.tif,1.9,1,,,,,,,,,,,,,0,126,126,94,,,,,,,,,,,1,space,8.04748487906,1,4.299,,,,,2019_Jan_19_1401,59.611134610797755,Cloud_Experiment_FR_REAL,001,06,
images/fcloud80-20_D1.7_7.tif,1.7,2,,,,,,,,,,,,,0,127,127,132,,,,,,,,,,,1,space,7.3750469076,2,0.403,,,,,2019_Jan_19_1401,59.611134610797755,Cloud_Experiment_FR_REAL,001,06,
images/fcloud80-20_D1.2_10.tif,1.2,2,,,,,,,,,,,,,0,128,128,115,,,,,,,,,,,3,space,3.28427544347,2,0.702,,,,,2019_Jan_19_1401,59.611134610797755,Cloud_Experiment_FR_REAL,001,06,
images/fcloud80-20_D0.8_7.tif,0.8,2,,,,,,,,,,,,,0,129,129,96,,,,,,,,,,,3,space,3.26583523277,3,1.668,,,,,2019_Jan_19_1401,59.611134610797755,Cloud_Experiment_FR_REAL,001,06,
images/fcloud65-35_D1.6_9.tif,1.6,1,,,,,,,,,,,,,0,130,130,82,,,,,,,,,,,2,space,4.66443206597,1,0.769,,,,,2019_Jan_19_1401,59.611134610797755,Cloud_Experiment_FR_REAL,001,06,
images/fcloud65-35_D1.4_9.tif,1.4,1,,,,,,,,,,,,,0,131,131,74,,,,,,,,,,,2,space,1.40489607333,2,2.717,,,,,2019_Jan_19_1401,59.611134610797755,Cloud_Experiment_FR_REAL,001,06,
images/fcloud80-20_D1.4_8.tif,1.4,2,,,,,,,,,,,,,0,132,132,121,,,,,,,,,,,2,None,,1,0.503,,,,,2019_Jan_19_1401,59.611134610797755,Cloud_Experiment_FR_REAL,001,06,
images/fcloud_D1.7_10.tif,1.7,0,,,,,,,,,,,,,0,133,133,39,,,,,,,,,,,2,None,,1,1.585,,,,,2019_Jan_19_1401,59.611134610797755,Cloud_Experiment_FR_REAL,001,06,
images/fcloud65-35_D1.2_10.tif,1.2,1,,,,,,,,,,,,,0,134,134,67,,,,,,,,,,,2,space,3.29419158038,2,1.168,,,,,2019_Jan_19_1401,59.611134610797755,Cloud_Experiment_FR_REAL,001,06,
images/fcloud80-20_D1.4_10.tif,1.4,2,,,,,,,,,,,,,0,135,135,123,,,,,,,,,,,1,space,1.88147928816,2,1.367,,,,,2019_Jan_19_1401,59.611134610797755,Cloud_Experiment_FR_REAL,001,06,
images/fcloud65-35_D1.9_8.tif,1.9,1,,,,,,,,,,,,,0,136,136,93,,,,,,,,,,,2,None,,2,1.269,,,,,2019_Jan_19_1401,59.611134610797755,Cloud_Experiment_FR_REAL,001,06,
images/fcloud80-20_D1.5_10.tif,1.5,2,,,,,,,,,,,,,0,137,137,127,,,,,,,,,,,None,None,,None,11.225,,,,,2019_Jan_19_1401,59.611134610797755,Cloud_Experiment_FR_REAL,001,06,
images/fcloud_D1.7_8.tif,1.7,0,,,,,,,,,,,,,0,138,138,37,,,,,,,,,,,4,space,1.27024583178,3,4.982,,,,,2019_Jan_19_1401,59.611134610797755,Cloud_Experiment_FR_REAL,001,06,
images/fcloud80-20_D0.9_8.tif,0.9,2,,,,,,,,,,,,,0,139,139,101,,,,,,,,,,,3,space,3.38064394746,4,1.568,,,,,2019_Jan_19_1401,59.611134610797755,Cloud_Experiment_FR_REAL,001,06,
images/fcloud_D0.9_9.tif,0.9,0,,,,,,,,,,,,,0,140,140,6,,,,,,,,,,,3,space,4.93888184632,5,4.432,,,,,2019_Jan_19_1401,59.611134610797755,Cloud_Experiment_FR_REAL,001,06,
images/fcloud_D1.5_10.tif,1.5,0,,,,,,,,,,,,,0,141,141,31,,,,,,,,,,,None,None,,None,15.338,,,,,2019_Jan_19_1401,59.611134610797755,Cloud_Experiment_FR_REAL,001,06,
images/fcloud65-35_D1.8_8.tif,1.8,1,,,,,,,,,,,,,0,142,142,89,,,,,,,,,,,2,space,6.11664800646,1,0.553,,,,,2019_Jan_19_1401,59.611134610797755,Cloud_Experiment_FR_REAL,001,06,
images/fcloud80-20_D1_10.tif,1.0,2,,,,,,,,,,,,,0,143,143,107,,,,,,,,,,,1,space,3.51478321751,1,3.582,,,,,2019_Jan_19_1401,59.611134610797755,Cloud_Experiment_FR_REAL,001,06,
,,,,,,,,,,,,,,,,,,,,,,,,,8,5.399,,,,,,,,,,,,2019_Jan_19_1401,59.611134610797755,Cloud_Experiment_FR_REAL,001,06,
