ImageFile,FD,Contrast,trials_4.thisRepN,trials_4.thisTrialN,trials_4.thisN,trials_4.thisIndex,trials.thisRepN,trials.thisTrialN,trials.thisN,trials.thisIndex,trials_2.thisRepN,trials_2.thisTrialN,trials_2.thisN,trials_2.thisIndex,trials_3.thisRepN,trials_3.thisTrialN,trials_3.thisN,trials_3.thisIndex,end_instructions.keys,end_instructions.rt,key_resp_4.keys,key_resp_4.rt,key_resp_6.keys,key_resp_6.rt,Fatigue.response,Fatigue.rt,key_resp_5.keys,key_resp_5.rt,n_objets.response,reaction_time.keys,reaction_time.rt,vividness.response,vividness.rt,key_resp_2.keys,key_resp_2.rt,key_resp_3.keys,key_resp_3.rt,date,frameRate,expName,session,participant,
,,,,,,,,,,,,,,,,,,,space,13.7833110747,,,,,,,,,,,,,,,,,,2019_Jan_19_1602,60.36679709877473,Cloud_Experiment_FR_REAL,001,07,
,,,,,,,,,,,,,,,,,,,,,space,113.252987949,,,,,,,,,,,,,,,,2019_Jan_19_1602,60.36679709877473,Cloud_Experiment_FR_REAL,001,07,
,,,,,,,,,,,,,,,,,,,,,,,space,12.70678821,,,,,,,,,,,,,,2019_Jan_19_1602,60.36679709877473,Cloud_Experiment_FR_REAL,001,07,
,,,,,,,,,,,,,,,,,,,,,,,,,8,41.444,,,,,,,,,,,,2019_Jan_19_1602,60.36679709877473,Cloud_Experiment_FR_REAL,001,07,
,,,,,,,,,,,,,,,,,,,,,,,,,,,space,3.73170192578,,,,,,,,,,2019_Jan_19_1602,60.36679709877473,Cloud_Experiment_FR_REAL,001,07,
pratique/fcloud65-35_D1.6_30,1.6,1,0,0,0,2,,,,,,,,,,,,,,,,,,,,,,,1,space,5.98047461748,3,6.547,,,,,2019_Jan_19_1602,60.36679709877473,Cloud_Experiment_FR_REAL,001,07,
pratique/fcloud_D1.4_30,1.4,0,0,1,1,1,,,,,,,,,,,,,,,,,,,,,,,None,None,,None,17.071,,,,,2019_Jan_19_1602,60.36679709877473,Cloud_Experiment_FR_REAL,001,07,
pratique/fcloud80-20_D1.8_30,1.8,2,0,2,2,4,,,,,,,,,,,,,,,,,,,,,,,None,None,,None,26.446,,,,,2019_Jan_19_1602,60.36679709877473,Cloud_Experiment_FR_REAL,001,07,
pratique/fcloud65-35_D1.2_30,1.2,1,0,3,3,3,,,,,,,,,,,,,,,,,,,,,,,1,space,5.58525667322,2,3.017,,,,,2019_Jan_19_1602,60.36679709877473,Cloud_Experiment_FR_REAL,001,07,
pratique/fcloud_D0.8_30,0.8,0,0,4,4,0,,,,,,,,,,,,,,,,,,,,,,,None,None,,None,13.041,,,,,2019_Jan_19_1602,60.36679709877473,Cloud_Experiment_FR_REAL,001,07,
,,,,,,,,,,,,,,,,,,,,,,,,,,,,,,,,,,space,61.098375378,,,2019_Jan_19_1602,60.36679709877473,Cloud_Experiment_FR_REAL,001,07,
images/fcloud_D1.2_3.tif,1.2,0,,,,,0,0,0,14,,,,,,,,,,,,,,,,,,,1,space,7.02969803332,3,4.565,,,,,2019_Jan_19_1602,60.36679709877473,Cloud_Experiment_FR_REAL,001,07,
images/fcloud65-35_D0.8_2.tif,0.8,1,,,,,0,1,1,37,,,,,,,,,,,,,,,,,,,1,None,,1,1.025,,,,,2019_Jan_19_1602,60.36679709877473,Cloud_Experiment_FR_REAL,001,07,
images/fcloud65-35_D1.7_1.tif,1.7,1,,,,,0,2,2,63,,,,,,,,,,,,,,,,,,,1,None,,3,1.919,,,,,2019_Jan_19_1602,60.36679709877473,Cloud_Experiment_FR_REAL,001,07,
images/fcloud_D0.9_3.tif,0.9,0,,,,,0,3,3,5,,,,,,,,,,,,,,,,,,,None,None,,None,11.192,,,,,2019_Jan_19_1602,60.36679709877473,Cloud_Experiment_FR_REAL,001,07,
images/fcloud80-20_D1.9_3.tif,1.9,2,,,,,0,4,4,107,,,,,,,,,,,,,,,,,,,None,None,,None,20.419,,,,,2019_Jan_19_1602,60.36679709877473,Cloud_Experiment_FR_REAL,001,07,
images/fcloud65-35_D1.1_3.tif,1.1,1,,,,,0,5,5,47,,,,,,,,,,,,,,,,,,,1,space,3.3296233924,4,1.552,,,,,2019_Jan_19_1602,60.36679709877473,Cloud_Experiment_FR_REAL,001,07,
images/fcloud_D1.4_3.tif,1.4,0,,,,,0,6,6,20,,,,,,,,,,,,,,,,,,,None,None,,None,10.576,,,,,2019_Jan_19_1602,60.36679709877473,Cloud_Experiment_FR_REAL,001,07,
images/fcloud65-35_D1_1.tif,1.0,1,,,,,0,7,7,42,,,,,,,,,,,,,,,,,,,None,None,,None,21.067,,,,,2019_Jan_19_1602,60.36679709877473,Cloud_Experiment_FR_REAL,001,07,
images/fcloud65-35_D0.9_1.tif,0.9,1,,,,,0,8,8,39,,,,,,,,,,,,,,,,,,,1,space,6.78819768943,1,1.818,,,,,2019_Jan_19_1602,60.36679709877473,Cloud_Experiment_FR_REAL,001,07,
images/fcloud_D1.9_3.tif,1.9,0,,,,,0,9,9,35,,,,,,,,,,,,,,,,,,,None,None,,None,11.243,,,,,2019_Jan_19_1602,60.36679709877473,Cloud_Experiment_FR_REAL,001,07,
images/fcloud80-20_D1.9_1.tif,1.9,2,,,,,0,10,10,105,,,,,,,,,,,,,,,,,,,None,None,,None,20.617,,,,,2019_Jan_19_1602,60.36679709877473,Cloud_Experiment_FR_REAL,001,07,
images/fcloud80-20_D1.2_1.tif,1.2,2,,,,,0,11,11,84,,,,,,,,,,,,,,,,,,,None,None,,None,31.126,,,,,2019_Jan_19_1602,60.36679709877473,Cloud_Experiment_FR_REAL,001,07,
images/fcloud_D0.8_2.tif,0.8,0,,,,,0,12,12,1,,,,,,,,,,,,,,,,,,,None,None,,None,41.866,,,,,2019_Jan_19_1602,60.36679709877473,Cloud_Experiment_FR_REAL,001,07,
images/fcloud80-20_D1.5_1.tif,1.5,2,,,,,0,13,13,93,,,,,,,,,,,,,,,,,,,1,None,,2,0.636,,,,,2019_Jan_19_1602,60.36679709877473,Cloud_Experiment_FR_REAL,001,07,
images/fcloud80-20_D1.8_1.tif,1.8,2,,,,,0,14,14,102,,,,,,,,,,,,,,,,,,,None,None,,None,10.21,,,,,2019_Jan_19_1602,60.36679709877473,Cloud_Experiment_FR_REAL,001,07,
images/fcloud_D1.7_2.tif,1.7,0,,,,,0,15,15,28,,,,,,,,,,,,,,,,,,,1,None,,3,2.067,,,,,2019_Jan_19_1602,60.36679709877473,Cloud_Experiment_FR_REAL,001,07,
images/fcloud65-35_D1.9_3.tif,1.9,1,,,,,0,16,16,71,,,,,,,,,,,,,,,,,,,1,space,7.72561910312,4,3.25,,,,,2019_Jan_19_1602,60.36679709877473,Cloud_Experiment_FR_REAL,001,07,
images/fcloud65-35_D0.9_3.tif,0.9,1,,,,,0,17,17,41,,,,,,,,,,,,,,,,,,,None,None,,None,11.824,,,,,2019_Jan_19_1602,60.36679709877473,Cloud_Experiment_FR_REAL,001,07,
images/fcloud65-35_D1.4_1.tif,1.4,1,,,,,0,18,18,54,,,,,,,,,,,,,,,,,,,2,None,,2,4.518,,,,,2019_Jan_19_1602,60.36679709877473,Cloud_Experiment_FR_REAL,001,07,
images/fcloud65-35_D1.9_1.tif,1.9,1,,,,,0,19,19,69,,,,,,,,,,,,,,,,,,,1,None,,2,1.086,,,,,2019_Jan_19_1602,60.36679709877473,Cloud_Experiment_FR_REAL,001,07,
images/fcloud_D1.4_2.tif,1.4,0,,,,,0,20,20,19,,,,,,,,,,,,,,,,,,,None,None,,None,10.126,,,,,2019_Jan_19_1602,60.36679709877473,Cloud_Experiment_FR_REAL,001,07,
images/fcloud80-20_D1.9_2.tif,1.9,2,,,,,0,21,21,106,,,,,,,,,,,,,,,,,,,None,None,,None,20.449,,,,,2019_Jan_19_1602,60.36679709877473,Cloud_Experiment_FR_REAL,001,07,
images/fcloud_D1.1_1.tif,1.1,0,,,,,0,22,22,9,,,,,,,,,,,,,,,,,,,None,None,,None,30.059,,,,,2019_Jan_19_1602,60.36679709877473,Cloud_Experiment_FR_REAL,001,07,
images/fcloud65-35_D1.8_2.tif,1.8,1,,,,,0,23,23,67,,,,,,,,,,,,,,,,,,,1,None,,1,0.902,,,,,2019_Jan_19_1602,60.36679709877473,Cloud_Experiment_FR_REAL,001,07,
images/fcloud_D1.6_2.tif,1.6,0,,,,,0,24,24,25,,,,,,,,,,,,,,,,,,,1,space,6.29171691561,3,2.416,,,,,2019_Jan_19_1602,60.36679709877473,Cloud_Experiment_FR_REAL,001,07,
images/fcloud65-35_D1.6_2.tif,1.6,1,,,,,0,25,25,61,,,,,,,,,,,,,,,,,,,None,None,,None,13.208,,,,,2019_Jan_19_1602,60.36679709877473,Cloud_Experiment_FR_REAL,001,07,
images/fcloud_D1.5_3.tif,1.5,0,,,,,0,26,26,23,,,,,,,,,,,,,,,,,,,1,None,,3,3.666,,,,,2019_Jan_19_1602,60.36679709877473,Cloud_Experiment_FR_REAL,001,07,
images/fcloud_D1.9_2.tif,1.9,0,,,,,0,27,27,34,,,,,,,,,,,,,,,,,,,1,None,,2,1.885,,,,,2019_Jan_19_1602,60.36679709877473,Cloud_Experiment_FR_REAL,001,07,
images/fcloud_D1_3.tif,1.0,0,,,,,0,28,28,8,,,,,,,,,,,,,,,,,,,2,None,,1,1.019,,,,,2019_Jan_19_1602,60.36679709877473,Cloud_Experiment_FR_REAL,001,07,
images/fcloud65-35_D1.5_1.tif,1.5,1,,,,,0,29,29,57,,,,,,,,,,,,,,,,,,,None,None,,None,9.793,,,,,2019_Jan_19_1602,60.36679709877473,Cloud_Experiment_FR_REAL,001,07,
images/fcloud65-35_D1.2_2.tif,1.2,1,,,,,0,30,30,49,,,,,,,,,,,,,,,,,,,None,None,,None,19.801,,,,,2019_Jan_19_1602,60.36679709877473,Cloud_Experiment_FR_REAL,001,07,
images/fcloud65-35_D1.2_1.tif,1.2,1,,,,,0,31,31,48,,,,,,,,,,,,,,,,,,,None,None,,None,29.758,,,,,2019_Jan_19_1602,60.36679709877473,Cloud_Experiment_FR_REAL,001,07,
images/fcloud_D0.9_2.tif,0.9,0,,,,,0,32,32,4,,,,,,,,,,,,,,,,,,,None,None,,None,39.667,,,,,2019_Jan_19_1602,60.36679709877473,Cloud_Experiment_FR_REAL,001,07,
images/fcloud65-35_D1_2.tif,1.0,1,,,,,0,33,33,43,,,,,,,,,,,,,,,,,,,1,None,,1,1.368,,,,,2019_Jan_19_1602,60.36679709877473,Cloud_Experiment_FR_REAL,001,07,
images/fcloud_D0.8_3.tif,0.8,0,,,,,0,34,34,2,,,,,,,,,,,,,,,,,,,2,space,5.96955658574,5,3.068,,,,,2019_Jan_19_1602,60.36679709877473,Cloud_Experiment_FR_REAL,001,07,
images/fcloud_D1_1.tif,1.0,0,,,,,0,35,35,6,,,,,,,,,,,,,,,,,,,2,None,,3,1.802,,,,,2019_Jan_19_1602,60.36679709877473,Cloud_Experiment_FR_REAL,001,07,
images/fcloud65-35_D1.8_1.tif,1.8,1,,,,,0,36,36,66,,,,,,,,,,,,,,,,,,,1,None,,1,0.836,,,,,2019_Jan_19_1602,60.36679709877473,Cloud_Experiment_FR_REAL,001,07,
images/fcloud80-20_D0.9_1.tif,0.9,2,,,,,0,37,37,75,,,,,,,,,,,,,,,,,,,None,None,,None,9.427,,,,,2019_Jan_19_1602,60.36679709877473,Cloud_Experiment_FR_REAL,001,07,
images/fcloud_D1.5_1.tif,1.5,0,,,,,0,38,38,21,,,,,,,,,,,,,,,,,,,None,None,,None,19.685,,,,,2019_Jan_19_1602,60.36679709877473,Cloud_Experiment_FR_REAL,001,07,
images/fcloud80-20_D1.3_2.tif,1.3,2,,,,,0,39,39,88,,,,,,,,,,,,,,,,,,,1,space,6.73779297326,4,1.102,,,,,2019_Jan_19_1602,60.36679709877473,Cloud_Experiment_FR_REAL,001,07,
images/fcloud65-35_D1.3_2.tif,1.3,1,,,,,0,40,40,52,,,,,,,,,,,,,,,,,,,None,space,9.23008984668,None,11.441,,,,,2019_Jan_19_1602,60.36679709877473,Cloud_Experiment_FR_REAL,001,07,
images/fcloud80-20_D1.5_3.tif,1.5,2,,,,,0,41,41,95,,,,,,,,,,,,,,,,,,,None,None,,None,21.048,,,,,2019_Jan_19_1602,60.36679709877473,Cloud_Experiment_FR_REAL,001,07,
images/fcloud80-20_D0.8_2.tif,0.8,2,,,,,0,42,42,73,,,,,,,,,,,,,,,,,,,None,None,,None,30.277,,,,,2019_Jan_19_1602,60.36679709877473,Cloud_Experiment_FR_REAL,001,07,
images/fcloud65-35_D1.2_3.tif,1.2,1,,,,,0,43,43,50,,,,,,,,,,,,,,,,,,,1,space,6.25285326687,4,1.885,,,,,2019_Jan_19_1602,60.36679709877473,Cloud_Experiment_FR_REAL,001,07,
images/fcloud_D1.8_3.tif,1.8,0,,,,,0,44,44,32,,,,,,,,,,,,,,,,,,,1,None,,4,2.085,,,,,2019_Jan_19_1602,60.36679709877473,Cloud_Experiment_FR_REAL,001,07,
images/fcloud_D1.8_1.tif,1.8,0,,,,,0,45,45,30,,,,,,,,,,,,,,,,,,,None,None,,None,13.174,,,,,2019_Jan_19_1602,60.36679709877473,Cloud_Experiment_FR_REAL,001,07,
images/fcloud65-35_D1.9_2.tif,1.9,1,,,,,0,46,46,70,,,,,,,,,,,,,,,,,,,None,None,,None,22.316,,,,,2019_Jan_19_1602,60.36679709877473,Cloud_Experiment_FR_REAL,001,07,
images/fcloud65-35_D1.7_3.tif,1.7,1,,,,,0,47,47,65,,,,,,,,,,,,,,,,,,,None,None,,None,31.693,,,,,2019_Jan_19_1602,60.36679709877473,Cloud_Experiment_FR_REAL,001,07,
images/fcloud65-35_D1.1_2.tif,1.1,1,,,,,0,48,48,46,,,,,,,,,,,,,,,,,,,1,None,,1,1.4,,,,,2019_Jan_19_1602,60.36679709877473,Cloud_Experiment_FR_REAL,001,07,
images/fcloud80-20_D1_1.tif,1.0,2,,,,,0,49,49,78,,,,,,,,,,,,,,,,,,,None,None,,None,9.926,,,,,2019_Jan_19_1602,60.36679709877473,Cloud_Experiment_FR_REAL,001,07,
images/fcloud80-20_D1.5_2.tif,1.5,2,,,,,0,50,50,94,,,,,,,,,,,,,,,,,,,2,space,7.16250384258,3,3.95,,,,,2019_Jan_19_1602,60.36679709877473,Cloud_Experiment_FR_REAL,001,07,
images/fcloud80-20_D1_3.tif,1.0,2,,,,,0,51,51,80,,,,,,,,,,,,,,,,,,,None,None,,None,15.97,,,,,2019_Jan_19_1602,60.36679709877473,Cloud_Experiment_FR_REAL,001,07,
images/fcloud_D1.3_1.tif,1.3,0,,,,,0,52,52,15,,,,,,,,,,,,,,,,,,,1,None,,2,0.669,,,,,2019_Jan_19_1602,60.36679709877473,Cloud_Experiment_FR_REAL,001,07,
images/fcloud80-20_D1.6_1.tif,1.6,2,,,,,0,53,53,96,,,,,,,,,,,,,,,,,,,None,None,,None,10.009,,,,,2019_Jan_19_1602,60.36679709877473,Cloud_Experiment_FR_REAL,001,07,
images/fcloud65-35_D1.3_3.tif,1.3,1,,,,,0,54,54,53,,,,,,,,,,,,,,,,,,,None,None,,None,19.668,,,,,2019_Jan_19_1602,60.36679709877473,Cloud_Experiment_FR_REAL,001,07,
images/fcloud80-20_D1.7_3.tif,1.7,2,,,,,0,55,55,101,,,,,,,,,,,,,,,,,,,None,None,,None,28.775,,,,,2019_Jan_19_1602,60.36679709877473,Cloud_Experiment_FR_REAL,001,07,
images/fcloud80-20_D0.9_3.tif,0.9,2,,,,,0,56,56,77,,,,,,,,,,,,,,,,,,,1,None,,4,10.761,,,,,2019_Jan_19_1602,60.36679709877473,Cloud_Experiment_FR_REAL,001,07,
images/fcloud_D1.2_2.tif,1.2,0,,,,,0,57,57,13,,,,,,,,,,,,,,,,,,,1,None,,2,0.652,,,,,2019_Jan_19_1602,60.36679709877473,Cloud_Experiment_FR_REAL,001,07,
images/fcloud65-35_D1.4_2.tif,1.4,1,,,,,0,58,58,55,,,,,,,,,,,,,,,,,,,None,None,,None,9.859,,,,,2019_Jan_19_1602,60.36679709877473,Cloud_Experiment_FR_REAL,001,07,
images/fcloud80-20_D1.4_3.tif,1.4,2,,,,,0,59,59,92,,,,,,,,,,,,,,,,,,,1,None,,1,0.602,,,,,2019_Jan_19_1602,60.36679709877473,Cloud_Experiment_FR_REAL,001,07,
images/fcloud65-35_D1.4_3.tif,1.4,1,,,,,0,60,60,56,,,,,,,,,,,,,,,,,,,2,None,,2,0.952,,,,,2019_Jan_19_1602,60.36679709877473,Cloud_Experiment_FR_REAL,001,07,
images/fcloud65-35_D1.6_1.tif,1.6,1,,,,,0,61,61,60,,,,,,,,,,,,,,,,,,,1,None,,1,3.3,,,,,2019_Jan_19_1602,60.36679709877473,Cloud_Experiment_FR_REAL,001,07,
images/fcloud_D1.3_2.tif,1.3,0,,,,,0,62,62,16,,,,,,,,,,,,,,,,,,,1,space,3.91971321852,5,1.435,,,,,2019_Jan_19_1602,60.36679709877473,Cloud_Experiment_FR_REAL,001,07,
images/fcloud65-35_D1.3_1.tif,1.3,1,,,,,0,63,63,51,,,,,,,,,,,,,,,,,,,1,None,,1,0.568,,,,,2019_Jan_19_1602,60.36679709877473,Cloud_Experiment_FR_REAL,001,07,
images/fcloud_D1_2.tif,1.0,0,,,,,0,64,64,7,,,,,,,,,,,,,,,,,,,1,None,,1,0.652,,,,,2019_Jan_19_1602,60.36679709877473,Cloud_Experiment_FR_REAL,001,07,
images/fcloud_D1.7_1.tif,1.7,0,,,,,0,65,65,27,,,,,,,,,,,,,,,,,,,None,None,,None,11.391,,,,,2019_Jan_19_1602,60.36679709877473,Cloud_Experiment_FR_REAL,001,07,
images/fcloud_D0.9_1.tif,0.9,0,,,,,0,66,66,3,,,,,,,,,,,,,,,,,,,1,None,,3,6.281,,,,,2019_Jan_19_1602,60.36679709877473,Cloud_Experiment_FR_REAL,001,07,
images/fcloud_D1.9_1.tif,1.9,0,,,,,0,67,67,33,,,,,,,,,,,,,,,,,,,1,space,8.08651405378,3,1.75,,,,,2019_Jan_19_1602,60.36679709877473,Cloud_Experiment_FR_REAL,001,07,
images/fcloud80-20_D1.7_2.tif,1.7,2,,,,,0,68,68,100,,,,,,,,,,,,,,,,,,,2,None,,2,2.251,,,,,2019_Jan_19_1602,60.36679709877473,Cloud_Experiment_FR_REAL,001,07,
images/fcloud_D1.8_2.tif,1.8,0,,,,,0,69,69,31,,,,,,,,,,,,,,,,,,,2,None,,3,1.785,,,,,2019_Jan_19_1602,60.36679709877473,Cloud_Experiment_FR_REAL,001,07,
images/fcloud_D1.4_1.tif,1.4,0,,,,,0,70,70,18,,,,,,,,,,,,,,,,,,,2,space,2.26058209626,5,7.131,,,,,2019_Jan_19_1602,60.36679709877473,Cloud_Experiment_FR_REAL,001,07,
images/fcloud_D1.3_3.tif,1.3,0,,,,,0,71,71,17,,,,,,,,,,,,,,,,,,,1,None,,2,0.936,,,,,2019_Jan_19_1602,60.36679709877473,Cloud_Experiment_FR_REAL,001,07,
images/fcloud80-20_D1.6_3.tif,1.6,2,,,,,0,72,72,98,,,,,,,,,,,,,,,,,,,None,None,,None,10.975,,,,,2019_Jan_19_1602,60.36679709877473,Cloud_Experiment_FR_REAL,001,07,
images/fcloud80-20_D1.7_1.tif,1.7,2,,,,,0,73,73,99,,,,,,,,,,,,,,,,,,,None,None,,None,20.084,,,,,2019_Jan_19_1602,60.36679709877473,Cloud_Experiment_FR_REAL,001,07,
images/fcloud65-35_D1.8_3.tif,1.8,1,,,,,0,74,74,68,,,,,,,,,,,,,,,,,,,None,None,,None,29.842,,,,,2019_Jan_19_1602,60.36679709877473,Cloud_Experiment_FR_REAL,001,07,
images/fcloud65-35_D1.7_2.tif,1.7,1,,,,,0,75,75,64,,,,,,,,,,,,,,,,,,,3,space,2.42543260369,4,1.418,,,,,2019_Jan_19_1602,60.36679709877473,Cloud_Experiment_FR_REAL,001,07,
images/fcloud_D1.7_3.tif,1.7,0,,,,,0,76,76,29,,,,,,,,,,,,,,,,,,,1,None,,4,2.151,,,,,2019_Jan_19_1602,60.36679709877473,Cloud_Experiment_FR_REAL,001,07,
images/fcloud65-35_D1_3.tif,1.0,1,,,,,0,77,77,44,,,,,,,,,,,,,,,,,,,1,space,3.52184840082,4,1.552,,,,,2019_Jan_19_1602,60.36679709877473,Cloud_Experiment_FR_REAL,001,07,
images/fcloud80-20_D1.1_2.tif,1.1,2,,,,,0,78,78,82,,,,,,,,,,,,,,,,,,,None,space,8.27507435816,None,11.84,,,,,2019_Jan_19_1602,60.36679709877473,Cloud_Experiment_FR_REAL,001,07,
images/fcloud_D0.8_1.tif,0.8,0,,,,,0,79,79,0,,,,,,,,,,,,,,,,,,,None,None,,None,22.236,,,,,2019_Jan_19_1602,60.36679709877473,Cloud_Experiment_FR_REAL,001,07,
images/fcloud65-35_D0.9_2.tif,0.9,1,,,,,0,80,80,40,,,,,,,,,,,,,,,,,,,2,space,6.36457096387,3,1.602,,,,,2019_Jan_19_1602,60.36679709877473,Cloud_Experiment_FR_REAL,001,07,
images/fcloud65-35_D0.8_3.tif,0.8,1,,,,,0,81,81,38,,,,,,,,,,,,,,,,,,,2,space,7.68875461753,2,2.8,,,,,2019_Jan_19_1602,60.36679709877473,Cloud_Experiment_FR_REAL,001,07,
images/fcloud_D1.5_2.tif,1.5,0,,,,,0,82,82,22,,,,,,,,,,,,,,,,,,,None,None,,None,12.04,,,,,2019_Jan_19_1602,60.36679709877473,Cloud_Experiment_FR_REAL,001,07,
images/fcloud65-35_D0.8_1.tif,0.8,1,,,,,0,83,83,36,,,,,,,,,,,,,,,,,,,2,None,,2,1.819,,,,,2019_Jan_19_1602,60.36679709877473,Cloud_Experiment_FR_REAL,001,07,
images/fcloud65-35_D1.6_3.tif,1.6,1,,,,,0,84,84,62,,,,,,,,,,,,,,,,,,,2,space,4.84926957806,3,1.651,,,,,2019_Jan_19_1602,60.36679709877473,Cloud_Experiment_FR_REAL,001,07,
images/fcloud80-20_D1.8_2.tif,1.8,2,,,,,0,85,85,103,,,,,,,,,,,,,,,,,,,1,space,4.64191128014,2,1.302,,,,,2019_Jan_19_1602,60.36679709877473,Cloud_Experiment_FR_REAL,001,07,
images/fcloud65-35_D1.5_3.tif,1.5,1,,,,,0,86,86,59,,,,,,,,,,,,,,,,,,,1,None,,1,0.752,,,,,2019_Jan_19_1602,60.36679709877473,Cloud_Experiment_FR_REAL,001,07,
images/fcloud80-20_D1.8_3.tif,1.8,2,,,,,0,87,87,104,,,,,,,,,,,,,,,,,,,1,None,,2,0.636,,,,,2019_Jan_19_1602,60.36679709877473,Cloud_Experiment_FR_REAL,001,07,
images/fcloud_D1.1_2.tif,1.1,0,,,,,0,88,88,10,,,,,,,,,,,,,,,,,,,None,None,,None,12.489,,,,,2019_Jan_19_1602,60.36679709877473,Cloud_Experiment_FR_REAL,001,07,
images/fcloud80-20_D1.6_2.tif,1.6,2,,,,,0,89,89,97,,,,,,,,,,,,,,,,,,,1,None,,1,1.234,,,,,2019_Jan_19_1602,60.36679709877473,Cloud_Experiment_FR_REAL,001,07,
images/fcloud_D1.6_3.tif,1.6,0,,,,,0,90,90,26,,,,,,,,,,,,,,,,,,,None,None,,None,10.644,,,,,2019_Jan_19_1602,60.36679709877473,Cloud_Experiment_FR_REAL,001,07,
images/fcloud80-20_D1.1_1.tif,1.1,2,,,,,0,91,91,81,,,,,,,,,,,,,,,,,,,1,space,10.1061119182,1,1.203,,,,,2019_Jan_19_1602,60.36679709877473,Cloud_Experiment_FR_REAL,001,07,
images/fcloud65-35_D1.5_2.tif,1.5,1,,,,,0,92,92,58,,,,,,,,,,,,,,,,,,,None,None,,None,11.358,,,,,2019_Jan_19_1602,60.36679709877473,Cloud_Experiment_FR_REAL,001,07,
images/fcloud80-20_D1.3_3.tif,1.3,2,,,,,0,93,93,89,,,,,,,,,,,,,,,,,,,2,None,,1,0.704,,,,,2019_Jan_19_1602,60.36679709877473,Cloud_Experiment_FR_REAL,001,07,
images/fcloud80-20_D1.2_2.tif,1.2,2,,,,,0,94,94,85,,,,,,,,,,,,,,,,,,,2,space,6.43649816944,2,1.302,,,,,2019_Jan_19_1602,60.36679709877473,Cloud_Experiment_FR_REAL,001,07,
images/fcloud80-20_D1_2.tif,1.0,2,,,,,0,95,95,79,,,,,,,,,,,,,,,,,,,2,space,5.15347753628,3,1.219,,,,,2019_Jan_19_1602,60.36679709877473,Cloud_Experiment_FR_REAL,001,07,
images/fcloud80-20_D0.8_3.tif,0.8,2,,,,,0,96,96,74,,,,,,,,,,,,,,,,,,,None,space,8.65250854101,None,11.124,,,,,2019_Jan_19_1602,60.36679709877473,Cloud_Experiment_FR_REAL,001,07,
images/fcloud80-20_D0.9_2.tif,0.9,2,,,,,0,97,97,76,,,,,,,,,,,,,,,,,,,2,space,6.94445112717,3,1.603,,,,,2019_Jan_19_1602,60.36679709877473,Cloud_Experiment_FR_REAL,001,07,
images/fcloud80-20_D1.4_1.tif,1.4,2,,,,,0,98,98,90,,,,,,,,,,,,,,,,,,,None,None,,None,11.026,,,,,2019_Jan_19_1602,60.36679709877473,Cloud_Experiment_FR_REAL,001,07,
images/fcloud80-20_D1.1_3.tif,1.1,2,,,,,0,99,99,83,,,,,,,,,,,,,,,,,,,1,space,4.64485424975,3,1.168,,,,,2019_Jan_19_1602,60.36679709877473,Cloud_Experiment_FR_REAL,001,07,
images/fcloud80-20_D1.4_2.tif,1.4,2,,,,,0,100,100,91,,,,,,,,,,,,,,,,,,,None,None,,None,10.242,,,,,2019_Jan_19_1602,60.36679709877473,Cloud_Experiment_FR_REAL,001,07,
images/fcloud_D1.1_3.tif,1.1,0,,,,,0,101,101,11,,,,,,,,,,,,,,,,,,,None,None,,None,21.348,,,,,2019_Jan_19_1602,60.36679709877473,Cloud_Experiment_FR_REAL,001,07,
images/fcloud80-20_D0.8_1.tif,0.8,2,,,,,0,102,102,72,,,,,,,,,,,,,,,,,,,1,space,6.66630836975,3,2.719,,,,,2019_Jan_19_1602,60.36679709877473,Cloud_Experiment_FR_REAL,001,07,
images/fcloud_D1.2_1.tif,1.2,0,,,,,0,103,103,12,,,,,,,,,,,,,,,,,,,None,None,,None,12.426,,,,,2019_Jan_19_1602,60.36679709877473,Cloud_Experiment_FR_REAL,001,07,
images/fcloud65-35_D1.1_1.tif,1.1,1,,,,,0,104,104,45,,,,,,,,,,,,,,,,,,,None,None,,None,21.234,,,,,2019_Jan_19_1602,60.36679709877473,Cloud_Experiment_FR_REAL,001,07,
images/fcloud80-20_D1.2_3.tif,1.2,2,,,,,0,105,105,86,,,,,,,,,,,,,,,,,,,1,None,,1,0.536,,,,,2019_Jan_19_1602,60.36679709877473,Cloud_Experiment_FR_REAL,001,07,
images/fcloud_D1.6_1.tif,1.6,0,,,,,0,106,106,24,,,,,,,,,,,,,,,,,,,1,space,2.99200900213,4,2.55,,,,,2019_Jan_19_1602,60.36679709877473,Cloud_Experiment_FR_REAL,001,07,
images/fcloud80-20_D1.3_1.tif,1.3,2,,,,,0,107,107,87,,,,,,,,,,,,,,,,,,,1,None,,1,1.868,,,,,2019_Jan_19_1602,60.36679709877473,Cloud_Experiment_FR_REAL,001,07,
,,,,,,,,,,,,,,,,,,,,,,,,,9,134.669,,,,,,,,,,,,2019_Jan_19_1602,60.36679709877473,Cloud_Experiment_FR_REAL,001,07,
,,,,,,,,,,,,,,,,,,,,,,,,,,,,,,,,,,,,space,3.54889287797,2019_Jan_19_1602,60.36679709877473,Cloud_Experiment_FR_REAL,001,07,
images/fcloud80-20_D1_5.tif,1.0,2,,,,,,,,,0,0,0,79,,,,,,,,,,,,,,,2,None,,2,2.067,,,,,2019_Jan_19_1602,60.36679709877473,Cloud_Experiment_FR_REAL,001,07,
images/fcloud65-35_D1.3_4.tif,1.3,1,,,,,,,,,0,1,1,51,,,,,,,,,,,,,,,1,None,,1,0.602,,,,,2019_Jan_19_1602,60.36679709877473,Cloud_Experiment_FR_REAL,001,07,
images/fcloud_D1_6.tif,1.0,0,,,,,,,,,0,2,2,8,,,,,,,,,,,,,,,1,None,,1,0.519,,,,,2019_Jan_19_1602,60.36679709877473,Cloud_Experiment_FR_REAL,001,07,
images/fcloud65-35_D1.2_5.tif,1.2,1,,,,,,,,,0,3,3,49,,,,,,,,,,,,,,,None,None,,None,9.894,,,,,2019_Jan_19_1602,60.36679709877473,Cloud_Experiment_FR_REAL,001,07,
images/fcloud65-35_D1.7_5.tif,1.7,1,,,,,,,,,0,4,4,64,,,,,,,,,,,,,,,1,None,,2,0.536,,,,,2019_Jan_19_1602,60.36679709877473,Cloud_Experiment_FR_REAL,001,07,
images/fcloud80-20_D1.7_4.tif,1.7,2,,,,,,,,,0,5,5,99,,,,,,,,,,,,,,,None,None,,None,9.778,,,,,2019_Jan_19_1602,60.36679709877473,Cloud_Experiment_FR_REAL,001,07,
images/fcloud_D1.3_6.tif,1.3,0,,,,,,,,,0,6,6,17,,,,,,,,,,,,,,,None,None,,None,18.969,,,,,2019_Jan_19_1602,60.36679709877473,Cloud_Experiment_FR_REAL,001,07,
images/fcloud_D1.8_6.tif,1.8,0,,,,,,,,,0,7,7,32,,,,,,,,,,,,,,,2,None,,3,1.419,,,,,2019_Jan_19_1602,60.36679709877473,Cloud_Experiment_FR_REAL,001,07,
images/fcloud65-35_D1.9_4.tif,1.9,1,,,,,,,,,0,8,8,69,,,,,,,,,,,,,,,1,space,7.00973570335,1,0.953,,,,,2019_Jan_19_1602,60.36679709877473,Cloud_Experiment_FR_REAL,001,07,
images/fcloud_D1.5_4.tif,1.5,0,,,,,,,,,0,9,9,21,,,,,,,,,,,,,,,2,space,5.51187520369,4,2.967,,,,,2019_Jan_19_1602,60.36679709877473,Cloud_Experiment_FR_REAL,001,07,
images/fcloud80-20_D1.9_5.tif,1.9,2,,,,,,,,,0,10,10,106,,,,,,,,,,,,,,,1,space,7.07895229253,2,0.736,,,,,2019_Jan_19_1602,60.36679709877473,Cloud_Experiment_FR_REAL,001,07,
images/fcloud_D0.8_4.tif,0.8,0,,,,,,,,,0,11,11,0,,,,,,,,,,,,,,,1,None,,3,1.137,,,,,2019_Jan_19_1602,60.36679709877473,Cloud_Experiment_FR_REAL,001,07,
images/fcloud80-20_D1.7_5.tif,1.7,2,,,,,,,,,0,12,12,100,,,,,,,,,,,,,,,1,None,,1,2.551,,,,,2019_Jan_19_1602,60.36679709877473,Cloud_Experiment_FR_REAL,001,07,
images/fcloud_D1.6_6.tif,1.6,0,,,,,,,,,0,13,13,26,,,,,,,,,,,,,,,1,None,,3,1.217,,,,,2019_Jan_19_1602,60.36679709877473,Cloud_Experiment_FR_REAL,001,07,
images/fcloud80-20_D1.3_4.tif,1.3,2,,,,,,,,,0,14,14,87,,,,,,,,,,,,,,,None,None,,None,10.076,,,,,2019_Jan_19_1602,60.36679709877473,Cloud_Experiment_FR_REAL,001,07,
images/fcloud_D0.9_6.tif,0.9,0,,,,,,,,,0,15,15,5,,,,,,,,,,,,,,,1,None,,1,0.885,,,,,2019_Jan_19_1602,60.36679709877473,Cloud_Experiment_FR_REAL,001,07,
images/fcloud80-20_D1.4_5.tif,1.4,2,,,,,,,,,0,16,16,91,,,,,,,,,,,,,,,1,space,5.49779521456,2,0.519,,,,,2019_Jan_19_1602,60.36679709877473,Cloud_Experiment_FR_REAL,001,07,
images/fcloud80-20_D1.1_6.tif,1.1,2,,,,,,,,,0,17,17,83,,,,,,,,,,,,,,,None,None,,None,9.593,,,,,2019_Jan_19_1602,60.36679709877473,Cloud_Experiment_FR_REAL,001,07,
images/fcloud65-35_D1.8_6.tif,1.8,1,,,,,,,,,0,18,18,68,,,,,,,,,,,,,,,3,None,,2,0.769,,,,,2019_Jan_19_1602,60.36679709877473,Cloud_Experiment_FR_REAL,001,07,
images/fcloud80-20_D1.9_6.tif,1.9,2,,,,,,,,,0,19,19,107,,,,,,,,,,,,,,,None,None,,None,11.21,,,,,2019_Jan_19_1602,60.36679709877473,Cloud_Experiment_FR_REAL,001,07,
images/fcloud65-35_D1.6_4.tif,1.6,1,,,,,,,,,0,20,20,60,,,,,,,,,,,,,,,1,space,6.66034840647,4,2.119,,,,,2019_Jan_19_1602,60.36679709877473,Cloud_Experiment_FR_REAL,001,07,
images/fcloud_D1.9_6.tif,1.9,0,,,,,,,,,0,21,21,35,,,,,,,,,,,,,,,2,None,,3,1.352,,,,,2019_Jan_19_1602,60.36679709877473,Cloud_Experiment_FR_REAL,001,07,
images/fcloud80-20_D1.8_5.tif,1.8,2,,,,,,,,,0,22,22,103,,,,,,,,,,,,,,,1,None,,2,0.985,,,,,2019_Jan_19_1602,60.36679709877473,Cloud_Experiment_FR_REAL,001,07,
images/fcloud_D0.8_5.tif,0.8,0,,,,,,,,,0,23,23,1,,,,,,,,,,,,,,,1,None,,3,2.35,,,,,2019_Jan_19_1602,60.36679709877473,Cloud_Experiment_FR_REAL,001,07,
images/fcloud_D1.8_5.tif,1.8,0,,,,,,,,,0,24,24,31,,,,,,,,,,,,,,,2,None,,3,1.234,,,,,2019_Jan_19_1602,60.36679709877473,Cloud_Experiment_FR_REAL,001,07,
images/fcloud80-20_D1.8_6.tif,1.8,2,,,,,,,,,0,25,25,104,,,,,,,,,,,,,,,2,None,,2,1.468,,,,,2019_Jan_19_1602,60.36679709877473,Cloud_Experiment_FR_REAL,001,07,
images/fcloud65-35_D1.5_5.tif,1.5,1,,,,,,,,,0,26,26,58,,,,,,,,,,,,,,,1,space,5.53380225506,2,1.019,,,,,2019_Jan_19_1602,60.36679709877473,Cloud_Experiment_FR_REAL,001,07,
images/fcloud80-20_D1.7_6.tif,1.7,2,,,,,,,,,0,27,27,101,,,,,,,,,,,,,,,1,None,,1,1.318,,,,,2019_Jan_19_1602,60.36679709877473,Cloud_Experiment_FR_REAL,001,07,
images/fcloud_D1.2_5.tif,1.2,0,,,,,,,,,0,28,28,13,,,,,,,,,,,,,,,2,None,,2,1.803,,,,,2019_Jan_19_1602,60.36679709877473,Cloud_Experiment_FR_REAL,001,07,
images/fcloud_D1.5_5.tif,1.5,0,,,,,,,,,0,29,29,22,,,,,,,,,,,,,,,1,None,,2,1.136,,,,,2019_Jan_19_1602,60.36679709877473,Cloud_Experiment_FR_REAL,001,07,
images/fcloud65-35_D1.5_6.tif,1.5,1,,,,,,,,,0,30,30,59,,,,,,,,,,,,,,,None,None,,None,10.193,,,,,2019_Jan_19_1602,60.36679709877473,Cloud_Experiment_FR_REAL,001,07,
images/fcloud80-20_D1.3_6.tif,1.3,2,,,,,,,,,0,31,31,89,,,,,,,,,,,,,,,None,None,,None,19.284,,,,,2019_Jan_19_1602,60.36679709877473,Cloud_Experiment_FR_REAL,001,07,
images/fcloud65-35_D1.4_6.tif,1.4,1,,,,,,,,,0,32,32,56,,,,,,,,,,,,,,,1,None,,3,1.835,,,,,2019_Jan_19_1602,60.36679709877473,Cloud_Experiment_FR_REAL,001,07,
images/fcloud80-20_D0.9_5.tif,0.9,2,,,,,,,,,0,33,33,76,,,,,,,,,,,,,,,1,space,5.78569783591,3,1.201,,,,,2019_Jan_19_1602,60.36679709877473,Cloud_Experiment_FR_REAL,001,07,
images/fcloud65-35_D0.9_5.tif,0.9,1,,,,,,,,,0,34,34,40,,,,,,,,,,,,,,,None,None,,None,12.174,,,,,2019_Jan_19_1602,60.36679709877473,Cloud_Experiment_FR_REAL,001,07,
images/fcloud80-20_D1.4_6.tif,1.4,2,,,,,,,,,0,35,35,92,,,,,,,,,,,,,,,None,None,,None,23.68,,,,,2019_Jan_19_1602,60.36679709877473,Cloud_Experiment_FR_REAL,001,07,
images/fcloud80-20_D0.9_6.tif,0.9,2,,,,,,,,,0,36,36,77,,,,,,,,,,,,,,,None,None,,None,32.459,,,,,2019_Jan_19_1602,60.36679709877473,Cloud_Experiment_FR_REAL,001,07,
images/fcloud65-35_D1_5.tif,1.0,1,,,,,,,,,0,37,37,43,,,,,,,,,,,,,,,1,None,,3,0.819,,,,,2019_Jan_19_1602,60.36679709877473,Cloud_Experiment_FR_REAL,001,07,
images/fcloud80-20_D0.8_5.tif,0.8,2,,,,,,,,,0,38,38,73,,,,,,,,,,,,,,,2,space,7.5919825797,2,0.586,,,,,2019_Jan_19_1602,60.36679709877473,Cloud_Experiment_FR_REAL,001,07,
images/fcloud65-35_D1.1_4.tif,1.1,1,,,,,,,,,0,39,39,45,,,,,,,,,,,,,,,1,space,6.14764711505,3,0.819,,,,,2019_Jan_19_1602,60.36679709877473,Cloud_Experiment_FR_REAL,001,07,
images/fcloud_D1.3_4.tif,1.3,0,,,,,,,,,0,40,40,15,,,,,,,,,,,,,,,1,None,,3,1.552,,,,,2019_Jan_19_1602,60.36679709877473,Cloud_Experiment_FR_REAL,001,07,
images/fcloud_D1.7_6.tif,1.7,0,,,,,,,,,0,41,41,29,,,,,,,,,,,,,,,None,None,,None,10.777,,,,,2019_Jan_19_1602,60.36679709877473,Cloud_Experiment_FR_REAL,001,07,
images/fcloud_D1.2_6.tif,1.2,0,,,,,,,,,0,42,42,14,,,,,,,,,,,,,,,None,None,,None,20.101,,,,,2019_Jan_19_1602,60.36679709877473,Cloud_Experiment_FR_REAL,001,07,
images/fcloud80-20_D1.2_4.tif,1.2,2,,,,,,,,,0,43,43,84,,,,,,,,,,,,,,,1,None,,2,0.719,,,,,2019_Jan_19_1602,60.36679709877473,Cloud_Experiment_FR_REAL,001,07,
images/fcloud_D1_4.tif,1.0,0,,,,,,,,,0,44,44,6,,,,,,,,,,,,,,,1,None,,1,1.602,,,,,2019_Jan_19_1602,60.36679709877473,Cloud_Experiment_FR_REAL,001,07,
images/fcloud65-35_D1.2_6.tif,1.2,1,,,,,,,,,0,45,45,50,,,,,,,,,,,,,,,1,None,,2,0.604,,,,,2019_Jan_19_1602,60.36679709877473,Cloud_Experiment_FR_REAL,001,07,
images/fcloud_D0.9_5.tif,0.9,0,,,,,,,,,0,46,46,4,,,,,,,,,,,,,,,1,space,7.92220793146,2,3.035,,,,,2019_Jan_19_1602,60.36679709877473,Cloud_Experiment_FR_REAL,001,07,
images/fcloud65-35_D1.1_6.tif,1.1,1,,,,,,,,,0,47,47,47,,,,,,,,,,,,,,,None,None,,None,12.025,,,,,2019_Jan_19_1602,60.36679709877473,Cloud_Experiment_FR_REAL,001,07,
images/fcloud_D0.8_6.tif,0.8,0,,,,,,,,,0,48,48,2,,,,,,,,,,,,,,,1,space,4.33994152103,2,1.169,,,,,2019_Jan_19_1602,60.36679709877473,Cloud_Experiment_FR_REAL,001,07,
images/fcloud_D1.6_5.tif,1.6,0,,,,,,,,,0,49,49,25,,,,,,,,,,,,,,,3,None,,1,1.335,,,,,2019_Jan_19_1602,60.36679709877473,Cloud_Experiment_FR_REAL,001,07,
images/fcloud80-20_D1_6.tif,1.0,2,,,,,,,,,0,50,50,80,,,,,,,,,,,,,,,1,space,4.42558990477,3,1.119,,,,,2019_Jan_19_1602,60.36679709877473,Cloud_Experiment_FR_REAL,001,07,
images/fcloud80-20_D1.6_5.tif,1.6,2,,,,,,,,,0,51,51,97,,,,,,,,,,,,,,,None,None,,None,10.075,,,,,2019_Jan_19_1602,60.36679709877473,Cloud_Experiment_FR_REAL,001,07,
images/fcloud80-20_D1.6_6.tif,1.6,2,,,,,,,,,0,52,52,98,,,,,,,,,,,,,,,None,None,,None,18.986,,,,,2019_Jan_19_1602,60.36679709877473,Cloud_Experiment_FR_REAL,001,07,
images/fcloud65-35_D1.6_5.tif,1.6,1,,,,,,,,,0,53,53,61,,,,,,,,,,,,,,,3,space,3.024999049,4,6.614,,,,,2019_Jan_19_1602,60.36679709877473,Cloud_Experiment_FR_REAL,001,07,
images/fcloud65-35_D1.4_4.tif,1.4,1,,,,,,,,,0,54,54,54,,,,,,,,,,,,,,,None,None,,None,15.771,,,,,2019_Jan_19_1602,60.36679709877473,Cloud_Experiment_FR_REAL,001,07,
images/fcloud65-35_D1_6.tif,1.0,1,,,,,,,,,0,55,55,44,,,,,,,,,,,,,,,1,None,,1,1.285,,,,,2019_Jan_19_1602,60.36679709877473,Cloud_Experiment_FR_REAL,001,07,
images/fcloud_D1.1_6.tif,1.1,0,,,,,,,,,0,56,56,11,,,,,,,,,,,,,,,2,None,,1,1.401,,,,,2019_Jan_19_1602,60.36679709877473,Cloud_Experiment_FR_REAL,001,07,
images/fcloud65-35_D1.3_5.tif,1.3,1,,,,,,,,,0,57,57,52,,,,,,,,,,,,,,,2,space,3.82658018189,3,0.968,,,,,2019_Jan_19_1602,60.36679709877473,Cloud_Experiment_FR_REAL,001,07,
images/fcloud80-20_D0.9_4.tif,0.9,2,,,,,,,,,0,58,58,75,,,,,,,,,,,,,,,None,None,,None,10.277,,,,,2019_Jan_19_1602,60.36679709877473,Cloud_Experiment_FR_REAL,001,07,
images/fcloud65-35_D1.8_4.tif,1.8,1,,,,,,,,,0,59,59,66,,,,,,,,,,,,,,,None,None,,None,19.752,,,,,2019_Jan_19_1602,60.36679709877473,Cloud_Experiment_FR_REAL,001,07,
images/fcloud_D1.7_5.tif,1.7,0,,,,,,,,,0,60,60,28,,,,,,,,,,,,,,,2,None,,3,1.867,,,,,2019_Jan_19_1602,60.36679709877473,Cloud_Experiment_FR_REAL,001,07,
images/fcloud80-20_D1.1_5.tif,1.1,2,,,,,,,,,0,61,61,82,,,,,,,,,,,,,,,1,space,3.97920335742,2,1.102,,,,,2019_Jan_19_1602,60.36679709877473,Cloud_Experiment_FR_REAL,001,07,
images/fcloud80-20_D1.1_4.tif,1.1,2,,,,,,,,,0,62,62,81,,,,,,,,,,,,,,,1,space,5.80121101273,3,2.303,,,,,2019_Jan_19_1602,60.36679709877473,Cloud_Experiment_FR_REAL,001,07,
images/fcloud65-35_D1.7_6.tif,1.7,1,,,,,,,,,0,63,63,65,,,,,,,,,,,,,,,2,space,1.96250528193,3,1.535,,,,,2019_Jan_19_1602,60.36679709877473,Cloud_Experiment_FR_REAL,001,07,
images/fcloud_D0.9_4.tif,0.9,0,,,,,,,,,0,64,64,3,,,,,,,,,,,,,,,2,space,1.44850342927,4,1.169,,,,,2019_Jan_19_1602,60.36679709877473,Cloud_Experiment_FR_REAL,001,07,
images/fcloud80-20_D1.5_6.tif,1.5,2,,,,,,,,,0,65,65,95,,,,,,,,,,,,,,,1,space,1.8950508761,4,1.851,,,,,2019_Jan_19_1602,60.36679709877473,Cloud_Experiment_FR_REAL,001,07,
images/fcloud80-20_D0.8_4.tif,0.8,2,,,,,,,,,0,66,66,72,,,,,,,,,,,,,,,1,space,7.87005953793,2,5.398,,,,,2019_Jan_19_1602,60.36679709877473,Cloud_Experiment_FR_REAL,001,07,
images/fcloud80-20_D1.9_4.tif,1.9,2,,,,,,,,,0,67,67,105,,,,,,,,,,,,,,,1,None,,1,0.403,,,,,2019_Jan_19_1602,60.36679709877473,Cloud_Experiment_FR_REAL,001,07,
images/fcloud80-20_D1.2_6.tif,1.2,2,,,,,,,,,0,68,68,86,,,,,,,,,,,,,,,None,None,,None,8.877,,,,,2019_Jan_19_1602,60.36679709877473,Cloud_Experiment_FR_REAL,001,07,
images/fcloud80-20_D1.8_4.tif,1.8,2,,,,,,,,,0,69,69,102,,,,,,,,,,,,,,,None,None,,None,17.921,,,,,2019_Jan_19_1602,60.36679709877473,Cloud_Experiment_FR_REAL,001,07,
images/fcloud_D1.8_4.tif,1.8,0,,,,,,,,,0,70,70,30,,,,,,,,,,,,,,,2,None,,3,1.302,,,,,2019_Jan_19_1602,60.36679709877473,Cloud_Experiment_FR_REAL,001,07,
images/fcloud_D1_5.tif,1.0,0,,,,,,,,,0,71,71,7,,,,,,,,,,,,,,,2,space,1.73372010892,4,1.368,,,,,2019_Jan_19_1602,60.36679709877473,Cloud_Experiment_FR_REAL,001,07,
images/fcloud65-35_D1.6_6.tif,1.6,1,,,,,,,,,0,72,72,62,,,,,,,,,,,,,,,2,space,5.65375666859,4,4.034,,,,,2019_Jan_19_1602,60.36679709877473,Cloud_Experiment_FR_REAL,001,07,
images/fcloud65-35_D1.9_5.tif,1.9,1,,,,,,,,,0,73,73,70,,,,,,,,,,,,,,,1,None,,2,2.401,,,,,2019_Jan_19_1602,60.36679709877473,Cloud_Experiment_FR_REAL,001,07,
images/fcloud65-35_D0.8_4.tif,0.8,1,,,,,,,,,0,74,74,36,,,,,,,,,,,,,,,1,None,,2,1.319,,,,,2019_Jan_19_1602,60.36679709877473,Cloud_Experiment_FR_REAL,001,07,
images/fcloud_D1.6_4.tif,1.6,0,,,,,,,,,0,75,75,24,,,,,,,,,,,,,,,2,space,6.12671938824,3,0.937,,,,,2019_Jan_19_1602,60.36679709877473,Cloud_Experiment_FR_REAL,001,07,
images/fcloud65-35_D0.9_6.tif,0.9,1,,,,,,,,,0,76,76,41,,,,,,,,,,,,,,,1,None,,2,1.803,,,,,2019_Jan_19_1602,60.36679709877473,Cloud_Experiment_FR_REAL,001,07,
images/fcloud80-20_D1.2_5.tif,1.2,2,,,,,,,,,0,77,77,85,,,,,,,,,,,,,,,1,space,5.40017138622,2,1.252,,,,,2019_Jan_19_1602,60.36679709877473,Cloud_Experiment_FR_REAL,001,07,
images/fcloud80-20_D1.6_4.tif,1.6,2,,,,,,,,,0,78,78,96,,,,,,,,,,,,,,,1,None,,1,1.368,,,,,2019_Jan_19_1602,60.36679709877473,Cloud_Experiment_FR_REAL,001,07,
images/fcloud65-35_D1.9_6.tif,1.9,1,,,,,,,,,0,79,79,71,,,,,,,,,,,,,,,None,None,,None,11.441,,,,,2019_Jan_19_1602,60.36679709877473,Cloud_Experiment_FR_REAL,001,07,
images/fcloud65-35_D1.7_4.tif,1.7,1,,,,,,,,,0,80,80,63,,,,,,,,,,,,,,,3,space,3.60794504127,3,1.052,,,,,2019_Jan_19_1602,60.36679709877473,Cloud_Experiment_FR_REAL,001,07,
images/fcloud65-35_D0.8_6.tif,0.8,1,,,,,,,,,0,81,81,38,,,,,,,,,,,,,,,1,None,,2,3.051,,,,,2019_Jan_19_1602,60.36679709877473,Cloud_Experiment_FR_REAL,001,07,
images/fcloud65-35_D0.8_5.tif,0.8,1,,,,,,,,,0,82,82,37,,,,,,,,,,,,,,,1,space,4.1386984312,1,0.603,,,,,2019_Jan_19_1602,60.36679709877473,Cloud_Experiment_FR_REAL,001,07,
images/fcloud80-20_D1.4_4.tif,1.4,2,,,,,,,,,0,83,83,90,,,,,,,,,,,,,,,2,space,6.98284647107,4,1.269,,,,,2019_Jan_19_1602,60.36679709877473,Cloud_Experiment_FR_REAL,001,07,
images/fcloud_D1.3_5.tif,1.3,0,,,,,,,,,0,84,84,16,,,,,,,,,,,,,,,1,None,,2,0.951,,,,,2019_Jan_19_1602,60.36679709877473,Cloud_Experiment_FR_REAL,001,07,
images/fcloud_D1.1_5.tif,1.1,0,,,,,,,,,0,85,85,10,,,,,,,,,,,,,,,None,None,,None,10.359,,,,,2019_Jan_19_1602,60.36679709877473,Cloud_Experiment_FR_REAL,001,07,
images/fcloud65-35_D1.3_6.tif,1.3,1,,,,,,,,,0,86,86,53,,,,,,,,,,,,,,,None,None,,None,19.633,,,,,2019_Jan_19_1602,60.36679709877473,Cloud_Experiment_FR_REAL,001,07,
images/fcloud65-35_D0.9_4.tif,0.9,1,,,,,,,,,0,87,87,39,,,,,,,,,,,,,,,None,None,,None,28.877,,,,,2019_Jan_19_1602,60.36679709877473,Cloud_Experiment_FR_REAL,001,07,
images/fcloud_D1.5_6.tif,1.5,0,,,,,,,,,0,88,88,23,,,,,,,,,,,,,,,1,None,,2,1.569,,,,,2019_Jan_19_1602,60.36679709877473,Cloud_Experiment_FR_REAL,001,07,
images/fcloud65-35_D1_4.tif,1.0,1,,,,,,,,,0,89,89,42,,,,,,,,,,,,,,,1,None,,1,1.369,,,,,2019_Jan_19_1602,60.36679709877473,Cloud_Experiment_FR_REAL,001,07,
images/fcloud65-35_D1.4_5.tif,1.4,1,,,,,,,,,0,90,90,55,,,,,,,,,,,,,,,1,space,3.05463282534,3,1.152,,,,,2019_Jan_19_1602,60.36679709877473,Cloud_Experiment_FR_REAL,001,07,
images/fcloud_D1.1_4.tif,1.1,0,,,,,,,,,0,91,91,9,,,,,,,,,,,,,,,None,None,,None,10.592,,,,,2019_Jan_19_1602,60.36679709877473,Cloud_Experiment_FR_REAL,001,07,
images/fcloud80-20_D1.3_5.tif,1.3,2,,,,,,,,,0,92,92,88,,,,,,,,,,,,,,,1,None,,2,1.418,,,,,2019_Jan_19_1602,60.36679709877473,Cloud_Experiment_FR_REAL,001,07,
images/fcloud_D1.2_4.tif,1.2,0,,,,,,,,,0,93,93,12,,,,,,,,,,,,,,,2,None,,2,2.002,,,,,2019_Jan_19_1602,60.36679709877473,Cloud_Experiment_FR_REAL,001,07,
images/fcloud80-20_D1_4.tif,1.0,2,,,,,,,,,0,94,94,78,,,,,,,,,,,,,,,1,space,2.91988182883,4,1.119,,,,,2019_Jan_19_1602,60.36679709877473,Cloud_Experiment_FR_REAL,001,07,
images/fcloud65-35_D1.8_5.tif,1.8,1,,,,,,,,,0,95,95,67,,,,,,,,,,,,,,,2,None,,3,1.285,,,,,2019_Jan_19_1602,60.36679709877473,Cloud_Experiment_FR_REAL,001,07,
images/fcloud80-20_D0.8_6.tif,0.8,2,,,,,,,,,0,96,96,74,,,,,,,,,,,,,,,None,None,,None,9.927,,,,,2019_Jan_19_1602,60.36679709877473,Cloud_Experiment_FR_REAL,001,07,
images/fcloud65-35_D1.2_4.tif,1.2,1,,,,,,,,,0,97,97,48,,,,,,,,,,,,,,,2,space,3.26321611833,3,0.802,,,,,2019_Jan_19_1602,60.36679709877473,Cloud_Experiment_FR_REAL,001,07,
images/fcloud65-35_D1.1_5.tif,1.1,1,,,,,,,,,0,98,98,46,,,,,,,,,,,,,,,1,None,,1,1.103,,,,,2019_Jan_19_1602,60.36679709877473,Cloud_Experiment_FR_REAL,001,07,
images/fcloud_D1.4_5.tif,1.4,0,,,,,,,,,0,99,99,19,,,,,,,,,,,,,,,2,None,,3,1.652,,,,,2019_Jan_19_1602,60.36679709877473,Cloud_Experiment_FR_REAL,001,07,
images/fcloud_D1.9_5.tif,1.9,0,,,,,,,,,0,100,100,34,,,,,,,,,,,,,,,2,space,6.31948312715,3,1.802,,,,,2019_Jan_19_1602,60.36679709877473,Cloud_Experiment_FR_REAL,001,07,
images/fcloud80-20_D1.5_4.tif,1.5,2,,,,,,,,,0,101,101,93,,,,,,,,,,,,,,,1,None,,1,0.536,,,,,2019_Jan_19_1602,60.36679709877473,Cloud_Experiment_FR_REAL,001,07,
images/fcloud_D1.9_4.tif,1.9,0,,,,,,,,,0,102,102,33,,,,,,,,,,,,,,,1,space,3.07644472818,2,1.534,,,,,2019_Jan_19_1602,60.36679709877473,Cloud_Experiment_FR_REAL,001,07,
images/fcloud_D1.4_4.tif,1.4,0,,,,,,,,,0,103,103,18,,,,,,,,,,,,,,,2,None,,2,1.668,,,,,2019_Jan_19_1602,60.36679709877473,Cloud_Experiment_FR_REAL,001,07,
images/fcloud_D1.7_4.tif,1.7,0,,,,,,,,,0,104,104,27,,,,,,,,,,,,,,,4,None,,2,0.687,,,,,2019_Jan_19_1602,60.36679709877473,Cloud_Experiment_FR_REAL,001,07,
images/fcloud65-35_D1.5_4.tif,1.5,1,,,,,,,,,0,105,105,57,,,,,,,,,,,,,,,1,space,7.72643028325,3,0.7,,,,,2019_Jan_19_1602,60.36679709877473,Cloud_Experiment_FR_REAL,001,07,
images/fcloud80-20_D1.5_5.tif,1.5,2,,,,,,,,,0,106,106,94,,,,,,,,,,,,,,,None,None,,None,10.026,,,,,2019_Jan_19_1602,60.36679709877473,Cloud_Experiment_FR_REAL,001,07,
images/fcloud_D1.4_6.tif,1.4,0,,,,,,,,,0,107,107,20,,,,,,,,,,,,,,,None,None,,None,19.535,,,,,2019_Jan_19_1602,60.36679709877473,Cloud_Experiment_FR_REAL,001,07,
,,,,,,,,,,,,,,,,,,,,,,,,,8,114.882,,,,,,,,,,,,2019_Jan_19_1602,60.36679709877473,Cloud_Experiment_FR_REAL,001,07,
,,,,,,,,,,,,,,,,,,,,,,,,,,,,,,,,,,,,space,3.86537854557,2019_Jan_19_1602,60.36679709877473,Cloud_Experiment_FR_REAL,001,07,
images/fcloud80-20_D0.9_9.tif,0.9,2,,,,,,,,,,,,,0,0,0,102,,,,,,,,,,,None,None,,None,147.192,,,,,2019_Jan_19_1602,60.36679709877473,Cloud_Experiment_FR_REAL,001,07,
images/fcloud_D1.9_10.tif,1.9,0,,,,,,,,,,,,,0,1,1,47,,,,,,,,,,,2,None,,2,1.569,,,,,2019_Jan_19_1602,60.36679709877473,Cloud_Experiment_FR_REAL,001,07,
images/fcloud80-20_D1.7_8.tif,1.7,2,,,,,,,,,,,,,0,2,2,133,,,,,,,,,,,1,None,,1,0.886,,,,,2019_Jan_19_1602,60.36679709877473,Cloud_Experiment_FR_REAL,001,07,
images/fcloud_D0.8_9.tif,0.8,0,,,,,,,,,,,,,0,3,3,2,,,,,,,,,,,1,None,,3,2.284,,,,,2019_Jan_19_1602,60.36679709877473,Cloud_Experiment_FR_REAL,001,07,
images/fcloud65-35_D1.3_10.tif,1.3,1,,,,,,,,,,,,,0,4,4,71,,,,,,,,,,,None,None,,None,11.774,,,,,2019_Jan_19_1602,60.36679709877473,Cloud_Experiment_FR_REAL,001,07,
images/fcloud80-20_D1.9_9.tif,1.9,2,,,,,,,,,,,,,0,5,5,142,,,,,,,,,,,1,None,,3,1.269,,,,,2019_Jan_19_1602,60.36679709877473,Cloud_Experiment_FR_REAL,001,07,
images/fcloud80-20_D1.4_7.tif,1.4,2,,,,,,,,,,,,,0,6,6,120,,,,,,,,,,,2,None,,2,0.503,,,,,2019_Jan_19_1602,60.36679709877473,Cloud_Experiment_FR_REAL,001,07,
images/fcloud65-35_D1.8_8.tif,1.8,1,,,,,,,,,,,,,0,7,7,89,,,,,,,,,,,None,None,,None,10.893,,,,,2019_Jan_19_1602,60.36679709877473,Cloud_Experiment_FR_REAL,001,07,
images/fcloud80-20_D0.8_8.tif,0.8,2,,,,,,,,,,,,,0,8,8,97,,,,,,,,,,,1,space,6.79157863461,2,0.802,,,,,2019_Jan_19_1602,60.36679709877473,Cloud_Experiment_FR_REAL,001,07,
images/fcloud65-35_D1.5_10.tif,1.5,1,,,,,,,,,,,,,0,9,9,79,,,,,,,,,,,None,None,,None,13.223,,,,,2019_Jan_19_1602,60.36679709877473,Cloud_Experiment_FR_REAL,001,07,
images/fcloud65-35_D1.4_10.tif,1.4,1,,,,,,,,,,,,,0,10,10,75,,,,,,,,,,,1,None,,2,1.102,,,,,2019_Jan_19_1602,60.36679709877473,Cloud_Experiment_FR_REAL,001,07,
images/fcloud65-35_D0.9_7.tif,0.9,1,,,,,,,,,,,,,0,11,11,52,,,,,,,,,,,1,None,,2,0.769,,,,,2019_Jan_19_1602,60.36679709877473,Cloud_Experiment_FR_REAL,001,07,
images/fcloud65-35_D1.7_10.tif,1.7,1,,,,,,,,,,,,,0,12,12,87,,,,,,,,,,,2,None,,3,1.634,,,,,2019_Jan_19_1602,60.36679709877473,Cloud_Experiment_FR_REAL,001,07,
images/fcloud_D1.4_7.tif,1.4,0,,,,,,,,,,,,,0,13,13,24,,,,,,,,,,,1,space,3.95256241408,3,1.034,,,,,2019_Jan_19_1602,60.36679709877473,Cloud_Experiment_FR_REAL,001,07,
images/fcloud_D1.7_7.tif,1.7,0,,,,,,,,,,,,,0,14,14,36,,,,,,,,,,,None,None,,None,10.811,,,,,2019_Jan_19_1602,60.36679709877473,Cloud_Experiment_FR_REAL,001,07,
images/fcloud65-35_D0.9_8.tif,0.9,1,,,,,,,,,,,,,0,15,15,53,,,,,,,,,,,None,None,,None,19.436,,,,,2019_Jan_19_1602,60.36679709877473,Cloud_Experiment_FR_REAL,001,07,
images/fcloud80-20_D1.4_10.tif,1.4,2,,,,,,,,,,,,,0,16,16,123,,,,,,,,,,,3,space,6.54091987206,3,0.535,,,,,2019_Jan_19_1602,60.36679709877473,Cloud_Experiment_FR_REAL,001,07,
images/fcloud80-20_D1.9_8.tif,1.9,2,,,,,,,,,,,,,0,17,17,141,,,,,,,,,,,1,None,,1,1.071,,,,,2019_Jan_19_1602,60.36679709877473,Cloud_Experiment_FR_REAL,001,07,
images/fcloud_D0.9_7.tif,0.9,0,,,,,,,,,,,,,0,18,18,4,,,,,,,,,,,1,space,7.73349855086,2,0.933,,,,,2019_Jan_19_1602,60.36679709877473,Cloud_Experiment_FR_REAL,001,07,
images/fcloud_D1.4_9.tif,1.4,0,,,,,,,,,,,,,0,19,19,26,,,,,,,,,,,None,None,,None,10.408,,,,,2019_Jan_19_1602,60.36679709877473,Cloud_Experiment_FR_REAL,001,07,
images/fcloud_D1.5_8.tif,1.5,0,,,,,,,,,,,,,0,20,20,29,,,,,,,,,,,None,None,,None,19.817,,,,,2019_Jan_19_1602,60.36679709877473,Cloud_Experiment_FR_REAL,001,07,
images/fcloud_D1.8_8.tif,1.8,0,,,,,,,,,,,,,0,21,21,41,,,,,,,,,,,2,None,,2,2.001,,,,,2019_Jan_19_1602,60.36679709877473,Cloud_Experiment_FR_REAL,001,07,
images/fcloud65-35_D1.1_7.tif,1.1,1,,,,,,,,,,,,,0,22,22,60,,,,,,,,,,,1,space,2.45774563903,3,0.719,,,,,2019_Jan_19_1602,60.36679709877473,Cloud_Experiment_FR_REAL,001,07,
images/fcloud65-35_D1.5_7.tif,1.5,1,,,,,,,,,,,,,0,23,23,76,,,,,,,,,,,1,None,,4,1.402,,,,,2019_Jan_19_1602,60.36679709877473,Cloud_Experiment_FR_REAL,001,07,
images/fcloud_D1.4_8.tif,1.4,0,,,,,,,,,,,,,0,24,24,25,,,,,,,,,,,1,None,,2,1.269,,,,,2019_Jan_19_1602,60.36679709877473,Cloud_Experiment_FR_REAL,001,07,
images/fcloud65-35_D1.9_7.tif,1.9,1,,,,,,,,,,,,,0,25,25,92,,,,,,,,,,,None,None,,None,9.875,,,,,2019_Jan_19_1602,60.36679709877473,Cloud_Experiment_FR_REAL,001,07,
images/fcloud65-35_D1.9_10.tif,1.9,1,,,,,,,,,,,,,0,26,26,95,,,,,,,,,,,None,None,,None,19.071,,,,,2019_Jan_19_1602,60.36679709877473,Cloud_Experiment_FR_REAL,001,07,
images/fcloud80-20_D1.3_10.tif,1.3,2,,,,,,,,,,,,,0,27,27,119,,,,,,,,,,,2,None,,2,1.968,,,,,2019_Jan_19_1602,60.36679709877473,Cloud_Experiment_FR_REAL,001,07,
images/fcloud_D0.9_10.tif,0.9,0,,,,,,,,,,,,,0,28,28,7,,,,,,,,,,,2,None,,3,2.266,,,,,2019_Jan_19_1602,60.36679709877473,Cloud_Experiment_FR_REAL,001,07,
images/fcloud80-20_D1.6_9.tif,1.6,2,,,,,,,,,,,,,0,29,29,130,,,,,,,,,,,1,None,,1,0.586,,,,,2019_Jan_19_1602,60.36679709877473,Cloud_Experiment_FR_REAL,001,07,
images/fcloud65-35_D1_10.tif,1.0,1,,,,,,,,,,,,,0,30,30,59,,,,,,,,,,,1,space,6.58654489712,3,1.752,,,,,2019_Jan_19_1602,60.36679709877473,Cloud_Experiment_FR_REAL,001,07,
images/fcloud_D1.2_9.tif,1.2,0,,,,,,,,,,,,,0,31,31,18,,,,,,,,,,,1,None,,4,1.784,,,,,2019_Jan_19_1602,60.36679709877473,Cloud_Experiment_FR_REAL,001,07,
images/fcloud65-35_D0.9_9.tif,0.9,1,,,,,,,,,,,,,0,32,32,54,,,,,,,,,,,1,None,,1,4.4,,,,,2019_Jan_19_1602,60.36679709877473,Cloud_Experiment_FR_REAL,001,07,
images/fcloud65-35_D1_7.tif,1.0,1,,,,,,,,,,,,,0,33,33,56,,,,,,,,,,,1,None,,3,2.668,,,,,2019_Jan_19_1602,60.36679709877473,Cloud_Experiment_FR_REAL,001,07,
images/fcloud80-20_D1.5_9.tif,1.5,2,,,,,,,,,,,,,0,34,34,126,,,,,,,,,,,None,None,,None,11.076,,,,,2019_Jan_19_1602,60.36679709877473,Cloud_Experiment_FR_REAL,001,07,
images/fcloud80-20_D1.6_7.tif,1.6,2,,,,,,,,,,,,,0,35,35,128,,,,,,,,,,,1,None,,2,0.604,,,,,2019_Jan_19_1602,60.36679709877473,Cloud_Experiment_FR_REAL,001,07,
images/fcloud80-20_D1.8_7.tif,1.8,2,,,,,,,,,,,,,0,36,36,136,,,,,,,,,,,None,None,,None,9.76,,,,,2019_Jan_19_1602,60.36679709877473,Cloud_Experiment_FR_REAL,001,07,
images/fcloud80-20_D1.6_8.tif,1.6,2,,,,,,,,,,,,,0,37,37,129,,,,,,,,,,,2,space,2.59146800978,2,0.919,,,,,2019_Jan_19_1602,60.36679709877473,Cloud_Experiment_FR_REAL,001,07,
images/fcloud65-35_D1.8_7.tif,1.8,1,,,,,,,,,,,,,0,38,38,88,,,,,,,,,,,2,None,,3,2.085,,,,,2019_Jan_19_1602,60.36679709877473,Cloud_Experiment_FR_REAL,001,07,
images/fcloud_D1.6_9.tif,1.6,0,,,,,,,,,,,,,0,39,39,34,,,,,,,,,,,None,None,,None,11.524,,,,,2019_Jan_19_1602,60.36679709877473,Cloud_Experiment_FR_REAL,001,07,
images/fcloud_D1.3_8.tif,1.3,0,,,,,,,,,,,,,0,40,40,21,,,,,,,,,,,1,None,,2,1.301,,,,,2019_Jan_19_1602,60.36679709877473,Cloud_Experiment_FR_REAL,001,07,
images/fcloud80-20_D0.8_7.tif,0.8,2,,,,,,,,,,,,,0,41,41,96,,,,,,,,,,,2,space,8.41198541727,2,1.185,,,,,2019_Jan_19_1602,60.36679709877473,Cloud_Experiment_FR_REAL,001,07,
images/fcloud80-20_D1.1_8.tif,1.1,2,,,,,,,,,,,,,0,42,42,109,,,,,,,,,,,2,None,,3,0.851,,,,,2019_Jan_19_1602,60.36679709877473,Cloud_Experiment_FR_REAL,001,07,
images/fcloud_D0.9_8.tif,0.9,0,,,,,,,,,,,,,0,43,43,5,,,,,,,,,,,None,None,,None,10.144,,,,,2019_Jan_19_1602,60.36679709877473,Cloud_Experiment_FR_REAL,001,07,
images/fcloud_D1.6_8.tif,1.6,0,,,,,,,,,,,,,0,44,44,33,,,,,,,,,,,None,None,,None,19.35,,,,,2019_Jan_19_1602,60.36679709877473,Cloud_Experiment_FR_REAL,001,07,
images/fcloud80-20_D1.9_7.tif,1.9,2,,,,,,,,,,,,,0,45,45,140,,,,,,,,,,,1,None,,2,0.553,,,,,2019_Jan_19_1602,60.36679709877473,Cloud_Experiment_FR_REAL,001,07,
images/fcloud80-20_D1.5_8.tif,1.5,2,,,,,,,,,,,,,0,46,46,125,,,,,,,,,,,1,None,,1,0.568,,,,,2019_Jan_19_1602,60.36679709877473,Cloud_Experiment_FR_REAL,001,07,
images/fcloud80-20_D1.8_9.tif,1.8,2,,,,,,,,,,,,,0,47,47,138,,,,,,,,,,,None,None,,None,10.511,,,,,2019_Jan_19_1602,60.36679709877473,Cloud_Experiment_FR_REAL,001,07,
images/fcloud80-20_D1.4_9.tif,1.4,2,,,,,,,,,,,,,0,48,48,122,,,,,,,,,,,None,None,,None,20.016,,,,,2019_Jan_19_1602,60.36679709877473,Cloud_Experiment_FR_REAL,001,07,
images/fcloud_D1_10.tif,1.0,0,,,,,,,,,,,,,0,49,49,11,,,,,,,,,,,2,space,6.46392973061,3,1.4,,,,,2019_Jan_19_1602,60.36679709877473,Cloud_Experiment_FR_REAL,001,07,
images/fcloud80-20_D0.8_9.tif,0.8,2,,,,,,,,,,,,,0,50,50,98,,,,,,,,,,,1,space,5.75104738874,1,0.402,,,,,2019_Jan_19_1602,60.36679709877473,Cloud_Experiment_FR_REAL,001,07,
images/fcloud80-20_D0.9_10.tif,0.9,2,,,,,,,,,,,,,0,51,51,103,,,,,,,,,,,2,space,2.73668826729,2,0.622,,,,,2019_Jan_19_1602,60.36679709877473,Cloud_Experiment_FR_REAL,001,07,
images/fcloud65-35_D1.2_7.tif,1.2,1,,,,,,,,,,,,,0,52,52,64,,,,,,,,,,,None,None,,None,9.844,,,,,2019_Jan_19_1602,60.36679709877473,Cloud_Experiment_FR_REAL,001,07,
images/fcloud65-35_D1.1_9.tif,1.1,1,,,,,,,,,,,,,0,53,53,62,,,,,,,,,,,None,None,,None,19.037,,,,,2019_Jan_19_1602,60.36679709877473,Cloud_Experiment_FR_REAL,001,07,
images/fcloud80-20_D1.5_7.tif,1.5,2,,,,,,,,,,,,,0,54,54,124,,,,,,,,,,,1,None,,2,1.485,,,,,2019_Jan_19_1602,60.36679709877473,Cloud_Experiment_FR_REAL,001,07,
images/fcloud80-20_D1.7_10.tif,1.7,2,,,,,,,,,,,,,0,55,55,135,,,,,,,,,,,None,None,,None,10.043,,,,,2019_Jan_19_1602,60.36679709877473,Cloud_Experiment_FR_REAL,001,07,
images/fcloud_D0.8_8.tif,0.8,0,,,,,,,,,,,,,0,56,56,1,,,,,,,,,,,None,None,,None,19.202,,,,,2019_Jan_19_1602,60.36679709877473,Cloud_Experiment_FR_REAL,001,07,
images/fcloud65-35_D1.8_10.tif,1.8,1,,,,,,,,,,,,,0,57,57,91,,,,,,,,,,,1,None,,1,1.619,,,,,2019_Jan_19_1602,60.36679709877473,Cloud_Experiment_FR_REAL,001,07,
images/fcloud65-35_D1.1_8.tif,1.1,1,,,,,,,,,,,,,0,58,58,61,,,,,,,,,,,None,None,,None,11.392,,,,,2019_Jan_19_1602,60.36679709877473,Cloud_Experiment_FR_REAL,001,07,
images/fcloud_D1.8_7.tif,1.8,0,,,,,,,,,,,,,0,59,59,40,,,,,,,,,,,1,None,,2,1.67,,,,,2019_Jan_19_1602,60.36679709877473,Cloud_Experiment_FR_REAL,001,07,
images/fcloud80-20_D1.3_7.tif,1.3,2,,,,,,,,,,,,,0,60,60,116,,,,,,,,,,,None,None,,None,10.941,,,,,2019_Jan_19_1602,60.36679709877473,Cloud_Experiment_FR_REAL,001,07,
images/fcloud65-35_D1.9_9.tif,1.9,1,,,,,,,,,,,,,0,61,61,94,,,,,,,,,,,1,None,,3,1.136,,,,,2019_Jan_19_1602,60.36679709877473,Cloud_Experiment_FR_REAL,001,07,
images/fcloud65-35_D1.7_9.tif,1.7,1,,,,,,,,,,,,,0,62,62,86,,,,,,,,,,,None,None,,None,10.325,,,,,2019_Jan_19_1602,60.36679709877473,Cloud_Experiment_FR_REAL,001,07,
images/fcloud65-35_D0.8_7.tif,0.8,1,,,,,,,,,,,,,0,63,63,48,,,,,,,,,,,None,None,,None,18.786,,,,,2019_Jan_19_1602,60.36679709877473,Cloud_Experiment_FR_REAL,001,07,
images/fcloud80-20_D1.5_10.tif,1.5,2,,,,,,,,,,,,,0,64,64,127,,,,,,,,,,,None,None,,None,27.778,,,,,2019_Jan_19_1602,60.36679709877473,Cloud_Experiment_FR_REAL,001,07,
images/fcloud80-20_D1.2_9.tif,1.2,2,,,,,,,,,,,,,0,65,65,114,,,,,,,,,,,None,None,,None,36.836,,,,,2019_Jan_19_1602,60.36679709877473,Cloud_Experiment_FR_REAL,001,07,
images/fcloud_D1.2_7.tif,1.2,0,,,,,,,,,,,,,0,66,66,16,,,,,,,,,,,None,None,,None,45.831,,,,,2019_Jan_19_1602,60.36679709877473,Cloud_Experiment_FR_REAL,001,07,
images/fcloud65-35_D1.5_8.tif,1.5,1,,,,,,,,,,,,,0,67,67,77,,,,,,,,,,,1,None,,2,0.435,,,,,2019_Jan_19_1602,60.36679709877473,Cloud_Experiment_FR_REAL,001,07,
images/fcloud80-20_D1.2_8.tif,1.2,2,,,,,,,,,,,,,0,68,68,113,,,,,,,,,,,4,space,4.00209888993,4,3.4,,,,,2019_Jan_19_1602,60.36679709877473,Cloud_Experiment_FR_REAL,001,07,
images/fcloud80-20_D1.2_10.tif,1.2,2,,,,,,,,,,,,,0,69,69,115,,,,,,,,,,,2,space,6.37922618148,3,0.603,,,,,2019_Jan_19_1602,60.36679709877473,Cloud_Experiment_FR_REAL,001,07,
images/fcloud65-35_D1.7_8.tif,1.7,1,,,,,,,,,,,,,0,70,70,85,,,,,,,,,,,None,None,,None,9.993,,,,,2019_Jan_19_1602,60.36679709877473,Cloud_Experiment_FR_REAL,001,07,
images/fcloud65-35_D0.9_10.tif,0.9,1,,,,,,,,,,,,,0,71,71,55,,,,,,,,,,,None,None,,None,19.503,,,,,2019_Jan_19_1602,60.36679709877473,Cloud_Experiment_FR_REAL,001,07,
images/fcloud_D1.1_10.tif,1.1,0,,,,,,,,,,,,,0,72,72,15,,,,,,,,,,,3,space,3.38426084426,3,4.649,,,,,2019_Jan_19_1602,60.36679709877473,Cloud_Experiment_FR_REAL,001,07,
images/fcloud_D0.8_10.tif,0.8,0,,,,,,,,,,,,,0,73,73,3,,,,,,,,,,,1,None,,1,0.42,,,,,2019_Jan_19_1602,60.36679709877473,Cloud_Experiment_FR_REAL,001,07,
images/fcloud_D1.3_10.tif,1.3,0,,,,,,,,,,,,,0,74,74,23,,,,,,,,,,,4,None,,3,3.032,,,,,2019_Jan_19_1602,60.36679709877473,Cloud_Experiment_FR_REAL,001,07,
images/fcloud65-35_D1.6_9.tif,1.6,1,,,,,,,,,,,,,0,75,75,82,,,,,,,,,,,1,None,,2,0.57,,,,,2019_Jan_19_1602,60.36679709877473,Cloud_Experiment_FR_REAL,001,07,
images/fcloud80-20_D1.9_10.tif,1.9,2,,,,,,,,,,,,,0,76,76,143,,,,,,,,,,,1,None,,1,0.502,,,,,2019_Jan_19_1602,60.36679709877473,Cloud_Experiment_FR_REAL,001,07,
images/fcloud80-20_D1.7_7.tif,1.7,2,,,,,,,,,,,,,0,77,77,132,,,,,,,,,,,1,None,,2,1.234,,,,,2019_Jan_19_1602,60.36679709877473,Cloud_Experiment_FR_REAL,001,07,
images/fcloud80-20_D1.7_9.tif,1.7,2,,,,,,,,,,,,,0,78,78,134,,,,,,,,,,,2,None,,1,0.603,,,,,2019_Jan_19_1602,60.36679709877473,Cloud_Experiment_FR_REAL,001,07,
images/fcloud80-20_D1.1_7.tif,1.1,2,,,,,,,,,,,,,0,79,79,108,,,,,,,,,,,None,None,,None,9.71,,,,,2019_Jan_19_1602,60.36679709877473,Cloud_Experiment_FR_REAL,001,07,
images/fcloud65-35_D0.8_8.tif,0.8,1,,,,,,,,,,,,,0,80,80,49,,,,,,,,,,,1,None,,1,3.202,,,,,2019_Jan_19_1602,60.36679709877473,Cloud_Experiment_FR_REAL,001,07,
images/fcloud_D1.6_7.tif,1.6,0,,,,,,,,,,,,,0,81,81,32,,,,,,,,,,,1,None,,3,0.952,,,,,2019_Jan_19_1602,60.36679709877473,Cloud_Experiment_FR_REAL,001,07,
images/fcloud_D1.8_10.tif,1.8,0,,,,,,,,,,,,,0,82,82,43,,,,,,,,,,,None,None,,None,9.976,,,,,2019_Jan_19_1602,60.36679709877473,Cloud_Experiment_FR_REAL,001,07,
images/fcloud80-20_D1_9.tif,1.0,2,,,,,,,,,,,,,0,83,83,106,,,,,,,,,,,None,None,,None,19.766,,,,,2019_Jan_19_1602,60.36679709877473,Cloud_Experiment_FR_REAL,001,07,
images/fcloud80-20_D0.8_10.tif,0.8,2,,,,,,,,,,,,,0,84,84,99,,,,,,,,,,,None,None,,None,28.392,,,,,2019_Jan_19_1602,60.36679709877473,Cloud_Experiment_FR_REAL,001,07,
images/fcloud_D1_8.tif,1.0,0,,,,,,,,,,,,,0,85,85,9,,,,,,,,,,,1,None,,1,0.518,,,,,2019_Jan_19_1602,60.36679709877473,Cloud_Experiment_FR_REAL,001,07,
images/fcloud_D1.5_9.tif,1.5,0,,,,,,,,,,,,,0,86,86,30,,,,,,,,,,,2,None,,2,0.918,,,,,2019_Jan_19_1602,60.36679709877473,Cloud_Experiment_FR_REAL,001,07,
images/fcloud65-35_D1.2_9.tif,1.2,1,,,,,,,,,,,,,0,87,87,66,,,,,,,,,,,2,None,,3,0.901,,,,,2019_Jan_19_1602,60.36679709877473,Cloud_Experiment_FR_REAL,001,07,
images/fcloud_D1.1_9.tif,1.1,0,,,,,,,,,,,,,0,88,88,14,,,,,,,,,,,1,None,,2,2.518,,,,,2019_Jan_19_1602,60.36679709877473,Cloud_Experiment_FR_REAL,001,07,
images/fcloud_D1.8_9.tif,1.8,0,,,,,,,,,,,,,0,89,89,42,,,,,,,,,,,None,None,,None,11.425,,,,,2019_Jan_19_1602,60.36679709877473,Cloud_Experiment_FR_REAL,001,07,
images/fcloud_D1.1_7.tif,1.1,0,,,,,,,,,,,,,0,90,90,12,,,,,,,,,,,1,None,,1,0.687,,,,,2019_Jan_19_1602,60.36679709877473,Cloud_Experiment_FR_REAL,001,07,
images/fcloud80-20_D1.1_10.tif,1.1,2,,,,,,,,,,,,,0,91,91,111,,,,,,,,,,,2,space,2.27375683311,3,3.85,,,,,2019_Jan_19_1602,60.36679709877473,Cloud_Experiment_FR_REAL,001,07,
images/fcloud80-20_D1.2_7.tif,1.2,2,,,,,,,,,,,,,0,92,92,112,,,,,,,,,,,1,None,,1,0.987,,,,,2019_Jan_19_1602,60.36679709877473,Cloud_Experiment_FR_REAL,001,07,
images/fcloud65-35_D1.1_10.tif,1.1,1,,,,,,,,,,,,,0,93,93,63,,,,,,,,,,,None,None,,None,9.693,,,,,2019_Jan_19_1602,60.36679709877473,Cloud_Experiment_FR_REAL,001,07,
images/fcloud65-35_D1.6_7.tif,1.6,1,,,,,,,,,,,,,0,94,94,80,,,,,,,,,,,2,None,,2,1.668,,,,,2019_Jan_19_1602,60.36679709877473,Cloud_Experiment_FR_REAL,001,07,
images/fcloud_D0.8_7.tif,0.8,0,,,,,,,,,,,,,0,95,95,0,,,,,,,,,,,1,space,1.64652544525,3,1.253,,,,,2019_Jan_19_1602,60.36679709877473,Cloud_Experiment_FR_REAL,001,07,
images/fcloud65-35_D1.3_9.tif,1.3,1,,,,,,,,,,,,,0,96,96,70,,,,,,,,,,,None,None,,None,10.827,,,,,2019_Jan_19_1602,60.36679709877473,Cloud_Experiment_FR_REAL,001,07,
images/fcloud65-35_D1.4_8.tif,1.4,1,,,,,,,,,,,,,0,97,97,73,,,,,,,,,,,1,None,,2,0.536,,,,,2019_Jan_19_1602,60.36679709877473,Cloud_Experiment_FR_REAL,001,07,
images/fcloud_D1.3_7.tif,1.3,0,,,,,,,,,,,,,0,98,98,20,,,,,,,,,,,3,None,,2,1.052,,,,,2019_Jan_19_1602,60.36679709877473,Cloud_Experiment_FR_REAL,001,07,
images/fcloud65-35_D0.8_10.tif,0.8,1,,,,,,,,,,,,,0,99,99,51,,,,,,,,,,,1,None,,1,0.87,,,,,2019_Jan_19_1602,60.36679709877473,Cloud_Experiment_FR_REAL,001,07,
images/fcloud_D1.1_8.tif,1.1,0,,,,,,,,,,,,,0,100,100,13,,,,,,,,,,,1,None,,4,1.702,,,,,2019_Jan_19_1602,60.36679709877473,Cloud_Experiment_FR_REAL,001,07,
images/fcloud80-20_D0.9_7.tif,0.9,2,,,,,,,,,,,,,0,101,101,100,,,,,,,,,,,None,None,,None,10.975,,,,,2019_Jan_19_1602,60.36679709877473,Cloud_Experiment_FR_REAL,001,07,
images/fcloud_D1_7.tif,1.0,0,,,,,,,,,,,,,0,102,102,8,,,,,,,,,,,2,None,,2,1.152,,,,,2019_Jan_19_1602,60.36679709877473,Cloud_Experiment_FR_REAL,001,07,
images/fcloud65-35_D1.6_8.tif,1.6,1,,,,,,,,,,,,,0,103,103,81,,,,,,,,,,,1,space,4.72929614448,2,0.719,,,,,2019_Jan_19_1602,60.36679709877473,Cloud_Experiment_FR_REAL,001,07,
images/fcloud80-20_D1.8_8.tif,1.8,2,,,,,,,,,,,,,0,104,104,137,,,,,,,,,,,None,None,,None,9.893,,,,,2019_Jan_19_1602,60.36679709877473,Cloud_Experiment_FR_REAL,001,07,
images/fcloud_D1.4_10.tif,1.4,0,,,,,,,,,,,,,0,105,105,27,,,,,,,,,,,2,space,5.8356743436,3,0.786,,,,,2019_Jan_19_1602,60.36679709877473,Cloud_Experiment_FR_REAL,001,07,
images/fcloud_D1.5_7.tif,1.5,0,,,,,,,,,,,,,0,106,106,28,,,,,,,,,,,None,None,,None,10.293,,,,,2019_Jan_19_1602,60.36679709877473,Cloud_Experiment_FR_REAL,001,07,
images/fcloud65-35_D1_8.tif,1.0,1,,,,,,,,,,,,,0,107,107,57,,,,,,,,,,,None,None,,None,18.768,,,,,2019_Jan_19_1602,60.36679709877473,Cloud_Experiment_FR_REAL,001,07,
images/fcloud65-35_D1.4_9.tif,1.4,1,,,,,,,,,,,,,0,108,108,74,,,,,,,,,,,2,None,,2,2.951,,,,,2019_Jan_19_1602,60.36679709877473,Cloud_Experiment_FR_REAL,001,07,
images/fcloud_D1.7_10.tif,1.7,0,,,,,,,,,,,,,0,109,109,39,,,,,,,,,,,1,space,1.84481374215,4,1.401,,,,,2019_Jan_19_1602,60.36679709877473,Cloud_Experiment_FR_REAL,001,07,
images/fcloud80-20_D1_7.tif,1.0,2,,,,,,,,,,,,,0,110,110,104,,,,,,,,,,,2,None,,3,0.735,,,,,2019_Jan_19_1602,60.36679709877473,Cloud_Experiment_FR_REAL,001,07,
images/fcloud65-35_D0.8_9.tif,0.8,1,,,,,,,,,,,,,0,111,111,50,,,,,,,,,,,1,None,,3,0.653,,,,,2019_Jan_19_1602,60.36679709877473,Cloud_Experiment_FR_REAL,001,07,
images/fcloud65-35_D1.2_10.tif,1.2,1,,,,,,,,,,,,,0,112,112,67,,,,,,,,,,,None,None,,None,10.345,,,,,2019_Jan_19_1602,60.36679709877473,Cloud_Experiment_FR_REAL,001,07,
images/fcloud_D1_9.tif,1.0,0,,,,,,,,,,,,,0,113,113,10,,,,,,,,,,,2,None,,2,1.418,,,,,2019_Jan_19_1602,60.36679709877473,Cloud_Experiment_FR_REAL,001,07,
images/fcloud_D1.2_8.tif,1.2,0,,,,,,,,,,,,,0,114,114,17,,,,,,,,,,,None,None,,None,10.626,,,,,2019_Jan_19_1602,60.36679709877473,Cloud_Experiment_FR_REAL,001,07,
images/fcloud80-20_D1.3_9.tif,1.3,2,,,,,,,,,,,,,0,115,115,118,,,,,,,,,,,None,None,,None,19.153,,,,,2019_Jan_19_1602,60.36679709877473,Cloud_Experiment_FR_REAL,001,07,
images/fcloud80-20_D1_10.tif,1.0,2,,,,,,,,,,,,,0,116,116,107,,,,,,,,,,,1,space,5.09001271773,2,0.603,,,,,2019_Jan_19_1602,60.36679709877473,Cloud_Experiment_FR_REAL,001,07,
images/fcloud_D1.9_9.tif,1.9,0,,,,,,,,,,,,,0,117,117,46,,,,,,,,,,,None,None,,None,9.912,,,,,2019_Jan_19_1602,60.36679709877473,Cloud_Experiment_FR_REAL,001,07,
images/fcloud65-35_D1.6_10.tif,1.6,1,,,,,,,,,,,,,0,118,118,83,,,,,,,,,,,None,None,,None,19.134,,,,,2019_Jan_19_1602,60.36679709877473,Cloud_Experiment_FR_REAL,001,07,
images/fcloud_D1.5_10.tif,1.5,0,,,,,,,,,,,,,0,119,119,31,,,,,,,,,,,2,space,6.78585513702,3,1.67,,,,,2019_Jan_19_1602,60.36679709877473,Cloud_Experiment_FR_REAL,001,07,
images/fcloud65-35_D1.2_8.tif,1.2,1,,,,,,,,,,,,,0,120,120,65,,,,,,,,,,,1,None,,1,1.835,,,,,2019_Jan_19_1602,60.36679709877473,Cloud_Experiment_FR_REAL,001,07,
images/fcloud65-35_D1.7_7.tif,1.7,1,,,,,,,,,,,,,0,121,121,84,,,,,,,,,,,1,None,,1,0.618,,,,,2019_Jan_19_1602,60.36679709877473,Cloud_Experiment_FR_REAL,001,07,
images/fcloud_D1.9_7.tif,1.9,0,,,,,,,,,,,,,0,122,122,44,,,,,,,,,,,1,None,,2,2.451,,,,,2019_Jan_19_1602,60.36679709877473,Cloud_Experiment_FR_REAL,001,07,
images/fcloud65-35_D1.3_7.tif,1.3,1,,,,,,,,,,,,,0,123,123,68,,,,,,,,,,,1,None,,3,1.103,,,,,2019_Jan_19_1602,60.36679709877473,Cloud_Experiment_FR_REAL,001,07,
images/fcloud_D1.7_8.tif,1.7,0,,,,,,,,,,,,,0,124,124,37,,,,,,,,,,,None,None,,None,10.279,,,,,2019_Jan_19_1602,60.36679709877473,Cloud_Experiment_FR_REAL,001,07,
images/fcloud65-35_D1.4_7.tif,1.4,1,,,,,,,,,,,,,0,125,125,72,,,,,,,,,,,None,None,,None,19.286,,,,,2019_Jan_19_1602,60.36679709877473,Cloud_Experiment_FR_REAL,001,07,
images/fcloud65-35_D1.9_8.tif,1.9,1,,,,,,,,,,,,,0,126,126,93,,,,,,,,,,,2,None,,3,0.636,,,,,2019_Jan_19_1602,60.36679709877473,Cloud_Experiment_FR_REAL,001,07,
images/fcloud80-20_D1.1_9.tif,1.1,2,,,,,,,,,,,,,0,127,127,110,,,,,,,,,,,1,space,1.85287413752,4,1.169,,,,,2019_Jan_19_1602,60.36679709877473,Cloud_Experiment_FR_REAL,001,07,
images/fcloud80-20_D1.6_10.tif,1.6,2,,,,,,,,,,,,,0,128,128,131,,,,,,,,,,,1,None,,1,0.503,,,,,2019_Jan_19_1602,60.36679709877473,Cloud_Experiment_FR_REAL,001,07,
images/fcloud_D1.6_10.tif,1.6,0,,,,,,,,,,,,,0,129,129,35,,,,,,,,,,,1,space,5.88499131761,2,0.585,,,,,2019_Jan_19_1602,60.36679709877473,Cloud_Experiment_FR_REAL,001,07,
images/fcloud80-20_D1.4_8.tif,1.4,2,,,,,,,,,,,,,0,130,130,121,,,,,,,,,,,1,space,5.22060860097,3,0.785,,,,,2019_Jan_19_1602,60.36679709877473,Cloud_Experiment_FR_REAL,001,07,
images/fcloud65-35_D1_9.tif,1.0,1,,,,,,,,,,,,,0,131,131,58,,,,,,,,,,,1,None,,2,1.402,,,,,2019_Jan_19_1602,60.36679709877473,Cloud_Experiment_FR_REAL,001,07,
images/fcloud80-20_D1_8.tif,1.0,2,,,,,,,,,,,,,0,132,132,105,,,,,,,,,,,None,None,,None,10.075,,,,,2019_Jan_19_1602,60.36679709877473,Cloud_Experiment_FR_REAL,001,07,
images/fcloud80-20_D0.9_8.tif,0.9,2,,,,,,,,,,,,,0,133,133,101,,,,,,,,,,,1,space,2.53923274085,2,0.454,,,,,2019_Jan_19_1602,60.36679709877473,Cloud_Experiment_FR_REAL,001,07,
images/fcloud80-20_D1.3_8.tif,1.3,2,,,,,,,,,,,,,0,134,134,117,,,,,,,,,,,1,None,,1,0.72,,,,,2019_Jan_19_1602,60.36679709877473,Cloud_Experiment_FR_REAL,001,07,
images/fcloud_D0.9_9.tif,0.9,0,,,,,,,,,,,,,0,135,135,6,,,,,,,,,,,None,None,,None,9.476,,,,,2019_Jan_19_1602,60.36679709877473,Cloud_Experiment_FR_REAL,001,07,
images/fcloud65-35_D1.8_9.tif,1.8,1,,,,,,,,,,,,,0,136,136,90,,,,,,,,,,,3,None,,1,2.217,,,,,2019_Jan_19_1602,60.36679709877473,Cloud_Experiment_FR_REAL,001,07,
images/fcloud_D1.7_9.tif,1.7,0,,,,,,,,,,,,,0,137,137,38,,,,,,,,,,,1,None,,2,0.918,,,,,2019_Jan_19_1602,60.36679709877473,Cloud_Experiment_FR_REAL,001,07,
images/fcloud_D1.2_10.tif,1.2,0,,,,,,,,,,,,,0,138,138,19,,,,,,,,,,,1,None,,4,0.869,,,,,2019_Jan_19_1602,60.36679709877473,Cloud_Experiment_FR_REAL,001,07,
images/fcloud_D1.9_8.tif,1.9,0,,,,,,,,,,,,,0,139,139,45,,,,,,,,,,,1,None,,1,0.503,,,,,2019_Jan_19_1602,60.36679709877473,Cloud_Experiment_FR_REAL,001,07,
images/fcloud_D1.3_9.tif,1.3,0,,,,,,,,,,,,,0,140,140,22,,,,,,,,,,,2,None,,3,1.052,,,,,2019_Jan_19_1602,60.36679709877473,Cloud_Experiment_FR_REAL,001,07,
images/fcloud65-35_D1.5_9.tif,1.5,1,,,,,,,,,,,,,0,141,141,78,,,,,,,,,,,None,None,,None,11.209,,,,,2019_Jan_19_1602,60.36679709877473,Cloud_Experiment_FR_REAL,001,07,
images/fcloud80-20_D1.8_10.tif,1.8,2,,,,,,,,,,,,,0,142,142,139,,,,,,,,,,,1,None,,1,0.519,,,,,2019_Jan_19_1602,60.36679709877473,Cloud_Experiment_FR_REAL,001,07,
images/fcloud65-35_D1.3_8.tif,1.3,1,,,,,,,,,,,,,0,143,143,69,,,,,,,,,,,2,None,,3,0.854,,,,,2019_Jan_19_1602,60.36679709877473,Cloud_Experiment_FR_REAL,001,07,
,,,,,,,,,,,,,,,,,,,,,,,,,7,34.955,,,,,,,,,,,,2019_Jan_19_1602,60.36679709877473,Cloud_Experiment_FR_REAL,001,07,
