ImageFile,FD,Contrast,trials_4.thisRepN,trials_4.thisTrialN,trials_4.thisN,trials_4.thisIndex,trials.thisRepN,trials.thisTrialN,trials.thisN,trials.thisIndex,trials_2.thisRepN,trials_2.thisTrialN,trials_2.thisN,trials_2.thisIndex,trials_3.thisRepN,trials_3.thisTrialN,trials_3.thisN,trials_3.thisIndex,end_instructions.keys,end_instructions.rt,key_resp_4.keys,key_resp_4.rt,key_resp_6.keys,key_resp_6.rt,Fatigue.response,Fatigue.rt,key_resp_5.keys,key_resp_5.rt,n_objets.response,reaction_time.keys,vividness.response,vividness.rt,key_resp_2.keys,key_resp_2.rt,reaction_time.rt,key_resp_3.keys,key_resp_3.rt,date,frameRate,expName,session,participant,
,,,,,,,,,,,,,,,,,,,space,19.1535736647,,,,,,,,,,,,,,,,,,2019_Jan_19_1734,59.96116252773898,Cloud_Experiment_FR_REAL,001,08,
,,,,,,,,,,,,,,,,,,,,,space,38.4004721089,,,,,,,,,,,,,,,,2019_Jan_19_1734,59.96116252773898,Cloud_Experiment_FR_REAL,001,08,
,,,,,,,,,,,,,,,,,,,,,,,space,78.0193552301,,,,,,,,,,,,,,2019_Jan_19_1734,59.96116252773898,Cloud_Experiment_FR_REAL,001,08,
,,,,,,,,,,,,,,,,,,,,,,,,,8,22.392,,,,,,,,,,,,2019_Jan_19_1734,59.96116252773898,Cloud_Experiment_FR_REAL,001,08,
,,,,,,,,,,,,,,,,,,,,,,,,,,,space,68.725471055,,,,,,,,,,2019_Jan_19_1734,59.96116252773898,Cloud_Experiment_FR_REAL,001,08,
pratique/fcloud_D1.4_30,1.4,0,0,0,0,1,,,,,,,,,,,,,,,,,,,,,,,None,None,None,260.121,,,,,,2019_Jan_19_1734,59.96116252773898,Cloud_Experiment_FR_REAL,001,08,
pratique/fcloud65-35_D1.2_30,1.2,1,0,1,1,3,,,,,,,,,,,,,,,,,,,,,,,None,None,None,269.331,,,,,,2019_Jan_19_1734,59.96116252773898,Cloud_Experiment_FR_REAL,001,08,
pratique/fcloud80-20_D1.8_30,1.8,2,0,2,2,4,,,,,,,,,,,,,,,,,,,,,,,None,None,None,279.721,,,,,,2019_Jan_19_1734,59.96116252773898,Cloud_Experiment_FR_REAL,001,08,
pratique/fcloud_D0.8_30,0.8,0,0,3,3,0,,,,,,,,,,,,,,,,,,,,,,,None,None,None,291.561,,,,,,2019_Jan_19_1734,59.96116252773898,Cloud_Experiment_FR_REAL,001,08,
pratique/fcloud65-35_D1.6_30,1.6,1,0,4,4,2,,,,,,,,,,,,,,,,,,,,,,,None,None,None,301.769,,,,,,2019_Jan_19_1734,59.96116252773898,Cloud_Experiment_FR_REAL,001,08,
,,,,,,,,,,,,,,,,,,,,,,,,,,,,,,,,,space,45.7118943266,,,,2019_Jan_19_1734,59.96116252773898,Cloud_Experiment_FR_REAL,001,08,
images/fcloud65-35_D1.5_1.tif,1.5,1,,,,,0,0,0,57,,,,,,,,,,,,,,,,,,,None,None,None,357.304,,,,,,2019_Jan_19_1734,59.96116252773898,Cloud_Experiment_FR_REAL,001,08,
images/fcloud80-20_D1.2_1.tif,1.2,2,,,,,0,1,1,84,,,,,,,,,,,,,,,,,,,None,None,None,366.412,,,,,,2019_Jan_19_1734,59.96116252773898,Cloud_Experiment_FR_REAL,001,08,
images/fcloud80-20_D1.3_1.tif,1.3,2,,,,,0,2,2,87,,,,,,,,,,,,,,,,,,,None,None,None,378.583,,,,,,2019_Jan_19_1734,59.96116252773898,Cloud_Experiment_FR_REAL,001,08,
images/fcloud65-35_D1.6_3.tif,1.6,1,,,,,0,3,3,62,,,,,,,,,,,,,,,,,,,None,None,None,387.26,,,,,,2019_Jan_19_1734,59.96116252773898,Cloud_Experiment_FR_REAL,001,08,
images/fcloud80-20_D0.9_2.tif,0.9,2,,,,,0,4,4,76,,,,,,,,,,,,,,,,,,,None,None,None,395.936,,,,,,2019_Jan_19_1734,59.96116252773898,Cloud_Experiment_FR_REAL,001,08,
images/fcloud65-35_D1.6_2.tif,1.6,1,,,,,0,5,5,61,,,,,,,,,,,,,,,,,,,1,space,2,8.945,,,15.9119314414,,,2019_Jan_19_1734,59.96116252773898,Cloud_Experiment_FR_REAL,001,08,
images/fcloud65-35_D1.3_2.tif,1.3,1,,,,,0,6,6,52,,,,,,,,,,,,,,,,,,,None,None,None,18.485,,,,,,2019_Jan_19_1734,59.96116252773898,Cloud_Experiment_FR_REAL,001,08,
images/fcloud80-20_D1.4_2.tif,1.4,2,,,,,0,7,7,91,,,,,,,,,,,,,,,,,,,None,None,None,28.36,,,,,,2019_Jan_19_1734,59.96116252773898,Cloud_Experiment_FR_REAL,001,08,
images/fcloud65-35_D1.5_2.tif,1.5,1,,,,,0,8,8,58,,,,,,,,,,,,,,,,,,,1,None,3,2.667,,,,,,2019_Jan_19_1734,59.96116252773898,Cloud_Experiment_FR_REAL,001,08,
images/fcloud80-20_D1.5_2.tif,1.5,2,,,,,0,9,9,94,,,,,,,,,,,,,,,,,,,1,None,2,2.267,,,,,,2019_Jan_19_1734,59.96116252773898,Cloud_Experiment_FR_REAL,001,08,
images/fcloud65-35_D1.2_2.tif,1.2,1,,,,,0,10,10,49,,,,,,,,,,,,,,,,,,,None,None,None,15.62,,,,,,2019_Jan_19_1734,59.96116252773898,Cloud_Experiment_FR_REAL,001,08,
images/fcloud_D1.4_1.tif,1.4,0,,,,,0,11,11,18,,,,,,,,,,,,,,,,,,,1,None,3,4.083,,,,,,2019_Jan_19_1734,59.96116252773898,Cloud_Experiment_FR_REAL,001,08,
images/fcloud65-35_D1.8_3.tif,1.8,1,,,,,0,12,12,68,,,,,,,,,,,,,,,,,,,None,None,None,14.722,,,,,,2019_Jan_19_1734,59.96116252773898,Cloud_Experiment_FR_REAL,001,08,
images/fcloud65-35_D1.7_2.tif,1.7,1,,,,,0,13,13,64,,,,,,,,,,,,,,,,,,,None,None,None,27.377,,,,,,2019_Jan_19_1734,59.96116252773898,Cloud_Experiment_FR_REAL,001,08,
images/fcloud_D0.9_1.tif,0.9,0,,,,,0,14,14,3,,,,,,,,,,,,,,,,,,,None,None,None,36.719,,,,,,2019_Jan_19_1734,59.96116252773898,Cloud_Experiment_FR_REAL,001,08,
images/fcloud80-20_D1_2.tif,1.0,2,,,,,0,15,15,79,,,,,,,,,,,,,,,,,,,None,None,None,46.194,,,,,,2019_Jan_19_1734,59.96116252773898,Cloud_Experiment_FR_REAL,001,08,
images/fcloud65-35_D0.9_3.tif,0.9,1,,,,,0,16,16,41,,,,,,,,,,,,,,,,,,,1,None,4,3.249,,,,,,2019_Jan_19_1734,59.96116252773898,Cloud_Experiment_FR_REAL,001,08,
images/fcloud65-35_D1_3.tif,1.0,1,,,,,0,17,17,44,,,,,,,,,,,,,,,,,,,1,None,4,1.75,,,,,,2019_Jan_19_1734,59.96116252773898,Cloud_Experiment_FR_REAL,001,08,
images/fcloud_D1.8_3.tif,1.8,0,,,,,0,18,18,32,,,,,,,,,,,,,,,,,,,None,None,None,11.359,,,,,,2019_Jan_19_1734,59.96116252773898,Cloud_Experiment_FR_REAL,001,08,
images/fcloud65-35_D0.8_2.tif,0.8,1,,,,,0,19,19,37,,,,,,,,,,,,,,,,,,,1,None,4,3.533,,,,,,2019_Jan_19_1734,59.96116252773898,Cloud_Experiment_FR_REAL,001,08,
images/fcloud80-20_D1_1.tif,1.0,2,,,,,0,20,20,78,,,,,,,,,,,,,,,,,,,1,None,4,2.133,,,,,,2019_Jan_19_1734,59.96116252773898,Cloud_Experiment_FR_REAL,001,08,
images/fcloud_D1.3_1.tif,1.3,0,,,,,0,21,21,15,,,,,,,,,,,,,,,,,,,1,None,3,1.434,,,,,,2019_Jan_19_1734,59.96116252773898,Cloud_Experiment_FR_REAL,001,08,
images/fcloud_D1.7_1.tif,1.7,0,,,,,0,22,22,27,,,,,,,,,,,,,,,,,,,1,None,2,1.734,,,,,,2019_Jan_19_1734,59.96116252773898,Cloud_Experiment_FR_REAL,001,08,
images/fcloud_D1_2.tif,1.0,0,,,,,0,23,23,7,,,,,,,,,,,,,,,,,,,None,None,None,11.441,,,,,,2019_Jan_19_1734,59.96116252773898,Cloud_Experiment_FR_REAL,001,08,
images/fcloud65-35_D1_2.tif,1.0,1,,,,,0,24,24,43,,,,,,,,,,,,,,,,,,,2,None,4,4.265,,,,,,2019_Jan_19_1734,59.96116252773898,Cloud_Experiment_FR_REAL,001,08,
images/fcloud80-20_D1.1_2.tif,1.1,2,,,,,0,25,25,82,,,,,,,,,,,,,,,,,,,1,None,3,1.334,,,,,,2019_Jan_19_1734,59.96116252773898,Cloud_Experiment_FR_REAL,001,08,
images/fcloud65-35_D0.8_3.tif,0.8,1,,,,,0,26,26,38,,,,,,,,,,,,,,,,,,,None,None,None,10.641,,,,,,2019_Jan_19_1734,59.96116252773898,Cloud_Experiment_FR_REAL,001,08,
images/fcloud65-35_D1.2_1.tif,1.2,1,,,,,0,27,27,48,,,,,,,,,,,,,,,,,,,None,None,None,19.952,,,,,,2019_Jan_19_1734,59.96116252773898,Cloud_Experiment_FR_REAL,001,08,
images/fcloud_D1.4_2.tif,1.4,0,,,,,0,28,28,19,,,,,,,,,,,,,,,,,,,1,None,3,1.551,,,,,,2019_Jan_19_1734,59.96116252773898,Cloud_Experiment_FR_REAL,001,08,
images/fcloud_D1.5_1.tif,1.5,0,,,,,0,29,29,21,,,,,,,,,,,,,,,,,,,None,None,None,10.691,,,,,,2019_Jan_19_1734,59.96116252773898,Cloud_Experiment_FR_REAL,001,08,
images/fcloud80-20_D1.1_3.tif,1.1,2,,,,,0,30,30,83,,,,,,,,,,,,,,,,,,,None,None,None,19.85,,,,,,2019_Jan_19_1734,59.96116252773898,Cloud_Experiment_FR_REAL,001,08,
images/fcloud_D1.8_1.tif,1.8,0,,,,,0,31,31,30,,,,,,,,,,,,,,,,,,,None,None,None,28.944,,,,,,2019_Jan_19_1734,59.96116252773898,Cloud_Experiment_FR_REAL,001,08,
images/fcloud80-20_D1.9_1.tif,1.9,2,,,,,0,32,32,105,,,,,,,,,,,,,,,,,,,1,None,4,1.585,,,,,,2019_Jan_19_1734,59.96116252773898,Cloud_Experiment_FR_REAL,001,08,
images/fcloud65-35_D1.5_3.tif,1.5,1,,,,,0,33,33,59,,,,,,,,,,,,,,,,,,,None,None,None,10.892,,,,,,2019_Jan_19_1734,59.96116252773898,Cloud_Experiment_FR_REAL,001,08,
images/fcloud80-20_D1.2_3.tif,1.2,2,,,,,0,34,34,86,,,,,,,,,,,,,,,,,,,None,None,None,20.185,,,,,,2019_Jan_19_1734,59.96116252773898,Cloud_Experiment_FR_REAL,001,08,
images/fcloud_D1.8_2.tif,1.8,0,,,,,0,35,35,31,,,,,,,,,,,,,,,,,,,None,None,None,29.342,,,,,,2019_Jan_19_1734,59.96116252773898,Cloud_Experiment_FR_REAL,001,08,
images/fcloud80-20_D1.7_2.tif,1.7,2,,,,,0,36,36,100,,,,,,,,,,,,,,,,,,,None,None,None,38.684,,,,,,2019_Jan_19_1734,59.96116252773898,Cloud_Experiment_FR_REAL,001,08,
images/fcloud_D1.2_2.tif,1.2,0,,,,,0,37,37,13,,,,,,,,,,,,,,,,,,,3,None,3,4.699,,,,,,2019_Jan_19_1734,59.96116252773898,Cloud_Experiment_FR_REAL,001,08,
images/fcloud80-20_D1.6_3.tif,1.6,2,,,,,0,38,38,98,,,,,,,,,,,,,,,,,,,None,None,None,14.372,,,,,,2019_Jan_19_1734,59.96116252773898,Cloud_Experiment_FR_REAL,001,08,
images/fcloud65-35_D1.2_3.tif,1.2,1,,,,,0,39,39,50,,,,,,,,,,,,,,,,,,,1,None,5,1.968,,,,,,2019_Jan_19_1734,59.96116252773898,Cloud_Experiment_FR_REAL,001,08,
images/fcloud80-20_D1.6_1.tif,1.6,2,,,,,0,40,40,96,,,,,,,,,,,,,,,,,,,1,None,4,1.55,,,,,,2019_Jan_19_1734,59.96116252773898,Cloud_Experiment_FR_REAL,001,08,
images/fcloud65-35_D0.9_1.tif,0.9,1,,,,,0,41,41,39,,,,,,,,,,,,,,,,,,,None,None,None,10.775,,,,,,2019_Jan_19_1734,59.96116252773898,Cloud_Experiment_FR_REAL,001,08,
images/fcloud80-20_D1_3.tif,1.0,2,,,,,0,42,42,80,,,,,,,,,,,,,,,,,,,1,None,4,2.0,,,,,,2019_Jan_19_1734,59.96116252773898,Cloud_Experiment_FR_REAL,001,08,
images/fcloud65-35_D1.1_3.tif,1.1,1,,,,,0,43,43,47,,,,,,,,,,,,,,,,,,,2,None,3,1.368,,,,,,2019_Jan_19_1734,59.96116252773898,Cloud_Experiment_FR_REAL,001,08,
images/fcloud65-35_D0.9_2.tif,0.9,1,,,,,0,44,44,40,,,,,,,,,,,,,,,,,,,1,None,4,3.382,,,,,,2019_Jan_19_1734,59.96116252773898,Cloud_Experiment_FR_REAL,001,08,
images/fcloud65-35_D1.9_1.tif,1.9,1,,,,,0,45,45,69,,,,,,,,,,,,,,,,,,,None,None,None,13.224,,,,,,2019_Jan_19_1734,59.96116252773898,Cloud_Experiment_FR_REAL,001,08,
images/fcloud65-35_D1.3_3.tif,1.3,1,,,,,0,46,46,53,,,,,,,,,,,,,,,,,,,1,None,5,3.934,,,,,,2019_Jan_19_1734,59.96116252773898,Cloud_Experiment_FR_REAL,001,08,
images/fcloud_D1.2_3.tif,1.2,0,,,,,0,47,47,14,,,,,,,,,,,,,,,,,,,1,None,4,1.485,,,,,,2019_Jan_19_1734,59.96116252773898,Cloud_Experiment_FR_REAL,001,08,
images/fcloud65-35_D1.6_1.tif,1.6,1,,,,,0,48,48,60,,,,,,,,,,,,,,,,,,,None,None,None,10.542,,,,,,2019_Jan_19_1734,59.96116252773898,Cloud_Experiment_FR_REAL,001,08,
images/fcloud80-20_D0.8_3.tif,0.8,2,,,,,0,49,49,74,,,,,,,,,,,,,,,,,,,2,None,3,2.017,,,,,,2019_Jan_19_1734,59.96116252773898,Cloud_Experiment_FR_REAL,001,08,
images/fcloud_D1.3_2.tif,1.3,0,,,,,0,50,50,16,,,,,,,,,,,,,,,,,,,2,None,4,1.352,,,,,,2019_Jan_19_1734,59.96116252773898,Cloud_Experiment_FR_REAL,001,08,
images/fcloud65-35_D1.9_2.tif,1.9,1,,,,,0,51,51,70,,,,,,,,,,,,,,,,,,,None,None,None,10.625,,,,,,2019_Jan_19_1734,59.96116252773898,Cloud_Experiment_FR_REAL,001,08,
images/fcloud65-35_D0.8_1.tif,0.8,1,,,,,0,52,52,36,,,,,,,,,,,,,,,,,,,2,None,4,2.519,,,,,,2019_Jan_19_1734,59.96116252773898,Cloud_Experiment_FR_REAL,001,08,
images/fcloud65-35_D1.8_2.tif,1.8,1,,,,,0,53,53,67,,,,,,,,,,,,,,,,,,,None,None,None,11.874,,,,,,2019_Jan_19_1734,59.96116252773898,Cloud_Experiment_FR_REAL,001,08,
images/fcloud_D1_3.tif,1.0,0,,,,,0,54,54,8,,,,,,,,,,,,,,,,,,,None,None,None,21.949,,,,,,2019_Jan_19_1734,59.96116252773898,Cloud_Experiment_FR_REAL,001,08,
images/fcloud80-20_D0.9_3.tif,0.9,2,,,,,0,55,55,77,,,,,,,,,,,,,,,,,,,1,None,2,2.35,,,,,,2019_Jan_19_1734,59.96116252773898,Cloud_Experiment_FR_REAL,001,08,
images/fcloud_D1.7_3.tif,1.7,0,,,,,0,56,56,29,,,,,,,,,,,,,,,,,,,None,None,None,12.957,,,,,,2019_Jan_19_1734,59.96116252773898,Cloud_Experiment_FR_REAL,001,08,
images/fcloud80-20_D1.3_3.tif,1.3,2,,,,,0,57,57,89,,,,,,,,,,,,,,,,,,,1,None,2,2.699,,,,,,2019_Jan_19_1734,59.96116252773898,Cloud_Experiment_FR_REAL,001,08,
images/fcloud80-20_D1.7_1.tif,1.7,2,,,,,0,58,58,99,,,,,,,,,,,,,,,,,,,1,None,2,1.002,,,,,,2019_Jan_19_1734,59.96116252773898,Cloud_Experiment_FR_REAL,001,08,
images/fcloud_D1.6_2.tif,1.6,0,,,,,0,59,59,25,,,,,,,,,,,,,,,,,,,1,None,3,1.985,,,,,,2019_Jan_19_1734,59.96116252773898,Cloud_Experiment_FR_REAL,001,08,
images/fcloud65-35_D1.7_1.tif,1.7,1,,,,,0,60,60,63,,,,,,,,,,,,,,,,,,,1,None,2,1.252,,,,,,2019_Jan_19_1734,59.96116252773898,Cloud_Experiment_FR_REAL,001,08,
images/fcloud_D1.1_2.tif,1.1,0,,,,,0,61,61,10,,,,,,,,,,,,,,,,,,,None,None,None,10.525,,,,,,2019_Jan_19_1734,59.96116252773898,Cloud_Experiment_FR_REAL,001,08,
images/fcloud_D1.9_1.tif,1.9,0,,,,,0,62,62,33,,,,,,,,,,,,,,,,,,,None,None,None,20.418,,,,,,2019_Jan_19_1734,59.96116252773898,Cloud_Experiment_FR_REAL,001,08,
images/fcloud80-20_D0.8_2.tif,0.8,2,,,,,0,63,63,73,,,,,,,,,,,,,,,,,,,None,None,None,29.675,,,,,,2019_Jan_19_1734,59.96116252773898,Cloud_Experiment_FR_REAL,001,08,
images/fcloud65-35_D1.3_1.tif,1.3,1,,,,,0,64,64,51,,,,,,,,,,,,,,,,,,,None,None,None,39.15,,,,,,2019_Jan_19_1734,59.96116252773898,Cloud_Experiment_FR_REAL,001,08,
images/fcloud65-35_D1.7_3.tif,1.7,1,,,,,0,65,65,65,,,,,,,,,,,,,,,,,,,None,None,None,48.542,,,,,,2019_Jan_19_1734,59.96116252773898,Cloud_Experiment_FR_REAL,001,08,
images/fcloud80-20_D0.8_1.tif,0.8,2,,,,,0,66,66,72,,,,,,,,,,,,,,,,,,,1,None,2,1.367,,,,,,2019_Jan_19_1734,59.96116252773898,Cloud_Experiment_FR_REAL,001,08,
images/fcloud_D0.9_3.tif,0.9,0,,,,,0,67,67,5,,,,,,,,,,,,,,,,,,,None,None,None,10.576,,,,,,2019_Jan_19_1734,59.96116252773898,Cloud_Experiment_FR_REAL,001,08,
images/fcloud65-35_D1.8_1.tif,1.8,1,,,,,0,68,68,66,,,,,,,,,,,,,,,,,,,None,None,None,19.768,,,,,,2019_Jan_19_1734,59.96116252773898,Cloud_Experiment_FR_REAL,001,08,
images/fcloud_D1.9_2.tif,1.9,0,,,,,0,69,69,34,,,,,,,,,,,,,,,,,,,None,None,None,29.059,,,,,,2019_Jan_19_1734,59.96116252773898,Cloud_Experiment_FR_REAL,001,08,
images/fcloud_D1.6_1.tif,1.6,0,,,,,0,70,70,24,,,,,,,,,,,,,,,,,,,2,None,2,2.916,,,,,,2019_Jan_19_1734,59.96116252773898,Cloud_Experiment_FR_REAL,001,08,
images/fcloud_D1.9_3.tif,1.9,0,,,,,0,71,71,35,,,,,,,,,,,,,,,,,,,None,None,None,12.59,,,,,,2019_Jan_19_1734,59.96116252773898,Cloud_Experiment_FR_REAL,001,08,
images/fcloud80-20_D1.3_2.tif,1.3,2,,,,,0,72,72,88,,,,,,,,,,,,,,,,,,,2,None,2,1.868,,,,,,2019_Jan_19_1734,59.96116252773898,Cloud_Experiment_FR_REAL,001,08,
images/fcloud80-20_D1.8_3.tif,1.8,2,,,,,0,73,73,104,,,,,,,,,,,,,,,,,,,2,None,3,1.568,,,,,,2019_Jan_19_1734,59.96116252773898,Cloud_Experiment_FR_REAL,001,08,
images/fcloud80-20_D1.4_3.tif,1.4,2,,,,,0,74,74,92,,,,,,,,,,,,,,,,,,,1,None,2,1.235,,,,,,2019_Jan_19_1734,59.96116252773898,Cloud_Experiment_FR_REAL,001,08,
images/fcloud_D0.8_1.tif,0.8,0,,,,,0,75,75,0,,,,,,,,,,,,,,,,,,,1,None,1,2.485,,,,,,2019_Jan_19_1734,59.96116252773898,Cloud_Experiment_FR_REAL,001,08,
images/fcloud_D1.2_1.tif,1.2,0,,,,,0,76,76,12,,,,,,,,,,,,,,,,,,,2,None,2,2.134,,,,,,2019_Jan_19_1734,59.96116252773898,Cloud_Experiment_FR_REAL,001,08,
images/fcloud_D0.8_2.tif,0.8,0,,,,,0,77,77,1,,,,,,,,,,,,,,,,,,,None,None,None,11.36,,,,,,2019_Jan_19_1734,59.96116252773898,Cloud_Experiment_FR_REAL,001,08,
images/fcloud_D1.3_3.tif,1.3,0,,,,,0,78,78,17,,,,,,,,,,,,,,,,,,,None,None,None,20.801,,,,,,2019_Jan_19_1734,59.96116252773898,Cloud_Experiment_FR_REAL,001,08,
images/fcloud80-20_D1.5_3.tif,1.5,2,,,,,0,79,79,95,,,,,,,,,,,,,,,,,,,1,None,1,1.702,,,,,,2019_Jan_19_1734,59.96116252773898,Cloud_Experiment_FR_REAL,001,08,
images/fcloud65-35_D1.4_2.tif,1.4,1,,,,,0,80,80,55,,,,,,,,,,,,,,,,,,,None,None,None,11.342,,,,,,2019_Jan_19_1734,59.96116252773898,Cloud_Experiment_FR_REAL,001,08,
images/fcloud_D0.8_3.tif,0.8,0,,,,,0,81,81,2,,,,,,,,,,,,,,,,,,,3,None,2,2.934,,,,,,2019_Jan_19_1734,59.96116252773898,Cloud_Experiment_FR_REAL,001,08,
images/fcloud_D1.6_3.tif,1.6,0,,,,,0,82,82,26,,,,,,,,,,,,,,,,,,,None,None,None,13.705,,,,,,2019_Jan_19_1734,59.96116252773898,Cloud_Experiment_FR_REAL,001,08,
images/fcloud_D1_1.tif,1.0,0,,,,,0,83,83,6,,,,,,,,,,,,,,,,,,,1,None,2,1.285,,,,,,2019_Jan_19_1734,59.96116252773898,Cloud_Experiment_FR_REAL,001,08,
images/fcloud_D1.4_3.tif,1.4,0,,,,,0,84,84,20,,,,,,,,,,,,,,,,,,,3,None,3,1.219,,,,,,2019_Jan_19_1734,59.96116252773898,Cloud_Experiment_FR_REAL,001,08,
images/fcloud_D1.7_2.tif,1.7,0,,,,,0,85,85,28,,,,,,,,,,,,,,,,,,,1,None,2,7.347,,,,,,2019_Jan_19_1734,59.96116252773898,Cloud_Experiment_FR_REAL,001,08,
images/fcloud65-35_D1.1_2.tif,1.1,1,,,,,0,86,86,46,,,,,,,,,,,,,,,,,,,1,None,1,0.985,,,,,,2019_Jan_19_1734,59.96116252773898,Cloud_Experiment_FR_REAL,001,08,
images/fcloud80-20_D1.8_1.tif,1.8,2,,,,,0,87,87,102,,,,,,,,,,,,,,,,,,,1,None,2,1.535,,,,,,2019_Jan_19_1734,59.96116252773898,Cloud_Experiment_FR_REAL,001,08,
images/fcloud80-20_D0.9_1.tif,0.9,2,,,,,0,88,88,75,,,,,,,,,,,,,,,,,,,None,None,None,11.158,,,,,,2019_Jan_19_1734,59.96116252773898,Cloud_Experiment_FR_REAL,001,08,
images/fcloud80-20_D1.5_1.tif,1.5,2,,,,,0,89,89,93,,,,,,,,,,,,,,,,,,,1,None,1,1.351,,,,,,2019_Jan_19_1734,59.96116252773898,Cloud_Experiment_FR_REAL,001,08,
images/fcloud80-20_D1.2_2.tif,1.2,2,,,,,0,90,90,85,,,,,,,,,,,,,,,,,,,1,None,3,1.051,,,,,,2019_Jan_19_1734,59.96116252773898,Cloud_Experiment_FR_REAL,001,08,
images/fcloud_D1.1_3.tif,1.1,0,,,,,0,91,91,11,,,,,,,,,,,,,,,,,,,1,None,2,1.451,,,,,,2019_Jan_19_1734,59.96116252773898,Cloud_Experiment_FR_REAL,001,08,
images/fcloud_D0.9_2.tif,0.9,0,,,,,0,92,92,4,,,,,,,,,,,,,,,,,,,1,None,3,0.885,,,,,,2019_Jan_19_1734,59.96116252773898,Cloud_Experiment_FR_REAL,001,08,
images/fcloud65-35_D1.4_1.tif,1.4,1,,,,,0,93,93,54,,,,,,,,,,,,,,,,,,,1,None,3,1.467,,,,,,2019_Jan_19_1734,59.96116252773898,Cloud_Experiment_FR_REAL,001,08,
images/fcloud80-20_D1.4_1.tif,1.4,2,,,,,0,94,94,90,,,,,,,,,,,,,,,,,,,2,None,2,2.083,,,,,,2019_Jan_19_1734,59.96116252773898,Cloud_Experiment_FR_REAL,001,08,
images/fcloud_D1.1_1.tif,1.1,0,,,,,0,95,95,9,,,,,,,,,,,,,,,,,,,1,None,2,1.684,,,,,,2019_Jan_19_1734,59.96116252773898,Cloud_Experiment_FR_REAL,001,08,
images/fcloud65-35_D1.1_1.tif,1.1,1,,,,,0,96,96,45,,,,,,,,,,,,,,,,,,,3,None,2,4.781,,,,,,2019_Jan_19_1734,59.96116252773898,Cloud_Experiment_FR_REAL,001,08,
images/fcloud80-20_D1.7_3.tif,1.7,2,,,,,0,97,97,101,,,,,,,,,,,,,,,,,,,None,None,None,14.356,,,,,,2019_Jan_19_1734,59.96116252773898,Cloud_Experiment_FR_REAL,001,08,
images/fcloud65-35_D1_1.tif,1.0,1,,,,,0,98,98,42,,,,,,,,,,,,,,,,,,,None,None,None,24.596,,,,,,2019_Jan_19_1734,59.96116252773898,Cloud_Experiment_FR_REAL,001,08,
images/fcloud65-35_D1.4_3.tif,1.4,1,,,,,0,99,99,56,,,,,,,,,,,,,,,,,,,2,None,1,1.967,,,,,,2019_Jan_19_1734,59.96116252773898,Cloud_Experiment_FR_REAL,001,08,
images/fcloud80-20_D1.9_3.tif,1.9,2,,,,,0,100,100,107,,,,,,,,,,,,,,,,,,,None,None,None,11.276,,,,,,2019_Jan_19_1734,59.96116252773898,Cloud_Experiment_FR_REAL,001,08,
images/fcloud80-20_D1.8_2.tif,1.8,2,,,,,0,101,101,103,,,,,,,,,,,,,,,,,,,None,None,None,20.668,,,,,,2019_Jan_19_1734,59.96116252773898,Cloud_Experiment_FR_REAL,001,08,
images/fcloud_D1.5_3.tif,1.5,0,,,,,0,102,102,23,,,,,,,,,,,,,,,,,,,None,None,None,30.025,,,,,,2019_Jan_19_1734,59.96116252773898,Cloud_Experiment_FR_REAL,001,08,
images/fcloud80-20_D1.1_1.tif,1.1,2,,,,,0,103,103,81,,,,,,,,,,,,,,,,,,,None,None,None,39.284,,,,,,2019_Jan_19_1734,59.96116252773898,Cloud_Experiment_FR_REAL,001,08,
images/fcloud_D1.5_2.tif,1.5,0,,,,,0,104,104,22,,,,,,,,,,,,,,,,,,,None,None,None,49.826,,,,,,2019_Jan_19_1734,59.96116252773898,Cloud_Experiment_FR_REAL,001,08,
images/fcloud65-35_D1.9_3.tif,1.9,1,,,,,0,105,105,71,,,,,,,,,,,,,,,,,,,None,None,None,59.216,,,,,,2019_Jan_19_1734,59.96116252773898,Cloud_Experiment_FR_REAL,001,08,
images/fcloud80-20_D1.9_2.tif,1.9,2,,,,,0,106,106,106,,,,,,,,,,,,,,,,,,,None,None,None,68.642,,,,,,2019_Jan_19_1734,59.96116252773898,Cloud_Experiment_FR_REAL,001,08,
images/fcloud80-20_D1.6_2.tif,1.6,2,,,,,0,107,107,97,,,,,,,,,,,,,,,,,,,None,None,None,78.417,,,,,,2019_Jan_19_1734,59.96116252773898,Cloud_Experiment_FR_REAL,001,08,
,,,,,,,,,,,,,,,,,,,,,,,,,8,114.716,,,,,,,,,,,,2019_Jan_19_1734,59.96116252773898,Cloud_Experiment_FR_REAL,001,08,
,,,,,,,,,,,,,,,,,,,,,,,,,,,,,,,,,,,,space,3.69893446509,2019_Jan_19_1734,59.96116252773898,Cloud_Experiment_FR_REAL,001,08,
images/fcloud80-20_D1.3_5.tif,1.3,2,,,,,,,,,0,0,0,88,,,,,,,,,,,,,,,None,None,None,207.222,,,,,,2019_Jan_19_1734,59.96116252773898,Cloud_Experiment_FR_REAL,001,08,
images/fcloud80-20_D1.9_4.tif,1.9,2,,,,,,,,,0,1,1,105,,,,,,,,,,,,,,,None,None,None,216.514,,,,,,2019_Jan_19_1734,59.96116252773898,Cloud_Experiment_FR_REAL,001,08,
images/fcloud_D1.3_4.tif,1.3,0,,,,,,,,,0,2,2,15,,,,,,,,,,,,,,,2,None,3,3.9,,,,,,2019_Jan_19_1734,59.96116252773898,Cloud_Experiment_FR_REAL,001,08,
images/fcloud65-35_D1.7_5.tif,1.7,1,,,,,,,,,0,3,3,64,,,,,,,,,,,,,,,None,None,None,13.205,,,,,,2019_Jan_19_1734,59.96116252773898,Cloud_Experiment_FR_REAL,001,08,
images/fcloud80-20_D1.7_4.tif,1.7,2,,,,,,,,,0,4,4,99,,,,,,,,,,,,,,,None,None,None,22.581,,,,,,2019_Jan_19_1734,59.96116252773898,Cloud_Experiment_FR_REAL,001,08,
images/fcloud80-20_D1.4_5.tif,1.4,2,,,,,,,,,0,5,5,91,,,,,,,,,,,,,,,2,None,1,1.751,,,,,,2019_Jan_19_1734,59.96116252773898,Cloud_Experiment_FR_REAL,001,08,
images/fcloud_D1.2_5.tif,1.2,0,,,,,,,,,0,6,6,13,,,,,,,,,,,,,,,2,None,1,1.884,,,,,,2019_Jan_19_1734,59.96116252773898,Cloud_Experiment_FR_REAL,001,08,
images/fcloud80-20_D1.6_5.tif,1.6,2,,,,,,,,,0,7,7,97,,,,,,,,,,,,,,,1,None,1,1.035,,,,,,2019_Jan_19_1734,59.96116252773898,Cloud_Experiment_FR_REAL,001,08,
images/fcloud65-35_D1.7_4.tif,1.7,1,,,,,,,,,0,8,8,63,,,,,,,,,,,,,,,1,None,2,0.851,,,,,,2019_Jan_19_1734,59.96116252773898,Cloud_Experiment_FR_REAL,001,08,
images/fcloud80-20_D1.3_4.tif,1.3,2,,,,,,,,,0,9,9,87,,,,,,,,,,,,,,,None,None,None,10.295,,,,,,2019_Jan_19_1734,59.96116252773898,Cloud_Experiment_FR_REAL,001,08,
images/fcloud_D1.3_6.tif,1.3,0,,,,,,,,,0,10,10,17,,,,,,,,,,,,,,,2,None,3,1.019,,,,,,2019_Jan_19_1734,59.96116252773898,Cloud_Experiment_FR_REAL,001,08,
images/fcloud65-35_D0.9_6.tif,0.9,1,,,,,,,,,0,11,11,41,,,,,,,,,,,,,,,None,None,None,11.342,,,,,,2019_Jan_19_1734,59.96116252773898,Cloud_Experiment_FR_REAL,001,08,
images/fcloud_D1.4_4.tif,1.4,0,,,,,,,,,0,12,12,18,,,,,,,,,,,,,,,4,None,3,2.218,,,,,,2019_Jan_19_1734,59.96116252773898,Cloud_Experiment_FR_REAL,001,08,
images/fcloud65-35_D1.2_5.tif,1.2,1,,,,,,,,,0,13,13,49,,,,,,,,,,,,,,,3,None,3,0.936,,,,,,2019_Jan_19_1734,59.96116252773898,Cloud_Experiment_FR_REAL,001,08,
images/fcloud65-35_D1_5.tif,1.0,1,,,,,,,,,0,14,14,43,,,,,,,,,,,,,,,None,None,None,10.042,,,,,,2019_Jan_19_1734,59.96116252773898,Cloud_Experiment_FR_REAL,001,08,
images/fcloud65-35_D1.5_6.tif,1.5,1,,,,,,,,,0,15,15,59,,,,,,,,,,,,,,,2,None,1,4.065,,,,,,2019_Jan_19_1734,59.96116252773898,Cloud_Experiment_FR_REAL,001,08,
images/fcloud_D1.1_4.tif,1.1,0,,,,,,,,,0,16,16,9,,,,,,,,,,,,,,,1,None,2,0.901,,,,,,2019_Jan_19_1734,59.96116252773898,Cloud_Experiment_FR_REAL,001,08,
images/fcloud_D1.4_6.tif,1.4,0,,,,,,,,,0,17,17,20,,,,,,,,,,,,,,,2,None,2,1.802,,,,,,2019_Jan_19_1734,59.96116252773898,Cloud_Experiment_FR_REAL,001,08,
images/fcloud65-35_D1.8_6.tif,1.8,1,,,,,,,,,0,18,18,68,,,,,,,,,,,,,,,None,None,None,11.024,,,,,,2019_Jan_19_1734,59.96116252773898,Cloud_Experiment_FR_REAL,001,08,
images/fcloud_D1.6_4.tif,1.6,0,,,,,,,,,0,19,19,24,,,,,,,,,,,,,,,3,None,2,0.969,,,,,,2019_Jan_19_1734,59.96116252773898,Cloud_Experiment_FR_REAL,001,08,
images/fcloud_D1.5_4.tif,1.5,0,,,,,,,,,0,20,20,21,,,,,,,,,,,,,,,2,None,3,0.835,,,,,,2019_Jan_19_1734,59.96116252773898,Cloud_Experiment_FR_REAL,001,08,
images/fcloud_D1.9_5.tif,1.9,0,,,,,,,,,0,21,21,34,,,,,,,,,,,,,,,None,None,None,10.659,,,,,,2019_Jan_19_1734,59.96116252773898,Cloud_Experiment_FR_REAL,001,08,
images/fcloud65-35_D0.8_6.tif,0.8,1,,,,,,,,,0,22,22,38,,,,,,,,,,,,,,,None,None,None,20.449,,,,,,2019_Jan_19_1734,59.96116252773898,Cloud_Experiment_FR_REAL,001,08,
images/fcloud65-35_D0.8_5.tif,0.8,1,,,,,,,,,0,23,23,37,,,,,,,,,,,,,,,None,None,None,29.525,,,,,,2019_Jan_19_1734,59.96116252773898,Cloud_Experiment_FR_REAL,001,08,
images/fcloud_D1.8_5.tif,1.8,0,,,,,,,,,0,24,24,31,,,,,,,,,,,,,,,None,None,None,39.383,,,,,,2019_Jan_19_1734,59.96116252773898,Cloud_Experiment_FR_REAL,001,08,
images/fcloud80-20_D1.5_4.tif,1.5,2,,,,,,,,,0,25,25,93,,,,,,,,,,,,,,,None,None,None,48.709,,,,,,2019_Jan_19_1734,59.96116252773898,Cloud_Experiment_FR_REAL,001,08,
images/fcloud65-35_D1.3_5.tif,1.3,1,,,,,,,,,0,26,26,52,,,,,,,,,,,,,,,1,None,4,1.818,,,,,,2019_Jan_19_1734,59.96116252773898,Cloud_Experiment_FR_REAL,001,08,
images/fcloud80-20_D0.8_4.tif,0.8,2,,,,,,,,,0,27,27,72,,,,,,,,,,,,,,,None,None,None,12.007,,,,,,2019_Jan_19_1734,59.96116252773898,Cloud_Experiment_FR_REAL,001,08,
images/fcloud_D1.5_5.tif,1.5,0,,,,,,,,,0,28,28,22,,,,,,,,,,,,,,,2,None,1,2.7,,,,,,2019_Jan_19_1734,59.96116252773898,Cloud_Experiment_FR_REAL,001,08,
images/fcloud_D1.5_6.tif,1.5,0,,,,,,,,,0,29,29,23,,,,,,,,,,,,,,,None,None,None,12.124,,,,,,2019_Jan_19_1734,59.96116252773898,Cloud_Experiment_FR_REAL,001,08,
images/fcloud_D1_4.tif,1.0,0,,,,,,,,,0,30,30,6,,,,,,,,,,,,,,,3,None,2,1.55,,,,,,2019_Jan_19_1734,59.96116252773898,Cloud_Experiment_FR_REAL,001,08,
images/fcloud_D1.1_6.tif,1.1,0,,,,,,,,,0,31,31,11,,,,,,,,,,,,,,,2,None,1,2.566,,,,,,2019_Jan_19_1734,59.96116252773898,Cloud_Experiment_FR_REAL,001,08,
images/fcloud80-20_D1.5_6.tif,1.5,2,,,,,,,,,0,32,32,95,,,,,,,,,,,,,,,None,None,None,12.273,,,,,,2019_Jan_19_1734,59.96116252773898,Cloud_Experiment_FR_REAL,001,08,
images/fcloud65-35_D1.4_4.tif,1.4,1,,,,,,,,,0,33,33,54,,,,,,,,,,,,,,,None,None,None,21.533,,,,,,2019_Jan_19_1734,59.96116252773898,Cloud_Experiment_FR_REAL,001,08,
images/fcloud65-35_D1.1_6.tif,1.1,1,,,,,,,,,0,34,34,47,,,,,,,,,,,,,,,1,None,2,1.001,,,,,,2019_Jan_19_1734,59.96116252773898,Cloud_Experiment_FR_REAL,001,08,
images/fcloud_D1.2_6.tif,1.2,0,,,,,,,,,0,35,35,14,,,,,,,,,,,,,,,None,None,None,10.343,,,,,,2019_Jan_19_1734,59.96116252773898,Cloud_Experiment_FR_REAL,001,08,
images/fcloud_D0.9_4.tif,0.9,0,,,,,,,,,0,36,36,3,,,,,,,,,,,,,,,1,None,4,2.652,,,,,,2019_Jan_19_1734,59.96116252773898,Cloud_Experiment_FR_REAL,001,08,
images/fcloud80-20_D1.6_6.tif,1.6,2,,,,,,,,,0,37,37,98,,,,,,,,,,,,,,,None,None,None,11.809,,,,,,2019_Jan_19_1734,59.96116252773898,Cloud_Experiment_FR_REAL,001,08,
images/fcloud65-35_D1.5_5.tif,1.5,1,,,,,,,,,0,38,38,58,,,,,,,,,,,,,,,None,None,None,21.0,,,,,,2019_Jan_19_1734,59.96116252773898,Cloud_Experiment_FR_REAL,001,08,
images/fcloud_D1_6.tif,1.0,0,,,,,,,,,0,39,39,8,,,,,,,,,,,,,,,2,None,4,1.634,,,,,,2019_Jan_19_1734,59.96116252773898,Cloud_Experiment_FR_REAL,001,08,
images/fcloud80-20_D1.2_6.tif,1.2,2,,,,,,,,,0,40,40,86,,,,,,,,,,,,,,,None,None,None,11.041,,,,,,2019_Jan_19_1734,59.96116252773898,Cloud_Experiment_FR_REAL,001,08,
images/fcloud80-20_D1.1_6.tif,1.1,2,,,,,,,,,0,41,41,83,,,,,,,,,,,,,,,None,None,None,21.632,,,,,,2019_Jan_19_1734,59.96116252773898,Cloud_Experiment_FR_REAL,001,08,
images/fcloud_D1.7_6.tif,1.7,0,,,,,,,,,0,42,42,29,,,,,,,,,,,,,,,1,None,1,1.151,,,,,,2019_Jan_19_1734,59.96116252773898,Cloud_Experiment_FR_REAL,001,08,
images/fcloud80-20_D0.8_6.tif,0.8,2,,,,,,,,,0,43,43,74,,,,,,,,,,,,,,,None,None,None,10.525,,,,,,2019_Jan_19_1734,59.96116252773898,Cloud_Experiment_FR_REAL,001,08,
images/fcloud65-35_D1.7_6.tif,1.7,1,,,,,,,,,0,44,44,65,,,,,,,,,,,,,,,None,None,None,20.649,,,,,,2019_Jan_19_1734,59.96116252773898,Cloud_Experiment_FR_REAL,001,08,
images/fcloud65-35_D1.2_4.tif,1.2,1,,,,,,,,,0,45,45,48,,,,,,,,,,,,,,,2,None,3,2.433,,,,,,2019_Jan_19_1734,59.96116252773898,Cloud_Experiment_FR_REAL,001,08,
images/fcloud65-35_D1.5_4.tif,1.5,1,,,,,,,,,0,46,46,57,,,,,,,,,,,,,,,None,None,None,11.673,,,,,,2019_Jan_19_1734,59.96116252773898,Cloud_Experiment_FR_REAL,001,08,
images/fcloud_D1_5.tif,1.0,0,,,,,,,,,0,47,47,7,,,,,,,,,,,,,,,2,None,2,2.217,,,,,,2019_Jan_19_1734,59.96116252773898,Cloud_Experiment_FR_REAL,001,08,
images/fcloud_D1.1_5.tif,1.1,0,,,,,,,,,0,48,48,10,,,,,,,,,,,,,,,None,None,None,11.558,,,,,,2019_Jan_19_1734,59.96116252773898,Cloud_Experiment_FR_REAL,001,08,
images/fcloud80-20_D1.2_4.tif,1.2,2,,,,,,,,,0,49,49,84,,,,,,,,,,,,,,,1,None,3,0.918,,,,,,2019_Jan_19_1734,59.96116252773898,Cloud_Experiment_FR_REAL,001,08,
images/fcloud80-20_D1.5_5.tif,1.5,2,,,,,,,,,0,50,50,94,,,,,,,,,,,,,,,3,None,3,1.117,,,,,,2019_Jan_19_1734,59.96116252773898,Cloud_Experiment_FR_REAL,001,08,
images/fcloud_D1.6_6.tif,1.6,0,,,,,,,,,0,51,51,26,,,,,,,,,,,,,,,None,None,None,10.375,,,,,,2019_Jan_19_1734,59.96116252773898,Cloud_Experiment_FR_REAL,001,08,
images/fcloud65-35_D0.9_4.tif,0.9,1,,,,,,,,,0,52,52,39,,,,,,,,,,,,,,,None,None,None,19.817,,,,,,2019_Jan_19_1734,59.96116252773898,Cloud_Experiment_FR_REAL,001,08,
images/fcloud65-35_D1.4_6.tif,1.4,1,,,,,,,,,0,53,53,56,,,,,,,,,,,,,,,1,None,1,2.949,,,,,,2019_Jan_19_1734,59.96116252773898,Cloud_Experiment_FR_REAL,001,08,
images/fcloud_D1.4_5.tif,1.4,0,,,,,,,,,0,54,54,19,,,,,,,,,,,,,,,2,None,3,3.75,,,,,,2019_Jan_19_1734,59.96116252773898,Cloud_Experiment_FR_REAL,001,08,
images/fcloud65-35_D1.8_4.tif,1.8,1,,,,,,,,,0,55,55,66,,,,,,,,,,,,,,,None,None,None,13.14,,,,,,2019_Jan_19_1734,59.96116252773898,Cloud_Experiment_FR_REAL,001,08,
images/fcloud80-20_D1.1_5.tif,1.1,2,,,,,,,,,0,56,56,82,,,,,,,,,,,,,,,1,None,3,0.568,,,,,,2019_Jan_19_1734,59.96116252773898,Cloud_Experiment_FR_REAL,001,08,
images/fcloud80-20_D1.2_5.tif,1.2,2,,,,,,,,,0,57,57,85,,,,,,,,,,,,,,,2,None,1,1.336,,,,,,2019_Jan_19_1734,59.96116252773898,Cloud_Experiment_FR_REAL,001,08,
images/fcloud80-20_D1_5.tif,1.0,2,,,,,,,,,0,58,58,79,,,,,,,,,,,,,,,1,None,1,0.718,,,,,,2019_Jan_19_1734,59.96116252773898,Cloud_Experiment_FR_REAL,001,08,
images/fcloud80-20_D1_4.tif,1.0,2,,,,,,,,,0,59,59,78,,,,,,,,,,,,,,,None,None,None,10.125,,,,,,2019_Jan_19_1734,59.96116252773898,Cloud_Experiment_FR_REAL,001,08,
images/fcloud_D1.9_6.tif,1.9,0,,,,,,,,,0,60,60,35,,,,,,,,,,,,,,,None,None,None,19.653,,,,,,2019_Jan_19_1734,59.96116252773898,Cloud_Experiment_FR_REAL,001,08,
images/fcloud65-35_D1.4_5.tif,1.4,1,,,,,,,,,0,61,61,55,,,,,,,,,,,,,,,2,None,4,1.352,,,,,,2019_Jan_19_1734,59.96116252773898,Cloud_Experiment_FR_REAL,001,08,
images/fcloud65-35_D1.3_6.tif,1.3,1,,,,,,,,,0,62,62,53,,,,,,,,,,,,,,,2,None,3,1.003,,,,,,2019_Jan_19_1734,59.96116252773898,Cloud_Experiment_FR_REAL,001,08,
images/fcloud65-35_D1_4.tif,1.0,1,,,,,,,,,0,63,63,42,,,,,,,,,,,,,,,None,None,None,10.042,,,,,,2019_Jan_19_1734,59.96116252773898,Cloud_Experiment_FR_REAL,001,08,
images/fcloud65-35_D1.6_5.tif,1.6,1,,,,,,,,,0,64,64,61,,,,,,,,,,,,,,,None,None,None,18.967,,,,,,2019_Jan_19_1734,59.96116252773898,Cloud_Experiment_FR_REAL,001,08,
images/fcloud_D0.8_6.tif,0.8,0,,,,,,,,,0,65,65,2,,,,,,,,,,,,,,,1,None,2,1.118,,,,,,2019_Jan_19_1734,59.96116252773898,Cloud_Experiment_FR_REAL,001,08,
images/fcloud80-20_D1.6_4.tif,1.6,2,,,,,,,,,0,66,66,96,,,,,,,,,,,,,,,None,None,None,10.043,,,,,,2019_Jan_19_1734,59.96116252773898,Cloud_Experiment_FR_REAL,001,08,
images/fcloud_D0.9_5.tif,0.9,0,,,,,,,,,0,67,67,4,,,,,,,,,,,,,,,None,None,None,19.035,,,,,,2019_Jan_19_1734,59.96116252773898,Cloud_Experiment_FR_REAL,001,08,
images/fcloud80-20_D1.7_5.tif,1.7,2,,,,,,,,,0,68,68,100,,,,,,,,,,,,,,,None,None,None,27.91,,,,,,2019_Jan_19_1734,59.96116252773898,Cloud_Experiment_FR_REAL,001,08,
images/fcloud_D0.8_4.tif,0.8,0,,,,,,,,,0,69,69,0,,,,,,,,,,,,,,,1,None,1,0.701,,,,,,2019_Jan_19_1734,59.96116252773898,Cloud_Experiment_FR_REAL,001,08,
images/fcloud_D1.7_5.tif,1.7,0,,,,,,,,,0,70,70,28,,,,,,,,,,,,,,,1,None,1,1.65,,,,,,2019_Jan_19_1734,59.96116252773898,Cloud_Experiment_FR_REAL,001,08,
images/fcloud80-20_D0.9_4.tif,0.9,2,,,,,,,,,0,71,71,75,,,,,,,,,,,,,,,None,None,None,11.126,,,,,,2019_Jan_19_1734,59.96116252773898,Cloud_Experiment_FR_REAL,001,08,
images/fcloud80-20_D0.9_6.tif,0.9,2,,,,,,,,,0,72,72,77,,,,,,,,,,,,,,,2,None,2,0.635,,,,,,2019_Jan_19_1734,59.96116252773898,Cloud_Experiment_FR_REAL,001,08,
images/fcloud_D1.6_5.tif,1.6,0,,,,,,,,,0,73,73,25,,,,,,,,,,,,,,,None,None,None,9.925,,,,,,2019_Jan_19_1734,59.96116252773898,Cloud_Experiment_FR_REAL,001,08,
images/fcloud80-20_D1.9_5.tif,1.9,2,,,,,,,,,0,74,74,106,,,,,,,,,,,,,,,1,None,2,1.435,,,,,,2019_Jan_19_1734,59.96116252773898,Cloud_Experiment_FR_REAL,001,08,
images/fcloud_D1.7_4.tif,1.7,0,,,,,,,,,0,75,75,27,,,,,,,,,,,,,,,None,None,None,10.976,,,,,,2019_Jan_19_1734,59.96116252773898,Cloud_Experiment_FR_REAL,001,08,
images/fcloud80-20_D0.8_5.tif,0.8,2,,,,,,,,,0,76,76,73,,,,,,,,,,,,,,,1,None,1,0.486,,,,,,2019_Jan_19_1734,59.96116252773898,Cloud_Experiment_FR_REAL,001,08,
images/fcloud_D0.9_6.tif,0.9,0,,,,,,,,,0,77,77,5,,,,,,,,,,,,,,,3,None,3,0.868,,,,,,2019_Jan_19_1734,59.96116252773898,Cloud_Experiment_FR_REAL,001,08,
images/fcloud80-20_D1.3_6.tif,1.3,2,,,,,,,,,0,78,78,89,,,,,,,,,,,,,,,None,None,None,10.342,,,,,,2019_Jan_19_1734,59.96116252773898,Cloud_Experiment_FR_REAL,001,08,
images/fcloud80-20_D1.8_4.tif,1.8,2,,,,,,,,,0,79,79,102,,,,,,,,,,,,,,,3,None,2,0.952,,,,,,2019_Jan_19_1734,59.96116252773898,Cloud_Experiment_FR_REAL,001,08,
images/fcloud_D1.2_4.tif,1.2,0,,,,,,,,,0,80,80,12,,,,,,,,,,,,,,,5,None,3,1.618,,,,,,2019_Jan_19_1734,59.96116252773898,Cloud_Experiment_FR_REAL,001,08,
images/fcloud65-35_D1_6.tif,1.0,1,,,,,,,,,0,81,81,44,,,,,,,,,,,,,,,None,None,None,10.809,,,,,,2019_Jan_19_1734,59.96116252773898,Cloud_Experiment_FR_REAL,001,08,
images/fcloud65-35_D1.6_6.tif,1.6,1,,,,,,,,,0,82,82,62,,,,,,,,,,,,,,,2,None,2,0.784,,,,,,2019_Jan_19_1734,59.96116252773898,Cloud_Experiment_FR_REAL,001,08,
images/fcloud_D1.8_4.tif,1.8,0,,,,,,,,,0,83,83,30,,,,,,,,,,,,,,,None,None,None,9.992,,,,,,2019_Jan_19_1734,59.96116252773898,Cloud_Experiment_FR_REAL,001,08,
images/fcloud80-20_D1.1_4.tif,1.1,2,,,,,,,,,0,84,84,81,,,,,,,,,,,,,,,None,None,None,19.283,,,,,,2019_Jan_19_1734,59.96116252773898,Cloud_Experiment_FR_REAL,001,08,
images/fcloud65-35_D0.9_5.tif,0.9,1,,,,,,,,,0,85,85,40,,,,,,,,,,,,,,,1,None,4,1.519,,,,,,2019_Jan_19_1734,59.96116252773898,Cloud_Experiment_FR_REAL,001,08,
images/fcloud_D1.8_6.tif,1.8,0,,,,,,,,,0,86,86,32,,,,,,,,,,,,,,,2,None,4,0.953,,,,,,2019_Jan_19_1734,59.96116252773898,Cloud_Experiment_FR_REAL,001,08,
images/fcloud80-20_D1.9_6.tif,1.9,2,,,,,,,,,0,87,87,107,,,,,,,,,,,,,,,None,None,None,10.724,,,,,,2019_Jan_19_1734,59.96116252773898,Cloud_Experiment_FR_REAL,001,08,
images/fcloud65-35_D1.9_4.tif,1.9,1,,,,,,,,,0,88,88,69,,,,,,,,,,,,,,,None,None,None,19.918,,,,,,2019_Jan_19_1734,59.96116252773898,Cloud_Experiment_FR_REAL,001,08,
images/fcloud65-35_D1.6_4.tif,1.6,1,,,,,,,,,0,89,89,60,,,,,,,,,,,,,,,None,None,None,29.177,,,,,,2019_Jan_19_1734,59.96116252773898,Cloud_Experiment_FR_REAL,001,08,
images/fcloud65-35_D1.9_5.tif,1.9,1,,,,,,,,,0,90,90,70,,,,,,,,,,,,,,,None,None,None,38.6,,,,,,2019_Jan_19_1734,59.96116252773898,Cloud_Experiment_FR_REAL,001,08,
images/fcloud65-35_D1.1_4.tif,1.1,1,,,,,,,,,0,91,91,45,,,,,,,,,,,,,,,None,None,None,48.127,,,,,,2019_Jan_19_1734,59.96116252773898,Cloud_Experiment_FR_REAL,001,08,
images/fcloud65-35_D1.3_4.tif,1.3,1,,,,,,,,,0,92,92,51,,,,,,,,,,,,,,,None,None,None,57.417,,,,,,2019_Jan_19_1734,59.96116252773898,Cloud_Experiment_FR_REAL,001,08,
images/fcloud80-20_D1.8_6.tif,1.8,2,,,,,,,,,0,93,93,104,,,,,,,,,,,,,,,None,None,None,66.775,,,,,,2019_Jan_19_1734,59.96116252773898,Cloud_Experiment_FR_REAL,001,08,
images/fcloud65-35_D1.8_5.tif,1.8,1,,,,,,,,,0,94,94,67,,,,,,,,,,,,,,,None,None,None,76.154,,,,,,2019_Jan_19_1734,59.96116252773898,Cloud_Experiment_FR_REAL,001,08,
images/fcloud80-20_D1.4_4.tif,1.4,2,,,,,,,,,0,95,95,90,,,,,,,,,,,,,,,None,None,None,85.56,,,,,,2019_Jan_19_1734,59.96116252773898,Cloud_Experiment_FR_REAL,001,08,
images/fcloud65-35_D0.8_4.tif,0.8,1,,,,,,,,,0,96,96,36,,,,,,,,,,,,,,,2,None,3,1.634,,,,,,2019_Jan_19_1734,59.96116252773898,Cloud_Experiment_FR_REAL,001,08,
images/fcloud65-35_D1.1_5.tif,1.1,1,,,,,,,,,0,97,97,46,,,,,,,,,,,,,,,1,None,3,0.735,,,,,,2019_Jan_19_1734,59.96116252773898,Cloud_Experiment_FR_REAL,001,08,
images/fcloud_D1.3_5.tif,1.3,0,,,,,,,,,0,98,98,16,,,,,,,,,,,,,,,2,None,2,1.067,,,,,,2019_Jan_19_1734,59.96116252773898,Cloud_Experiment_FR_REAL,001,08,
images/fcloud80-20_D0.9_5.tif,0.9,2,,,,,,,,,0,99,99,76,,,,,,,,,,,,,,,None,None,None,10.393,,,,,,2019_Jan_19_1734,59.96116252773898,Cloud_Experiment_FR_REAL,001,08,
images/fcloud80-20_D1_6.tif,1.0,2,,,,,,,,,0,100,100,80,,,,,,,,,,,,,,,2,None,3,1.284,,,,,,2019_Jan_19_1734,59.96116252773898,Cloud_Experiment_FR_REAL,001,08,
images/fcloud80-20_D1.8_5.tif,1.8,2,,,,,,,,,0,101,101,103,,,,,,,,,,,,,,,None,None,None,10.792,,,,,,2019_Jan_19_1734,59.96116252773898,Cloud_Experiment_FR_REAL,001,08,
images/fcloud65-35_D1.9_6.tif,1.9,1,,,,,,,,,0,102,102,71,,,,,,,,,,,,,,,None,None,None,20.017,,,,,,2019_Jan_19_1734,59.96116252773898,Cloud_Experiment_FR_REAL,001,08,
images/fcloud80-20_D1.7_6.tif,1.7,2,,,,,,,,,0,103,103,101,,,,,,,,,,,,,,,1,None,4,0.569,,,,,,2019_Jan_19_1734,59.96116252773898,Cloud_Experiment_FR_REAL,001,08,
images/fcloud80-20_D1.4_6.tif,1.4,2,,,,,,,,,0,104,104,92,,,,,,,,,,,,,,,None,None,None,10.393,,,,,,2019_Jan_19_1734,59.96116252773898,Cloud_Experiment_FR_REAL,001,08,
images/fcloud65-35_D1.2_6.tif,1.2,1,,,,,,,,,0,105,105,50,,,,,,,,,,,,,,,2,None,4,1.635,,,,,,2019_Jan_19_1734,59.96116252773898,Cloud_Experiment_FR_REAL,001,08,
images/fcloud_D1.9_4.tif,1.9,0,,,,,,,,,0,106,106,33,,,,,,,,,,,,,,,None,None,None,11.209,,,,,,2019_Jan_19_1734,59.96116252773898,Cloud_Experiment_FR_REAL,001,08,
images/fcloud_D0.8_5.tif,0.8,0,,,,,,,,,0,107,107,1,,,,,,,,,,,,,,,3,None,4,1.151,,,,,,2019_Jan_19_1734,59.96116252773898,Cloud_Experiment_FR_REAL,001,08,
,,,,,,,,,,,,,,,,,,,,,,,,,7,283.163,,,,,,,,,,,,2019_Jan_19_1734,59.96116252773898,Cloud_Experiment_FR_REAL,001,08,
,,,,,,,,,,,,,,,,,,,,,,,,,,,,,,,,,,,,space,1.96644757607,2019_Jan_19_1734,59.96116252773898,Cloud_Experiment_FR_REAL,001,08,
images/fcloud_D1.8_7.tif,1.8,0,,,,,,,,,,,,,0,0,0,40,,,,,,,,,,,2,None,1,0.419,,,,,,2019_Jan_19_1734,59.96116252773898,Cloud_Experiment_FR_REAL,001,08,
images/fcloud80-20_D1.1_7.tif,1.1,2,,,,,,,,,,,,,0,1,1,108,,,,,,,,,,,None,None,None,9.892,,,,,,2019_Jan_19_1734,59.96116252773898,Cloud_Experiment_FR_REAL,001,08,
images/fcloud_D0.9_8.tif,0.9,0,,,,,,,,,,,,,0,2,2,5,,,,,,,,,,,3,None,3,0.601,,,,,,2019_Jan_19_1734,59.96116252773898,Cloud_Experiment_FR_REAL,001,08,
images/fcloud65-35_D1.5_7.tif,1.5,1,,,,,,,,,,,,,0,3,3,76,,,,,,,,,,,None,None,None,9.793,,,,,,2019_Jan_19_1734,59.96116252773898,Cloud_Experiment_FR_REAL,001,08,
images/fcloud65-35_D0.8_10.tif,0.8,1,,,,,,,,,,,,,0,4,4,51,,,,,,,,,,,None,None,None,18.918,,,,,,2019_Jan_19_1734,59.96116252773898,Cloud_Experiment_FR_REAL,001,08,
images/fcloud65-35_D1.8_8.tif,1.8,1,,,,,,,,,,,,,0,5,5,89,,,,,,,,,,,None,None,None,27.994,,,,,,2019_Jan_19_1734,59.96116252773898,Cloud_Experiment_FR_REAL,001,08,
images/fcloud_D1.3_7.tif,1.3,0,,,,,,,,,,,,,0,6,6,20,,,,,,,,,,,2,None,3,2.184,,,,,,2019_Jan_19_1734,59.96116252773898,Cloud_Experiment_FR_REAL,001,08,
images/fcloud_D1.5_7.tif,1.5,0,,,,,,,,,,,,,0,7,7,28,,,,,,,,,,,None,None,None,11.591,,,,,,2019_Jan_19_1734,59.96116252773898,Cloud_Experiment_FR_REAL,001,08,
images/fcloud80-20_D1.1_10.tif,1.1,2,,,,,,,,,,,,,0,8,8,111,,,,,,,,,,,None,None,None,20.717,,,,,,2019_Jan_19_1734,59.96116252773898,Cloud_Experiment_FR_REAL,001,08,
images/fcloud65-35_D1.3_8.tif,1.3,1,,,,,,,,,,,,,0,9,9,69,,,,,,,,,,,None,None,None,29.809,,,,,,2019_Jan_19_1734,59.96116252773898,Cloud_Experiment_FR_REAL,001,08,
images/fcloud80-20_D0.8_10.tif,0.8,2,,,,,,,,,,,,,0,10,10,99,,,,,,,,,,,None,None,None,38.917,,,,,,2019_Jan_19_1734,59.96116252773898,Cloud_Experiment_FR_REAL,001,08,
images/fcloud_D1.6_9.tif,1.6,0,,,,,,,,,,,,,0,11,11,34,,,,,,,,,,,2,None,3,0.668,,,,,,2019_Jan_19_1734,59.96116252773898,Cloud_Experiment_FR_REAL,001,08,
images/fcloud80-20_D1.5_7.tif,1.5,2,,,,,,,,,,,,,0,12,12,124,,,,,,,,,,,None,None,None,9.876,,,,,,2019_Jan_19_1734,59.96116252773898,Cloud_Experiment_FR_REAL,001,08,
images/fcloud65-35_D1_9.tif,1.0,1,,,,,,,,,,,,,0,13,13,58,,,,,,,,,,,1,None,1,0.469,,,,,,2019_Jan_19_1734,59.96116252773898,Cloud_Experiment_FR_REAL,001,08,
images/fcloud80-20_D1.1_9.tif,1.1,2,,,,,,,,,,,,,0,14,14,110,,,,,,,,,,,1,None,2,1.219,,,,,,2019_Jan_19_1734,59.96116252773898,Cloud_Experiment_FR_REAL,001,08,
images/fcloud65-35_D1.2_9.tif,1.2,1,,,,,,,,,,,,,0,15,15,66,,,,,,,,,,,None,None,None,10.476,,,,,,2019_Jan_19_1734,59.96116252773898,Cloud_Experiment_FR_REAL,001,08,
images/fcloud65-35_D1.7_9.tif,1.7,1,,,,,,,,,,,,,0,16,16,86,,,,,,,,,,,2,None,2,0.853,,,,,,2019_Jan_19_1734,59.96116252773898,Cloud_Experiment_FR_REAL,001,08,
images/fcloud65-35_D1.7_10.tif,1.7,1,,,,,,,,,,,,,0,17,17,87,,,,,,,,,,,None,None,None,9.96,,,,,,2019_Jan_19_1734,59.96116252773898,Cloud_Experiment_FR_REAL,001,08,
images/fcloud65-35_D0.9_9.tif,0.9,1,,,,,,,,,,,,,0,18,18,54,,,,,,,,,,,2,None,4,0.87,,,,,,2019_Jan_19_1734,59.96116252773898,Cloud_Experiment_FR_REAL,001,08,
images/fcloud80-20_D0.8_8.tif,0.8,2,,,,,,,,,,,,,0,19,19,97,,,,,,,,,,,None,None,None,10.975,,,,,,2019_Jan_19_1734,59.96116252773898,Cloud_Experiment_FR_REAL,001,08,
images/fcloud65-35_D0.9_10.tif,0.9,1,,,,,,,,,,,,,0,20,20,55,,,,,,,,,,,None,None,None,20.301,,,,,,2019_Jan_19_1734,59.96116252773898,Cloud_Experiment_FR_REAL,001,08,
images/fcloud65-35_D1.8_10.tif,1.8,1,,,,,,,,,,,,,0,21,21,91,,,,,,,,,,,None,None,None,29.76,,,,,,2019_Jan_19_1734,59.96116252773898,Cloud_Experiment_FR_REAL,001,08,
images/fcloud_D1.2_9.tif,1.2,0,,,,,,,,,,,,,0,22,22,18,,,,,,,,,,,3,None,2,1.185,,,,,,2019_Jan_19_1734,59.96116252773898,Cloud_Experiment_FR_REAL,001,08,
images/fcloud80-20_D1.7_10.tif,1.7,2,,,,,,,,,,,,,0,23,23,135,,,,,,,,,,,1,None,3,0.901,,,,,,2019_Jan_19_1734,59.96116252773898,Cloud_Experiment_FR_REAL,001,08,
images/fcloud80-20_D1.2_7.tif,1.2,2,,,,,,,,,,,,,0,24,24,112,,,,,,,,,,,None,None,None,10.378,,,,,,2019_Jan_19_1734,59.96116252773898,Cloud_Experiment_FR_REAL,001,08,
images/fcloud80-20_D0.8_7.tif,0.8,2,,,,,,,,,,,,,0,25,25,96,,,,,,,,,,,None,None,None,19.951,,,,,,2019_Jan_19_1734,59.96116252773898,Cloud_Experiment_FR_REAL,001,08,
images/fcloud_D1.2_7.tif,1.2,0,,,,,,,,,,,,,0,26,26,16,,,,,,,,,,,None,None,None,29.11,,,,,,2019_Jan_19_1734,59.96116252773898,Cloud_Experiment_FR_REAL,001,08,
images/fcloud80-20_D1.3_7.tif,1.3,2,,,,,,,,,,,,,0,27,27,116,,,,,,,,,,,None,None,None,38.335,,,,,,2019_Jan_19_1734,59.96116252773898,Cloud_Experiment_FR_REAL,001,08,
images/fcloud80-20_D0.8_9.tif,0.8,2,,,,,,,,,,,,,0,28,28,98,,,,,,,,,,,None,None,None,48.425,,,,,,2019_Jan_19_1734,59.96116252773898,Cloud_Experiment_FR_REAL,001,08,
images/fcloud65-35_D1.9_7.tif,1.9,1,,,,,,,,,,,,,0,29,29,92,,,,,,,,,,,None,None,None,57.768,,,,,,2019_Jan_19_1734,59.96116252773898,Cloud_Experiment_FR_REAL,001,08,
images/fcloud_D1.8_8.tif,1.8,0,,,,,,,,,,,,,0,30,30,41,,,,,,,,,,,1,None,4,0.835,,,,,,2019_Jan_19_1734,59.96116252773898,Cloud_Experiment_FR_REAL,001,08,
images/fcloud65-35_D0.9_8.tif,0.9,1,,,,,,,,,,,,,0,31,31,53,,,,,,,,,,,None,None,None,9.975,,,,,,2019_Jan_19_1734,59.96116252773898,Cloud_Experiment_FR_REAL,001,08,
images/fcloud80-20_D1.4_9.tif,1.4,2,,,,,,,,,,,,,0,32,32,122,,,,,,,,,,,1,None,2,1.234,,,,,,2019_Jan_19_1734,59.96116252773898,Cloud_Experiment_FR_REAL,001,08,
images/fcloud80-20_D1.6_10.tif,1.6,2,,,,,,,,,,,,,0,33,33,131,,,,,,,,,,,None,None,None,12.324,,,,,,2019_Jan_19_1734,59.96116252773898,Cloud_Experiment_FR_REAL,001,08,
images/fcloud80-20_D0.9_9.tif,0.9,2,,,,,,,,,,,,,0,34,34,102,,,,,,,,,,,3,None,1,1.384,,,,,,2019_Jan_19_1734,59.96116252773898,Cloud_Experiment_FR_REAL,001,08,
images/fcloud65-35_D1.1_7.tif,1.1,1,,,,,,,,,,,,,0,35,35,60,,,,,,,,,,,2,None,1,1.052,,,,,,2019_Jan_19_1734,59.96116252773898,Cloud_Experiment_FR_REAL,001,08,
images/fcloud80-20_D1_7.tif,1.0,2,,,,,,,,,,,,,0,36,36,104,,,,,,,,,,,3,None,1,1.052,,,,,,2019_Jan_19_1734,59.96116252773898,Cloud_Experiment_FR_REAL,001,08,
images/fcloud80-20_D1.9_7.tif,1.9,2,,,,,,,,,,,,,0,37,37,140,,,,,,,,,,,None,None,None,10.408,,,,,,2019_Jan_19_1734,59.96116252773898,Cloud_Experiment_FR_REAL,001,08,
images/fcloud80-20_D1.5_8.tif,1.5,2,,,,,,,,,,,,,0,38,38,125,,,,,,,,,,,None,None,None,19.85,,,,,,2019_Jan_19_1734,59.96116252773898,Cloud_Experiment_FR_REAL,001,08,
images/fcloud_D1.7_8.tif,1.7,0,,,,,,,,,,,,,0,39,39,37,,,,,,,,,,,2,None,4,1.951,,,,,,2019_Jan_19_1734,59.96116252773898,Cloud_Experiment_FR_REAL,001,08,
images/fcloud_D0.8_8.tif,0.8,0,,,,,,,,,,,,,0,40,40,1,,,,,,,,,,,2,None,5,0.586,,,,,,2019_Jan_19_1734,59.96116252773898,Cloud_Experiment_FR_REAL,001,08,
images/fcloud80-20_D1.8_10.tif,1.8,2,,,,,,,,,,,,,0,41,41,139,,,,,,,,,,,None,None,None,9.977,,,,,,2019_Jan_19_1734,59.96116252773898,Cloud_Experiment_FR_REAL,001,08,
images/fcloud_D1.6_8.tif,1.6,0,,,,,,,,,,,,,0,42,42,33,,,,,,,,,,,2,None,3,1.402,,,,,,2019_Jan_19_1734,59.96116252773898,Cloud_Experiment_FR_REAL,001,08,
images/fcloud80-20_D1_8.tif,1.0,2,,,,,,,,,,,,,0,43,43,105,,,,,,,,,,,None,None,None,10.509,,,,,,2019_Jan_19_1734,59.96116252773898,Cloud_Experiment_FR_REAL,001,08,
images/fcloud65-35_D1.5_10.tif,1.5,1,,,,,,,,,,,,,0,44,44,79,,,,,,,,,,,None,None,None,19.9,,,,,,2019_Jan_19_1734,59.96116252773898,Cloud_Experiment_FR_REAL,001,08,
images/fcloud65-35_D1.8_7.tif,1.8,1,,,,,,,,,,,,,0,45,45,88,,,,,,,,,,,None,None,None,29.209,,,,,,2019_Jan_19_1734,59.96116252773898,Cloud_Experiment_FR_REAL,001,08,
images/fcloud_D0.8_10.tif,0.8,0,,,,,,,,,,,,,0,46,46,3,,,,,,,,,,,None,None,None,38.417,,,,,,2019_Jan_19_1734,59.96116252773898,Cloud_Experiment_FR_REAL,001,08,
images/fcloud65-35_D1_8.tif,1.0,1,,,,,,,,,,,,,0,47,47,57,,,,,,,,,,,None,None,None,47.542,,,,,,2019_Jan_19_1734,59.96116252773898,Cloud_Experiment_FR_REAL,001,08,
images/fcloud_D0.9_10.tif,0.9,0,,,,,,,,,,,,,0,48,48,7,,,,,,,,,,,1,None,2,0.453,,,,,,2019_Jan_19_1734,59.96116252773898,Cloud_Experiment_FR_REAL,001,08,
images/fcloud_D1_9.tif,1.0,0,,,,,,,,,,,,,0,49,49,10,,,,,,,,,,,None,None,None,9.443,,,,,,2019_Jan_19_1734,59.96116252773898,Cloud_Experiment_FR_REAL,001,08,
images/fcloud65-35_D1.4_7.tif,1.4,1,,,,,,,,,,,,,0,50,50,72,,,,,,,,,,,None,None,None,18.369,,,,,,2019_Jan_19_1734,59.96116252773898,Cloud_Experiment_FR_REAL,001,08,
images/fcloud_D1.9_10.tif,1.9,0,,,,,,,,,,,,,0,51,51,47,,,,,,,,,,,3,None,2,0.518,,,,,,2019_Jan_19_1734,59.96116252773898,Cloud_Experiment_FR_REAL,001,08,
images/fcloud80-20_D0.9_8.tif,0.9,2,,,,,,,,,,,,,0,52,52,101,,,,,,,,,,,None,None,None,9.959,,,,,,2019_Jan_19_1734,59.96116252773898,Cloud_Experiment_FR_REAL,001,08,
images/fcloud65-35_D1.6_10.tif,1.6,1,,,,,,,,,,,,,0,53,53,83,,,,,,,,,,,1,None,1,1.019,,,,,,2019_Jan_19_1734,59.96116252773898,Cloud_Experiment_FR_REAL,001,08,
images/fcloud65-35_D1.8_9.tif,1.8,1,,,,,,,,,,,,,0,54,54,90,,,,,,,,,,,2,None,1,0.485,,,,,,2019_Jan_19_1734,59.96116252773898,Cloud_Experiment_FR_REAL,001,08,
images/fcloud65-35_D1_7.tif,1.0,1,,,,,,,,,,,,,0,55,55,56,,,,,,,,,,,1,None,1,1.285,,,,,,2019_Jan_19_1734,59.96116252773898,Cloud_Experiment_FR_REAL,001,08,
images/fcloud80-20_D1.3_8.tif,1.3,2,,,,,,,,,,,,,0,56,56,117,,,,,,,,,,,1,None,1,0.952,,,,,,2019_Jan_19_1734,59.96116252773898,Cloud_Experiment_FR_REAL,001,08,
images/fcloud_D0.9_9.tif,0.9,0,,,,,,,,,,,,,0,57,57,6,,,,,,,,,,,3,None,3,2.034,,,,,,2019_Jan_19_1734,59.96116252773898,Cloud_Experiment_FR_REAL,001,08,
images/fcloud_D1.5_10.tif,1.5,0,,,,,,,,,,,,,0,58,58,31,,,,,,,,,,,2,None,1,1.201,,,,,,2019_Jan_19_1734,59.96116252773898,Cloud_Experiment_FR_REAL,001,08,
images/fcloud_D1.8_9.tif,1.8,0,,,,,,,,,,,,,0,59,59,42,,,,,,,,,,,None,None,None,10.842,,,,,,2019_Jan_19_1734,59.96116252773898,Cloud_Experiment_FR_REAL,001,08,
images/fcloud65-35_D1.9_8.tif,1.9,1,,,,,,,,,,,,,0,60,60,93,,,,,,,,,,,None,None,None,20.034,,,,,,2019_Jan_19_1734,59.96116252773898,Cloud_Experiment_FR_REAL,001,08,
images/fcloud65-35_D1.3_10.tif,1.3,1,,,,,,,,,,,,,0,61,61,71,,,,,,,,,,,None,None,None,32.489,,,,,,2019_Jan_19_1734,59.96116252773898,Cloud_Experiment_FR_REAL,001,08,
images/fcloud65-35_D1.7_7.tif,1.7,1,,,,,,,,,,,,,0,62,62,84,,,,,,,,,,,None,None,None,42.331,,,,,,2019_Jan_19_1734,59.96116252773898,Cloud_Experiment_FR_REAL,001,08,
images/fcloud65-35_D0.9_7.tif,0.9,1,,,,,,,,,,,,,0,63,63,52,,,,,,,,,,,None,None,None,51.857,,,,,,2019_Jan_19_1734,59.96116252773898,Cloud_Experiment_FR_REAL,001,08,
images/fcloud_D1.4_10.tif,1.4,0,,,,,,,,,,,,,0,64,64,27,,,,,,,,,,,2,None,3,0.934,,,,,,2019_Jan_19_1734,59.96116252773898,Cloud_Experiment_FR_REAL,001,08,
images/fcloud80-20_D1.8_7.tif,1.8,2,,,,,,,,,,,,,0,65,65,136,,,,,,,,,,,None,None,None,10.227,,,,,,2019_Jan_19_1734,59.96116252773898,Cloud_Experiment_FR_REAL,001,08,
images/fcloud80-20_D1_9.tif,1.0,2,,,,,,,,,,,,,0,66,66,106,,,,,,,,,,,1,None,1,1.218,,,,,,2019_Jan_19_1734,59.96116252773898,Cloud_Experiment_FR_REAL,001,08,
images/fcloud80-20_D1.8_8.tif,1.8,2,,,,,,,,,,,,,0,67,67,137,,,,,,,,,,,None,None,None,11.125,,,,,,2019_Jan_19_1734,59.96116252773898,Cloud_Experiment_FR_REAL,001,08,
images/fcloud65-35_D1.3_7.tif,1.3,1,,,,,,,,,,,,,0,68,68,68,,,,,,,,,,,2,None,2,1.051,,,,,,2019_Jan_19_1734,59.96116252773898,Cloud_Experiment_FR_REAL,001,08,
images/fcloud_D1_7.tif,1.0,0,,,,,,,,,,,,,0,69,69,8,,,,,,,,,,,2,None,1,1.217,,,,,,2019_Jan_19_1734,59.96116252773898,Cloud_Experiment_FR_REAL,001,08,
images/fcloud_D1.3_10.tif,1.3,0,,,,,,,,,,,,,0,70,70,23,,,,,,,,,,,None,None,None,10.945,,,,,,2019_Jan_19_1734,59.96116252773898,Cloud_Experiment_FR_REAL,001,08,
images/fcloud80-20_D1.6_7.tif,1.6,2,,,,,,,,,,,,,0,71,71,128,,,,,,,,,,,None,None,None,19.867,,,,,,2019_Jan_19_1734,59.96116252773898,Cloud_Experiment_FR_REAL,001,08,
images/fcloud80-20_D1.8_9.tif,1.8,2,,,,,,,,,,,,,0,72,72,138,,,,,,,,,,,1,None,1,1.019,,,,,,2019_Jan_19_1734,59.96116252773898,Cloud_Experiment_FR_REAL,001,08,
images/fcloud_D1.9_7.tif,1.9,0,,,,,,,,,,,,,0,73,73,44,,,,,,,,,,,3,None,2,0.685,,,,,,2019_Jan_19_1734,59.96116252773898,Cloud_Experiment_FR_REAL,001,08,
images/fcloud65-35_D1.4_8.tif,1.4,1,,,,,,,,,,,,,0,74,74,73,,,,,,,,,,,None,None,None,10.01,,,,,,2019_Jan_19_1734,59.96116252773898,Cloud_Experiment_FR_REAL,001,08,
images/fcloud80-20_D1.4_10.tif,1.4,2,,,,,,,,,,,,,0,75,75,123,,,,,,,,,,,2,None,1,1.135,,,,,,2019_Jan_19_1734,59.96116252773898,Cloud_Experiment_FR_REAL,001,08,
images/fcloud_D1.1_9.tif,1.1,0,,,,,,,,,,,,,0,76,76,14,,,,,,,,,,,None,None,None,10.542,,,,,,2019_Jan_19_1734,59.96116252773898,Cloud_Experiment_FR_REAL,001,08,
images/fcloud_D1.7_7.tif,1.7,0,,,,,,,,,,,,,0,77,77,36,,,,,,,,,,,1,None,2,1.385,,,,,,2019_Jan_19_1734,59.96116252773898,Cloud_Experiment_FR_REAL,001,08,
images/fcloud65-35_D1.2_8.tif,1.2,1,,,,,,,,,,,,,0,78,78,65,,,,,,,,,,,None,None,None,10.675,,,,,,2019_Jan_19_1734,59.96116252773898,Cloud_Experiment_FR_REAL,001,08,
images/fcloud_D1.5_8.tif,1.5,0,,,,,,,,,,,,,0,79,79,29,,,,,,,,,,,4,None,1,1.217,,,,,,2019_Jan_19_1734,59.96116252773898,Cloud_Experiment_FR_REAL,001,08,
images/fcloud65-35_D0.8_9.tif,0.8,1,,,,,,,,,,,,,0,80,80,50,,,,,,,,,,,None,None,None,10.593,,,,,,2019_Jan_19_1734,59.96116252773898,Cloud_Experiment_FR_REAL,001,08,
images/fcloud80-20_D0.9_7.tif,0.9,2,,,,,,,,,,,,,0,81,81,100,,,,,,,,,,,2,None,1,0.901,,,,,,2019_Jan_19_1734,59.96116252773898,Cloud_Experiment_FR_REAL,001,08,
images/fcloud80-20_D1.5_9.tif,1.5,2,,,,,,,,,,,,,0,82,82,126,,,,,,,,,,,None,None,None,10.225,,,,,,2019_Jan_19_1734,59.96116252773898,Cloud_Experiment_FR_REAL,001,08,
images/fcloud_D1.1_7.tif,1.1,0,,,,,,,,,,,,,0,83,83,12,,,,,,,,,,,2,None,3,2.433,,,,,,2019_Jan_19_1734,59.96116252773898,Cloud_Experiment_FR_REAL,001,08,
images/fcloud80-20_D1.7_8.tif,1.7,2,,,,,,,,,,,,,0,84,84,133,,,,,,,,,,,None,None,None,11.541,,,,,,2019_Jan_19_1734,59.96116252773898,Cloud_Experiment_FR_REAL,001,08,
images/fcloud80-20_D1.4_7.tif,1.4,2,,,,,,,,,,,,,0,85,85,120,,,,,,,,,,,None,None,None,20.583,,,,,,2019_Jan_19_1734,59.96116252773898,Cloud_Experiment_FR_REAL,001,08,
images/fcloud80-20_D1.1_8.tif,1.1,2,,,,,,,,,,,,,0,86,86,109,,,,,,,,,,,1,None,3,1.467,,,,,,2019_Jan_19_1734,59.96116252773898,Cloud_Experiment_FR_REAL,001,08,
images/fcloud_D1.2_8.tif,1.2,0,,,,,,,,,,,,,0,87,87,17,,,,,,,,,,,2,None,4,0.601,,,,,,2019_Jan_19_1734,59.96116252773898,Cloud_Experiment_FR_REAL,001,08,
images/fcloud65-35_D1.6_9.tif,1.6,1,,,,,,,,,,,,,0,88,88,82,,,,,,,,,,,None,None,None,11.026,,,,,,2019_Jan_19_1734,59.96116252773898,Cloud_Experiment_FR_REAL,001,08,
images/fcloud_D1.5_9.tif,1.5,0,,,,,,,,,,,,,0,89,89,30,,,,,,,,,,,5,None,1,0.485,,,,,,2019_Jan_19_1734,59.96116252773898,Cloud_Experiment_FR_REAL,001,08,
images/fcloud80-20_D1.9_8.tif,1.9,2,,,,,,,,,,,,,0,90,90,141,,,,,,,,,,,None,None,None,9.693,,,,,,2019_Jan_19_1734,59.96116252773898,Cloud_Experiment_FR_REAL,001,08,
images/fcloud65-35_D1.1_9.tif,1.1,1,,,,,,,,,,,,,0,91,91,62,,,,,,,,,,,None,None,None,18.801,,,,,,2019_Jan_19_1734,59.96116252773898,Cloud_Experiment_FR_REAL,001,08,
images/fcloud_D0.8_9.tif,0.8,0,,,,,,,,,,,,,0,92,92,2,,,,,,,,,,,2,None,1,0.967,,,,,,2019_Jan_19_1734,59.96116252773898,Cloud_Experiment_FR_REAL,001,08,
images/fcloud65-35_D1.5_9.tif,1.5,1,,,,,,,,,,,,,0,93,93,78,,,,,,,,,,,None,None,None,10.809,,,,,,2019_Jan_19_1734,59.96116252773898,Cloud_Experiment_FR_REAL,001,08,
images/fcloud_D1.1_10.tif,1.1,0,,,,,,,,,,,,,0,94,94,15,,,,,,,,,,,2,None,2,1.219,,,,,,2019_Jan_19_1734,59.96116252773898,Cloud_Experiment_FR_REAL,001,08,
images/fcloud_D1.7_9.tif,1.7,0,,,,,,,,,,,,,0,95,95,38,,,,,,,,,,,None,None,None,10.342,,,,,,2019_Jan_19_1734,59.96116252773898,Cloud_Experiment_FR_REAL,001,08,
images/fcloud65-35_D1.7_8.tif,1.7,1,,,,,,,,,,,,,0,96,96,85,,,,,,,,,,,None,None,None,19.534,,,,,,2019_Jan_19_1734,59.96116252773898,Cloud_Experiment_FR_REAL,001,08,
images/fcloud_D1.7_10.tif,1.7,0,,,,,,,,,,,,,0,97,97,39,,,,,,,,,,,None,None,None,29.042,,,,,,2019_Jan_19_1734,59.96116252773898,Cloud_Experiment_FR_REAL,001,08,
images/fcloud_D1.4_7.tif,1.4,0,,,,,,,,,,,,,0,98,98,24,,,,,,,,,,,2,None,3,0.968,,,,,,2019_Jan_19_1734,59.96116252773898,Cloud_Experiment_FR_REAL,001,08,
images/fcloud65-35_D1_10.tif,1.0,1,,,,,,,,,,,,,0,99,99,59,,,,,,,,,,,1,None,4,1.035,,,,,,2019_Jan_19_1734,59.96116252773898,Cloud_Experiment_FR_REAL,001,08,
images/fcloud_D1.4_8.tif,1.4,0,,,,,,,,,,,,,0,100,100,25,,,,,,,,,,,1,None,3,0.718,,,,,,2019_Jan_19_1734,59.96116252773898,Cloud_Experiment_FR_REAL,001,08,
images/fcloud80-20_D1.2_8.tif,1.2,2,,,,,,,,,,,,,0,101,101,113,,,,,,,,,,,None,None,None,10.175,,,,,,2019_Jan_19_1734,59.96116252773898,Cloud_Experiment_FR_REAL,001,08,
images/fcloud_D1_10.tif,1.0,0,,,,,,,,,,,,,0,102,102,11,,,,,,,,,,,2,None,2,2.418,,,,,,2019_Jan_19_1734,59.96116252773898,Cloud_Experiment_FR_REAL,001,08,
images/fcloud65-35_D1.4_10.tif,1.4,1,,,,,,,,,,,,,0,103,103,75,,,,,,,,,,,1,None,1,0.785,,,,,,2019_Jan_19_1734,59.96116252773898,Cloud_Experiment_FR_REAL,001,08,
images/fcloud65-35_D1.1_8.tif,1.1,1,,,,,,,,,,,,,0,104,104,61,,,,,,,,,,,None,None,None,10.392,,,,,,2019_Jan_19_1734,59.96116252773898,Cloud_Experiment_FR_REAL,001,08,
images/fcloud65-35_D0.8_7.tif,0.8,1,,,,,,,,,,,,,0,105,105,48,,,,,,,,,,,None,None,None,19.936,,,,,,2019_Jan_19_1734,59.96116252773898,Cloud_Experiment_FR_REAL,001,08,
images/fcloud_D1.9_9.tif,1.9,0,,,,,,,,,,,,,0,106,106,46,,,,,,,,,,,None,None,None,29.56,,,,,,2019_Jan_19_1734,59.96116252773898,Cloud_Experiment_FR_REAL,001,08,
images/fcloud65-35_D1.2_10.tif,1.2,1,,,,,,,,,,,,,0,107,107,67,,,,,,,,,,,None,None,None,39.118,,,,,,2019_Jan_19_1734,59.96116252773898,Cloud_Experiment_FR_REAL,001,08,
images/fcloud_D1.6_10.tif,1.6,0,,,,,,,,,,,,,0,108,108,35,,,,,,,,,,,None,None,None,49.525,,,,,,2019_Jan_19_1734,59.96116252773898,Cloud_Experiment_FR_REAL,001,08,
images/fcloud80-20_D1.6_8.tif,1.6,2,,,,,,,,,,,,,0,109,109,129,,,,,,,,,,,None,None,None,61.285,,,,,,2019_Jan_19_1734,59.96116252773898,Cloud_Experiment_FR_REAL,001,08,
images/fcloud_D1.3_9.tif,1.3,0,,,,,,,,,,,,,0,110,110,22,,,,,,,,,,,None,None,None,70.725,,,,,,2019_Jan_19_1734,59.96116252773898,Cloud_Experiment_FR_REAL,001,08,
images/fcloud65-35_D1.5_8.tif,1.5,1,,,,,,,,,,,,,0,111,111,77,,,,,,,,,,,None,None,None,80.049,,,,,,2019_Jan_19_1734,59.96116252773898,Cloud_Experiment_FR_REAL,001,08,
images/fcloud65-35_D1.6_8.tif,1.6,1,,,,,,,,,,,,,0,112,112,81,,,,,,,,,,,None,None,None,89.242,,,,,,2019_Jan_19_1734,59.96116252773898,Cloud_Experiment_FR_REAL,001,08,
images/fcloud80-20_D1.4_8.tif,1.4,2,,,,,,,,,,,,,0,113,113,121,,,,,,,,,,,None,None,None,98.651,,,,,,2019_Jan_19_1734,59.96116252773898,Cloud_Experiment_FR_REAL,001,08,
images/fcloud65-35_D1.3_9.tif,1.3,1,,,,,,,,,,,,,0,114,114,70,,,,,,,,,,,None,None,None,107.675,,,,,,2019_Jan_19_1734,59.96116252773898,Cloud_Experiment_FR_REAL,001,08,
images/fcloud_D1.8_10.tif,1.8,0,,,,,,,,,,,,,0,115,115,43,,,,,,,,,,,None,None,None,117.416,,,,,,2019_Jan_19_1734,59.96116252773898,Cloud_Experiment_FR_REAL,001,08,
images/fcloud_D1.9_8.tif,1.9,0,,,,,,,,,,,,,0,116,116,45,,,,,,,,,,,None,None,None,125.959,,,,,,2019_Jan_19_1734,59.96116252773898,Cloud_Experiment_FR_REAL,001,08,
images/fcloud65-35_D1.9_10.tif,1.9,1,,,,,,,,,,,,,0,117,117,95,,,,,,,,,,,2,None,4,1.201,,,,,,2019_Jan_19_1734,59.96116252773898,Cloud_Experiment_FR_REAL,001,08,
images/fcloud_D1.1_8.tif,1.1,0,,,,,,,,,,,,,0,118,118,13,,,,,,,,,,,4,None,2,0.951,,,,,,2019_Jan_19_1734,59.96116252773898,Cloud_Experiment_FR_REAL,001,08,
images/fcloud_D1.3_8.tif,1.3,0,,,,,,,,,,,,,0,119,119,21,,,,,,,,,,,None,None,None,11.042,,,,,,2019_Jan_19_1734,59.96116252773898,Cloud_Experiment_FR_REAL,001,08,
images/fcloud_D1.4_9.tif,1.4,0,,,,,,,,,,,,,0,120,120,26,,,,,,,,,,,2,None,1,1.052,,,,,,2019_Jan_19_1734,59.96116252773898,Cloud_Experiment_FR_REAL,001,08,
images/fcloud80-20_D1.6_9.tif,1.6,2,,,,,,,,,,,,,0,121,121,130,,,,,,,,,,,None,None,None,10.825,,,,,,2019_Jan_19_1734,59.96116252773898,Cloud_Experiment_FR_REAL,001,08,
images/fcloud_D1.2_10.tif,1.2,0,,,,,,,,,,,,,0,122,122,19,,,,,,,,,,,None,None,None,20.335,,,,,,2019_Jan_19_1734,59.96116252773898,Cloud_Experiment_FR_REAL,001,08,
images/fcloud_D0.8_7.tif,0.8,0,,,,,,,,,,,,,0,123,123,0,,,,,,,,,,,None,None,None,29.742,,,,,,2019_Jan_19_1734,59.96116252773898,Cloud_Experiment_FR_REAL,001,08,
images/fcloud80-20_D1.3_9.tif,1.3,2,,,,,,,,,,,,,0,124,124,118,,,,,,,,,,,2,None,3,1.451,,,,,,2019_Jan_19_1734,59.96116252773898,Cloud_Experiment_FR_REAL,001,08,
images/fcloud80-20_D1.7_7.tif,1.7,2,,,,,,,,,,,,,0,125,125,132,,,,,,,,,,,2,None,2,1.718,,,,,,2019_Jan_19_1734,59.96116252773898,Cloud_Experiment_FR_REAL,001,08,
images/fcloud_D1.6_7.tif,1.6,0,,,,,,,,,,,,,0,126,126,32,,,,,,,,,,,None,None,None,10.891,,,,,,2019_Jan_19_1734,59.96116252773898,Cloud_Experiment_FR_REAL,001,08,
images/fcloud80-20_D1.9_10.tif,1.9,2,,,,,,,,,,,,,0,127,127,143,,,,,,,,,,,None,None,None,20.183,,,,,,2019_Jan_19_1734,59.96116252773898,Cloud_Experiment_FR_REAL,001,08,
images/fcloud80-20_D1.9_9.tif,1.9,2,,,,,,,,,,,,,0,128,128,142,,,,,,,,,,,None,None,None,29.359,,,,,,2019_Jan_19_1734,59.96116252773898,Cloud_Experiment_FR_REAL,001,08,
images/fcloud65-35_D1.9_9.tif,1.9,1,,,,,,,,,,,,,0,129,129,94,,,,,,,,,,,None,None,None,38.834,,,,,,2019_Jan_19_1734,59.96116252773898,Cloud_Experiment_FR_REAL,001,08,
images/fcloud80-20_D1_10.tif,1.0,2,,,,,,,,,,,,,0,130,130,107,,,,,,,,,,,None,None,None,48.176,,,,,,2019_Jan_19_1734,59.96116252773898,Cloud_Experiment_FR_REAL,001,08,
images/fcloud80-20_D1.7_9.tif,1.7,2,,,,,,,,,,,,,0,131,131,134,,,,,,,,,,,None,None,None,58.583,,,,,,2019_Jan_19_1734,59.96116252773898,Cloud_Experiment_FR_REAL,001,08,
images/fcloud65-35_D1.1_10.tif,1.1,1,,,,,,,,,,,,,0,132,132,63,,,,,,,,,,,None,None,None,68.108,,,,,,2019_Jan_19_1734,59.96116252773898,Cloud_Experiment_FR_REAL,001,08,
images/fcloud65-35_D1.6_7.tif,1.6,1,,,,,,,,,,,,,0,133,133,80,,,,,,,,,,,None,None,None,77.783,,,,,,2019_Jan_19_1734,59.96116252773898,Cloud_Experiment_FR_REAL,001,08,
images/fcloud65-35_D1.2_7.tif,1.2,1,,,,,,,,,,,,,0,134,134,64,,,,,,,,,,,None,None,None,90.121,,,,,,2019_Jan_19_1734,59.96116252773898,Cloud_Experiment_FR_REAL,001,08,
images/fcloud_D1_8.tif,1.0,0,,,,,,,,,,,,,0,135,135,9,,,,,,,,,,,1,None,1,1.087,,,,,,2019_Jan_19_1734,59.96116252773898,Cloud_Experiment_FR_REAL,001,08,
images/fcloud80-20_D1.5_10.tif,1.5,2,,,,,,,,,,,,,0,136,136,127,,,,,,,,,,,2,None,2,0.769,,,,,,2019_Jan_19_1734,59.96116252773898,Cloud_Experiment_FR_REAL,001,08,
images/fcloud65-35_D1.4_9.tif,1.4,1,,,,,,,,,,,,,0,137,137,74,,,,,,,,,,,2,None,3,0.585,,,,,,2019_Jan_19_1734,59.96116252773898,Cloud_Experiment_FR_REAL,001,08,
images/fcloud80-20_D0.9_10.tif,0.9,2,,,,,,,,,,,,,0,138,138,103,,,,,,,,,,,None,None,None,9.875,,,,,,2019_Jan_19_1734,59.96116252773898,Cloud_Experiment_FR_REAL,001,08,
images/fcloud_D0.9_7.tif,0.9,0,,,,,,,,,,,,,0,139,139,4,,,,,,,,,,,None,None,None,19.085,,,,,,2019_Jan_19_1734,59.96116252773898,Cloud_Experiment_FR_REAL,001,08,
images/fcloud80-20_D1.2_10.tif,1.2,2,,,,,,,,,,,,,0,140,140,115,,,,,,,,,,,2,None,1,0.451,,,,,,2019_Jan_19_1734,59.96116252773898,Cloud_Experiment_FR_REAL,001,08,
images/fcloud80-20_D1.3_10.tif,1.3,2,,,,,,,,,,,,,0,141,141,119,,,,,,,,,,,1,None,4,0.918,,,,,,2019_Jan_19_1734,59.96116252773898,Cloud_Experiment_FR_REAL,001,08,
images/fcloud80-20_D1.2_9.tif,1.2,2,,,,,,,,,,,,,0,142,142,114,,,,,,,,,,,None,None,None,10.375,,,,,,2019_Jan_19_1734,59.96116252773898,Cloud_Experiment_FR_REAL,001,08,
images/fcloud65-35_D0.8_8.tif,0.8,1,,,,,,,,,,,,,0,143,143,49,,,,,,,,,,,2,None,1,0.501,,,,,,2019_Jan_19_1734,59.96116252773898,Cloud_Experiment_FR_REAL,001,08,
,,,,,,,,,,,,,,,,,,,,,,,,,6,7.837,,,,,,,,,,,,2019_Jan_19_1734,59.96116252773898,Cloud_Experiment_FR_REAL,001,08,
