ImageFile,FD,Contrast,trials_4.thisRepN,trials_4.thisTrialN,trials_4.thisN,trials_4.thisIndex,trials.thisRepN,trials.thisTrialN,trials.thisN,trials.thisIndex,trials_2.thisRepN,trials_2.thisTrialN,trials_2.thisN,trials_2.thisIndex,trials_3.thisRepN,trials_3.thisTrialN,trials_3.thisN,trials_3.thisIndex,end_instructions.keys,end_instructions.rt,key_resp_4.keys,key_resp_4.rt,key_resp_6.keys,key_resp_6.rt,Fatigue.response,Fatigue.rt,key_resp_5.keys,key_resp_5.rt,n_objets.response,reaction_time.keys,vividness.response,vividness.rt,reaction_time.rt,key_resp_2.keys,key_resp_2.rt,key_resp_8.keys,key_resp_8.rt,Flow01.response,Flow01.rt,Flow02.response,Flow02.rt,Flow03.response,Flow03.rt,Flow04.response,Flow04.rt,Flow05.response,Flow05.rt,Flow06.response,Flow06.rt,Flow07.response,Flow07.rt,Flow08.response,Flow08.rt,Flow09.response,Flow09.rt,Flow10.response,Flow10.rt,key_resp_3.keys,key_resp_3.rt,date,frameRate,expName,session,participant,
,,,,,,,,,,,,,,,,,,,space,15.027171963,,,,,,,,,,,,,,,,,,,,,,,,,,,,,,,,,,,,,,,,2019_Jan_23_1608,60.50555193460508,Cloud_Experiment_FR_REAL,001,09,
,,,,,,,,,,,,,,,,,,,,,space,153.733867129,,,,,,,,,,,,,,,,,,,,,,,,,,,,,,,,,,,,,,2019_Jan_23_1608,60.50555193460508,Cloud_Experiment_FR_REAL,001,09,
,,,,,,,,,,,,,,,,,,,,,,,space,34.2879226696,,,,,,,,,,,,,,,,,,,,,,,,,,,,,,,,,,,,2019_Jan_23_1608,60.50555193460508,Cloud_Experiment_FR_REAL,001,09,
,,,,,,,,,,,,,,,,,,,,,,,,,8,11.904,,,,,,,,,,,,,,,,,,,,,,,,,,,,,,,,,,2019_Jan_23_1608,60.50555193460508,Cloud_Experiment_FR_REAL,001,09,
,,,,,,,,,,,,,,,,,,,,,,,,,,,space,2.73393189994,,,,,,,,,,,,,,,,,,,,,,,,,,,,,,,,2019_Jan_23_1608,60.50555193460508,Cloud_Experiment_FR_REAL,001,09,
pratique/fcloud80-20_D1_30,1.0,2,0,0,0,9,,,,,,,,,,,,,,,,,,,,,,,None,None,None,231.802,,,,,,,,,,,,,,,,,,,,,,,,,,,,2019_Jan_23_1608,60.50555193460508,Cloud_Experiment_FR_REAL,001,09,
pratique/fcloud_D1.4_30,1.4,0,0,1,1,1,,,,,,,,,,,,,,,,,,,,,,,None,None,None,241.844,,,,,,,,,,,,,,,,,,,,,,,,,,,,2019_Jan_23_1608,60.50555193460508,Cloud_Experiment_FR_REAL,001,09,
pratique/fcloud_D0.8_30,0.8,0,0,2,2,0,,,,,,,,,,,,,,,,,,,,,,,None,None,None,252.535,,,,,,,,,,,,,,,,,,,,,,,,,,,,2019_Jan_23_1608,60.50555193460508,Cloud_Experiment_FR_REAL,001,09,
pratique/fcloud65-35_D1.6_30,1.6,1,0,3,3,2,,,,,,,,,,,,,,,,,,,,,,,1,None,4,6.482,,,,,,,,,,,,,,,,,,,,,,,,,,,,2019_Jan_23_1608,60.50555193460508,Cloud_Experiment_FR_REAL,001,09,
pratique/fcloud65-35_D1.2_30,1.2,1,0,4,4,3,,,,,,,,,,,,,,,,,,,,,,,None,None,None,16.072,,,,,,,,,,,,,,,,,,,,,,,,,,,,2019_Jan_23_1608,60.50555193460508,Cloud_Experiment_FR_REAL,001,09,
pratique/fcloud80-20_D1.5_30,1.5,2,0,5,5,8,,,,,,,,,,,,,,,,,,,,,,,None,None,None,25.182,,,,,,,,,,,,,,,,,,,,,,,,,,,,2019_Jan_23_1608,60.50555193460508,Cloud_Experiment_FR_REAL,001,09,
pratique/fcloud_D1.6_28,1.6,0,0,6,6,5,,,,,,,,,,,,,,,,,,,,,,,1,space,5,2.718,8.02079510043,,,,,,,,,,,,,,,,,,,,,,,,,,,2019_Jan_23_1608,60.50555193460508,Cloud_Experiment_FR_REAL,001,09,
pratique/fcloud65-35_D1.9_29,1.9,1,0,7,7,7,,,,,,,,,,,,,,,,,,,,,,,None,None,None,12.241,,,,,,,,,,,,,,,,,,,,,,,,,,,,2019_Jan_23_1608,60.50555193460508,Cloud_Experiment_FR_REAL,001,09,
pratique/fcloud80-20_D1.8_30,1.8,2,0,8,8,4,,,,,,,,,,,,,,,,,,,,,,,None,None,None,21.269,,,,,,,,,,,,,,,,,,,,,,,,,,,,2019_Jan_23_1608,60.50555193460508,Cloud_Experiment_FR_REAL,001,09,
pratique/fcloud65-35_D1.3_30,1.3,1,0,9,9,6,,,,,,,,,,,,,,,,,,,,,,,None,None,None,29.895,,,,,,,,,,,,,,,,,,,,,,,,,,,,2019_Jan_23_1608,60.50555193460508,Cloud_Experiment_FR_REAL,001,09,
,,,,,,,,,,,,,,,,,,,,,,,,,,,,,,,,,,space,47.3079636501,,,,,,,,,,,,,,,,,,,,,,,,,2019_Jan_23_1608,60.50555193460508,Cloud_Experiment_FR_REAL,001,09,
images/fcloud80-20_D1.9_1.tif,1.9,2,,,,,0,0,0,105,,,,,,,,,,,,,,,,,,,None,None,None,86.928,,,,,,,,,,,,,,,,,,,,,,,,,,,,2019_Jan_23_1608,60.50555193460508,Cloud_Experiment_FR_REAL,001,09,
images/fcloud80-20_D1.4_1.tif,1.4,2,,,,,0,1,1,90,,,,,,,,,,,,,,,,,,,None,None,None,95.469,,,,,,,,,,,,,,,,,,,,,,,,,,,,2019_Jan_23_1608,60.50555193460508,Cloud_Experiment_FR_REAL,001,09,
images/fcloud80-20_D1.6_1.tif,1.6,2,,,,,0,2,2,96,,,,,,,,,,,,,,,,,,,None,None,None,103.993,,,,,,,,,,,,,,,,,,,,,,,,,,,,2019_Jan_23_1608,60.50555193460508,Cloud_Experiment_FR_REAL,001,09,
images/fcloud65-35_D1.9_3.tif,1.9,1,,,,,0,3,3,71,,,,,,,,,,,,,,,,,,,1,None,4,3.1,,,,,,,,,,,,,,,,,,,,,,,,,,,,2019_Jan_23_1608,60.50555193460508,Cloud_Experiment_FR_REAL,001,09,
images/fcloud80-20_D0.9_3.tif,0.9,2,,,,,0,4,4,77,,,,,,,,,,,,,,,,,,,1,None,3,3.667,,,,,,,,,,,,,,,,,,,,,,,,,,,,2019_Jan_23_1608,60.50555193460508,Cloud_Experiment_FR_REAL,001,09,
images/fcloud80-20_D1_3.tif,1.0,2,,,,,0,5,5,80,,,,,,,,,,,,,,,,,,,None,None,None,12.642,,,,,,,,,,,,,,,,,,,,,,,,,,,,2019_Jan_23_1608,60.50555193460508,Cloud_Experiment_FR_REAL,001,09,
images/fcloud_D1.5_3.tif,1.5,0,,,,,0,6,6,23,,,,,,,,,,,,,,,,,,,1,None,4,3.149,,,,,,,,,,,,,,,,,,,,,,,,,,,,2019_Jan_23_1608,60.50555193460508,Cloud_Experiment_FR_REAL,001,09,
images/fcloud80-20_D1.1_3.tif,1.1,2,,,,,0,7,7,83,,,,,,,,,,,,,,,,,,,None,None,None,12.106,,,,,,,,,,,,,,,,,,,,,,,,,,,,2019_Jan_23_1608,60.50555193460508,Cloud_Experiment_FR_REAL,001,09,
images/fcloud65-35_D1.4_2.tif,1.4,1,,,,,0,8,8,55,,,,,,,,,,,,,,,,,,,None,None,None,21.168,,,,,,,,,,,,,,,,,,,,,,,,,,,,2019_Jan_23_1608,60.50555193460508,Cloud_Experiment_FR_REAL,001,09,
images/fcloud65-35_D1.3_3.tif,1.3,1,,,,,0,9,9,53,,,,,,,,,,,,,,,,,,,None,None,None,30.275,,,,,,,,,,,,,,,,,,,,,,,,,,,,2019_Jan_23_1608,60.50555193460508,Cloud_Experiment_FR_REAL,001,09,
images/fcloud_D1.2_2.tif,1.2,0,,,,,0,10,10,13,,,,,,,,,,,,,,,,,,,1,space,5,2.401,6.00452420535,,,,,,,,,,,,,,,,,,,,,,,,,,,2019_Jan_23_1608,60.50555193460508,Cloud_Experiment_FR_REAL,001,09,
images/fcloud_D1.6_3.tif,1.6,0,,,,,0,11,11,26,,,,,,,,,,,,,,,,,,,None,None,None,11.625,,,,,,,,,,,,,,,,,,,,,,,,,,,,2019_Jan_23_1608,60.50555193460508,Cloud_Experiment_FR_REAL,001,09,
images/fcloud65-35_D1.1_1.tif,1.1,1,,,,,0,12,12,45,,,,,,,,,,,,,,,,,,,None,None,None,20.084,,,,,,,,,,,,,,,,,,,,,,,,,,,,2019_Jan_23_1608,60.50555193460508,Cloud_Experiment_FR_REAL,001,09,
images/fcloud_D1_3.tif,1.0,0,,,,,0,13,13,8,,,,,,,,,,,,,,,,,,,None,None,None,29.027,,,,,,,,,,,,,,,,,,,,,,,,,,,,2019_Jan_23_1608,60.50555193460508,Cloud_Experiment_FR_REAL,001,09,
images/fcloud80-20_D0.9_1.tif,0.9,2,,,,,0,14,14,75,,,,,,,,,,,,,,,,,,,None,None,None,37.551,,,,,,,,,,,,,,,,,,,,,,,,,,,,2019_Jan_23_1608,60.50555193460508,Cloud_Experiment_FR_REAL,001,09,
images/fcloud_D1.6_1.tif,1.6,0,,,,,0,15,15,24,,,,,,,,,,,,,,,,,,,None,None,None,46.045,,,,,,,,,,,,,,,,,,,,,,,,,,,,2019_Jan_23_1608,60.50555193460508,Cloud_Experiment_FR_REAL,001,09,
images/fcloud_D1.8_1.tif,1.8,0,,,,,0,16,16,30,,,,,,,,,,,,,,,,,,,None,None,None,54.838,,,,,,,,,,,,,,,,,,,,,,,,,,,,2019_Jan_23_1608,60.50555193460508,Cloud_Experiment_FR_REAL,001,09,
images/fcloud65-35_D1.7_1.tif,1.7,1,,,,,0,17,17,63,,,,,,,,,,,,,,,,,,,None,None,None,63.397,,,,,,,,,,,,,,,,,,,,,,,,,,,,2019_Jan_23_1608,60.50555193460508,Cloud_Experiment_FR_REAL,001,09,
images/fcloud80-20_D1.8_2.tif,1.8,2,,,,,0,18,18,103,,,,,,,,,,,,,,,,,,,None,None,None,72.222,,,,,,,,,,,,,,,,,,,,,,,,,,,,2019_Jan_23_1608,60.50555193460508,Cloud_Experiment_FR_REAL,001,09,
images/fcloud_D1.8_3.tif,1.8,0,,,,,0,19,19,32,,,,,,,,,,,,,,,,,,,1,None,5,1.552,,,,,,,,,,,,,,,,,,,,,,,,,,,,2019_Jan_23_1608,60.50555193460508,Cloud_Experiment_FR_REAL,001,09,
images/fcloud65-35_D1.2_3.tif,1.2,1,,,,,0,20,20,50,,,,,,,,,,,,,,,,,,,1,None,4,3.35,,,,,,,,,,,,,,,,,,,,,,,,,,,,2019_Jan_23_1608,60.50555193460508,Cloud_Experiment_FR_REAL,001,09,
images/fcloud_D1.3_3.tif,1.3,0,,,,,0,21,21,17,,,,,,,,,,,,,,,,,,,None,None,None,12.258,,,,,,,,,,,,,,,,,,,,,,,,,,,,2019_Jan_23_1608,60.50555193460508,Cloud_Experiment_FR_REAL,001,09,
images/fcloud_D1.3_2.tif,1.3,0,,,,,0,22,22,16,,,,,,,,,,,,,,,,,,,None,None,None,20.736,,,,,,,,,,,,,,,,,,,,,,,,,,,,2019_Jan_23_1608,60.50555193460508,Cloud_Experiment_FR_REAL,001,09,
images/fcloud_D0.8_1.tif,0.8,0,,,,,0,23,23,0,,,,,,,,,,,,,,,,,,,None,None,None,29.328,,,,,,,,,,,,,,,,,,,,,,,,,,,,2019_Jan_23_1608,60.50555193460508,Cloud_Experiment_FR_REAL,001,09,
images/fcloud65-35_D1.2_2.tif,1.2,1,,,,,0,24,24,49,,,,,,,,,,,,,,,,,,,None,None,None,37.819,,,,,,,,,,,,,,,,,,,,,,,,,,,,2019_Jan_23_1608,60.50555193460508,Cloud_Experiment_FR_REAL,001,09,
images/fcloud80-20_D1.3_2.tif,1.3,2,,,,,0,25,25,88,,,,,,,,,,,,,,,,,,,None,None,None,46.346,,,,,,,,,,,,,,,,,,,,,,,,,,,,2019_Jan_23_1608,60.50555193460508,Cloud_Experiment_FR_REAL,001,09,
images/fcloud65-35_D1.6_1.tif,1.6,1,,,,,0,26,26,60,,,,,,,,,,,,,,,,,,,None,None,None,55.004,,,,,,,,,,,,,,,,,,,,,,,,,,,,2019_Jan_23_1608,60.50555193460508,Cloud_Experiment_FR_REAL,001,09,
images/fcloud_D1.7_1.tif,1.7,0,,,,,0,27,27,27,,,,,,,,,,,,,,,,,,,None,None,None,63.595,,,,,,,,,,,,,,,,,,,,,,,,,,,,2019_Jan_23_1608,60.50555193460508,Cloud_Experiment_FR_REAL,001,09,
images/fcloud80-20_D1.7_3.tif,1.7,2,,,,,0,28,28,101,,,,,,,,,,,,,,,,,,,None,None,None,72.039,,,,,,,,,,,,,,,,,,,,,,,,,,,,2019_Jan_23_1608,60.50555193460508,Cloud_Experiment_FR_REAL,001,09,
images/fcloud65-35_D1_2.tif,1.0,1,,,,,0,29,29,43,,,,,,,,,,,,,,,,,,,None,None,None,80.616,,,,,,,,,,,,,,,,,,,,,,,,,,,,2019_Jan_23_1608,60.50555193460508,Cloud_Experiment_FR_REAL,001,09,
images/fcloud80-20_D1.2_3.tif,1.2,2,,,,,0,30,30,86,,,,,,,,,,,,,,,,,,,None,None,None,89.007,,,,,,,,,,,,,,,,,,,,,,,,,,,,2019_Jan_23_1608,60.50555193460508,Cloud_Experiment_FR_REAL,001,09,
images/fcloud80-20_D1.1_1.tif,1.1,2,,,,,0,31,31,81,,,,,,,,,,,,,,,,,,,None,None,None,97.434,,,,,,,,,,,,,,,,,,,,,,,,,,,,2019_Jan_23_1608,60.50555193460508,Cloud_Experiment_FR_REAL,001,09,
images/fcloud65-35_D0.8_2.tif,0.8,1,,,,,0,32,32,37,,,,,,,,,,,,,,,,,,,None,None,None,105.976,,,,,,,,,,,,,,,,,,,,,,,,,,,,2019_Jan_23_1608,60.50555193460508,Cloud_Experiment_FR_REAL,001,09,
images/fcloud_D1.1_2.tif,1.1,0,,,,,0,33,33,10,,,,,,,,,,,,,,,,,,,None,None,None,114.402,,,,,,,,,,,,,,,,,,,,,,,,,,,,2019_Jan_23_1608,60.50555193460508,Cloud_Experiment_FR_REAL,001,09,
images/fcloud65-35_D1.2_1.tif,1.2,1,,,,,0,34,34,48,,,,,,,,,,,,,,,,,,,None,None,None,122.896,,,,,,,,,,,,,,,,,,,,,,,,,,,,2019_Jan_23_1608,60.50555193460508,Cloud_Experiment_FR_REAL,001,09,
images/fcloud65-35_D1.4_3.tif,1.4,1,,,,,0,35,35,56,,,,,,,,,,,,,,,,,,,1,space,5,1.102,3.74729735148,,,,,,,,,,,,,,,,,,,,,,,,,,,2019_Jan_23_1608,60.50555193460508,Cloud_Experiment_FR_REAL,001,09,
images/fcloud80-20_D1.8_3.tif,1.8,2,,,,,0,36,36,104,,,,,,,,,,,,,,,,,,,None,None,None,10.21,,,,,,,,,,,,,,,,,,,,,,,,,,,,2019_Jan_23_1608,60.50555193460508,Cloud_Experiment_FR_REAL,001,09,
images/fcloud_D1.9_2.tif,1.9,0,,,,,0,37,37,34,,,,,,,,,,,,,,,,,,,None,None,None,19.204,,,,,,,,,,,,,,,,,,,,,,,,,,,,2019_Jan_23_1608,60.50555193460508,Cloud_Experiment_FR_REAL,001,09,
images/fcloud80-20_D0.8_2.tif,0.8,2,,,,,0,38,38,73,,,,,,,,,,,,,,,,,,,None,None,None,27.713,,,,,,,,,,,,,,,,,,,,,,,,,,,,2019_Jan_23_1608,60.50555193460508,Cloud_Experiment_FR_REAL,001,09,
images/fcloud65-35_D1_1.tif,1.0,1,,,,,0,39,39,42,,,,,,,,,,,,,,,,,,,None,None,None,36.053,,,,,,,,,,,,,,,,,,,,,,,,,,,,2019_Jan_23_1608,60.50555193460508,Cloud_Experiment_FR_REAL,001,09,
images/fcloud65-35_D0.8_1.tif,0.8,1,,,,,0,40,40,36,,,,,,,,,,,,,,,,,,,1,space,4,2.801,4.04277612767,,,,,,,,,,,,,,,,,,,,,,,,,,,2019_Jan_23_1608,60.50555193460508,Cloud_Experiment_FR_REAL,001,09,
images/fcloud65-35_D1.8_2.tif,1.8,1,,,,,0,41,41,67,,,,,,,,,,,,,,,,,,,None,None,None,11.992,,,,,,,,,,,,,,,,,,,,,,,,,,,,2019_Jan_23_1608,60.50555193460508,Cloud_Experiment_FR_REAL,001,09,
images/fcloud_D1.5_2.tif,1.5,0,,,,,0,42,42,22,,,,,,,,,,,,,,,,,,,None,None,None,20.984,,,,,,,,,,,,,,,,,,,,,,,,,,,,2019_Jan_23_1608,60.50555193460508,Cloud_Experiment_FR_REAL,001,09,
images/fcloud65-35_D1.4_1.tif,1.4,1,,,,,0,43,43,54,,,,,,,,,,,,,,,,,,,None,None,None,29.109,,,,,,,,,,,,,,,,,,,,,,,,,,,,2019_Jan_23_1608,60.50555193460508,Cloud_Experiment_FR_REAL,001,09,
images/fcloud_D1.7_3.tif,1.7,0,,,,,0,44,44,29,,,,,,,,,,,,,,,,,,,None,None,None,38.068,,,,,,,,,,,,,,,,,,,,,,,,,,,,2019_Jan_23_1608,60.50555193460508,Cloud_Experiment_FR_REAL,001,09,
images/fcloud_D0.9_1.tif,0.9,0,,,,,0,45,45,3,,,,,,,,,,,,,,,,,,,None,None,None,46.345,,,,,,,,,,,,,,,,,,,,,,,,,,,,2019_Jan_23_1608,60.50555193460508,Cloud_Experiment_FR_REAL,001,09,
images/fcloud_D1.2_1.tif,1.2,0,,,,,0,46,46,12,,,,,,,,,,,,,,,,,,,1,space,5,1.368,5.93507937537,,,,,,,,,,,,,,,,,,,,,,,,,,,2019_Jan_23_1608,60.50555193460508,Cloud_Experiment_FR_REAL,001,09,
images/fcloud80-20_D1.4_3.tif,1.4,2,,,,,0,47,47,92,,,,,,,,,,,,,,,,,,,None,None,None,10.027,,,,,,,,,,,,,,,,,,,,,,,,,,,,2019_Jan_23_1608,60.50555193460508,Cloud_Experiment_FR_REAL,001,09,
images/fcloud_D1.7_2.tif,1.7,0,,,,,0,48,48,28,,,,,,,,,,,,,,,,,,,None,None,None,18.518,,,,,,,,,,,,,,,,,,,,,,,,,,,,2019_Jan_23_1608,60.50555193460508,Cloud_Experiment_FR_REAL,001,09,
images/fcloud_D1.1_1.tif,1.1,0,,,,,0,49,49,9,,,,,,,,,,,,,,,,,,,None,None,None,26.929,,,,,,,,,,,,,,,,,,,,,,,,,,,,2019_Jan_23_1608,60.50555193460508,Cloud_Experiment_FR_REAL,001,09,
images/fcloud80-20_D1.6_2.tif,1.6,2,,,,,0,50,50,97,,,,,,,,,,,,,,,,,,,None,None,None,35.405,,,,,,,,,,,,,,,,,,,,,,,,,,,,2019_Jan_23_1608,60.50555193460508,Cloud_Experiment_FR_REAL,001,09,
images/fcloud_D1.6_2.tif,1.6,0,,,,,0,51,51,25,,,,,,,,,,,,,,,,,,,1,space,5,3.8,4.52768704694,,,,,,,,,,,,,,,,,,,,,,,,,,,2019_Jan_23_1608,60.50555193460508,Cloud_Experiment_FR_REAL,001,09,
images/fcloud80-20_D1.8_1.tif,1.8,2,,,,,0,52,52,102,,,,,,,,,,,,,,,,,,,None,None,None,13.089,,,,,,,,,,,,,,,,,,,,,,,,,,,,2019_Jan_23_1608,60.50555193460508,Cloud_Experiment_FR_REAL,001,09,
images/fcloud80-20_D1.1_2.tif,1.1,2,,,,,0,53,53,82,,,,,,,,,,,,,,,,,,,None,None,None,21.384,,,,,,,,,,,,,,,,,,,,,,,,,,,,2019_Jan_23_1608,60.50555193460508,Cloud_Experiment_FR_REAL,001,09,
images/fcloud_D0.8_3.tif,0.8,0,,,,,0,54,54,2,,,,,,,,,,,,,,,,,,,1,None,4,1.319,,,,,,,,,,,,,,,,,,,,,,,,,,,,2019_Jan_23_1608,60.50555193460508,Cloud_Experiment_FR_REAL,001,09,
images/fcloud65-35_D1.8_1.tif,1.8,1,,,,,0,55,55,66,,,,,,,,,,,,,,,,,,,None,None,None,10.494,,,,,,,,,,,,,,,,,,,,,,,,,,,,2019_Jan_23_1608,60.50555193460508,Cloud_Experiment_FR_REAL,001,09,
images/fcloud_D1.9_3.tif,1.9,0,,,,,0,56,56,35,,,,,,,,,,,,,,,,,,,None,None,None,20.318,,,,,,,,,,,,,,,,,,,,,,,,,,,,2019_Jan_23_1608,60.50555193460508,Cloud_Experiment_FR_REAL,001,09,
images/fcloud65-35_D1.9_2.tif,1.9,1,,,,,0,57,57,70,,,,,,,,,,,,,,,,,,,None,None,None,28.661,,,,,,,,,,,,,,,,,,,,,,,,,,,,2019_Jan_23_1608,60.50555193460508,Cloud_Experiment_FR_REAL,001,09,
images/fcloud80-20_D1.2_1.tif,1.2,2,,,,,0,58,58,84,,,,,,,,,,,,,,,,,,,None,None,None,37.054,,,,,,,,,,,,,,,,,,,,,,,,,,,,2019_Jan_23_1608,60.50555193460508,Cloud_Experiment_FR_REAL,001,09,
images/fcloud65-35_D1.9_1.tif,1.9,1,,,,,0,59,59,69,,,,,,,,,,,,,,,,,,,None,None,None,45.48,,,,,,,,,,,,,,,,,,,,,,,,,,,,2019_Jan_23_1608,60.50555193460508,Cloud_Experiment_FR_REAL,001,09,
images/fcloud_D1.5_1.tif,1.5,0,,,,,0,60,60,21,,,,,,,,,,,,,,,,,,,None,None,None,54.172,,,,,,,,,,,,,,,,,,,,,,,,,,,,2019_Jan_23_1608,60.50555193460508,Cloud_Experiment_FR_REAL,001,09,
images/fcloud65-35_D1.5_2.tif,1.5,1,,,,,0,61,61,58,,,,,,,,,,,,,,,,,,,None,None,None,62.814,,,,,,,,,,,,,,,,,,,,,,,,,,,,2019_Jan_23_1608,60.50555193460508,Cloud_Experiment_FR_REAL,001,09,
images/fcloud65-35_D1_3.tif,1.0,1,,,,,0,62,62,44,,,,,,,,,,,,,,,,,,,None,None,None,71.323,,,,,,,,,,,,,,,,,,,,,,,,,,,,2019_Jan_23_1608,60.50555193460508,Cloud_Experiment_FR_REAL,001,09,
images/fcloud80-20_D1.2_2.tif,1.2,2,,,,,0,63,63,85,,,,,,,,,,,,,,,,,,,1,space,5,1.151,2.37405220958,,,,,,,,,,,,,,,,,,,,,,,,,,,2019_Jan_23_1608,60.50555193460508,Cloud_Experiment_FR_REAL,001,09,
images/fcloud65-35_D1.7_3.tif,1.7,1,,,,,0,64,64,65,,,,,,,,,,,,,,,,,,,None,None,None,10.127,,,,,,,,,,,,,,,,,,,,,,,,,,,,2019_Jan_23_1608,60.50555193460508,Cloud_Experiment_FR_REAL,001,09,
images/fcloud_D1.1_3.tif,1.1,0,,,,,0,65,65,11,,,,,,,,,,,,,,,,,,,1,None,4,1.235,,,,,,,,,,,,,,,,,,,,,,,,,,,,2019_Jan_23_1608,60.50555193460508,Cloud_Experiment_FR_REAL,001,09,
images/fcloud_D1_2.tif,1.0,0,,,,,0,66,66,7,,,,,,,,,,,,,,,,,,,1,None,5,1.235,,,,,,,,,,,,,,,,,,,,,,,,,,,,2019_Jan_23_1608,60.50555193460508,Cloud_Experiment_FR_REAL,001,09,
images/fcloud_D1.3_1.tif,1.3,0,,,,,0,67,67,15,,,,,,,,,,,,,,,,,,,1,space,5,0.903,6.45917265798,,,,,,,,,,,,,,,,,,,,,,,,,,,2019_Jan_23_1608,60.50555193460508,Cloud_Experiment_FR_REAL,001,09,
images/fcloud65-35_D1.7_2.tif,1.7,1,,,,,0,68,68,64,,,,,,,,,,,,,,,,,,,None,None,None,9.31,,,,,,,,,,,,,,,,,,,,,,,,,,,,2019_Jan_23_1608,60.50555193460508,Cloud_Experiment_FR_REAL,001,09,
images/fcloud65-35_D1.5_1.tif,1.5,1,,,,,0,69,69,57,,,,,,,,,,,,,,,,,,,None,None,None,17.838,,,,,,,,,,,,,,,,,,,,,,,,,,,,2019_Jan_23_1608,60.50555193460508,Cloud_Experiment_FR_REAL,001,09,
images/fcloud_D1.2_3.tif,1.2,0,,,,,0,70,70,14,,,,,,,,,,,,,,,,,,,1,space,3,1.151,6.99826506159,,,,,,,,,,,,,,,,,,,,,,,,,,,2019_Jan_23_1608,60.50555193460508,Cloud_Experiment_FR_REAL,001,09,
images/fcloud_D1_1.tif,1.0,0,,,,,0,71,71,6,,,,,,,,,,,,,,,,,,,2,space,5,0.785,3.28317227963,,,,,,,,,,,,,,,,,,,,,,,,,,,2019_Jan_23_1608,60.50555193460508,Cloud_Experiment_FR_REAL,001,09,
images/fcloud_D0.8_2.tif,0.8,0,,,,,0,72,72,1,,,,,,,,,,,,,,,,,,,None,None,None,9.161,,,,,,,,,,,,,,,,,,,,,,,,,,,,2019_Jan_23_1608,60.50555193460508,Cloud_Experiment_FR_REAL,001,09,
images/fcloud80-20_D1.6_3.tif,1.6,2,,,,,0,73,73,98,,,,,,,,,,,,,,,,,,,None,None,None,17.571,,,,,,,,,,,,,,,,,,,,,,,,,,,,2019_Jan_23_1608,60.50555193460508,Cloud_Experiment_FR_REAL,001,09,
images/fcloud_D0.9_3.tif,0.9,0,,,,,0,74,74,5,,,,,,,,,,,,,,,,,,,None,None,None,26.061,,,,,,,,,,,,,,,,,,,,,,,,,,,,2019_Jan_23_1608,60.50555193460508,Cloud_Experiment_FR_REAL,001,09,
images/fcloud_D1.8_2.tif,1.8,0,,,,,0,75,75,31,,,,,,,,,,,,,,,,,,,None,None,None,34.59,,,,,,,,,,,,,,,,,,,,,,,,,,,,2019_Jan_23_1608,60.50555193460508,Cloud_Experiment_FR_REAL,001,09,
images/fcloud65-35_D1.6_3.tif,1.6,1,,,,,0,76,76,62,,,,,,,,,,,,,,,,,,,None,None,None,42.931,,,,,,,,,,,,,,,,,,,,,,,,,,,,2019_Jan_23_1608,60.50555193460508,Cloud_Experiment_FR_REAL,001,09,
images/fcloud65-35_D0.8_3.tif,0.8,1,,,,,0,77,77,38,,,,,,,,,,,,,,,,,,,None,None,None,51.576,,,,,,,,,,,,,,,,,,,,,,,,,,,,2019_Jan_23_1608,60.50555193460508,Cloud_Experiment_FR_REAL,001,09,
images/fcloud65-35_D0.9_1.tif,0.9,1,,,,,0,78,78,39,,,,,,,,,,,,,,,,,,,1,None,3,1.435,,,,,,,,,,,,,,,,,,,,,,,,,,,,2019_Jan_23_1608,60.50555193460508,Cloud_Experiment_FR_REAL,001,09,
images/fcloud_D0.9_2.tif,0.9,0,,,,,0,79,79,4,,,,,,,,,,,,,,,,,,,1,space,4,0.736,6.0300110933,,,,,,,,,,,,,,,,,,,,,,,,,,,2019_Jan_23_1608,60.50555193460508,Cloud_Experiment_FR_REAL,001,09,
images/fcloud_D1.4_3.tif,1.4,0,,,,,0,80,80,20,,,,,,,,,,,,,,,,,,,None,None,None,10.01,,,,,,,,,,,,,,,,,,,,,,,,,,,,2019_Jan_23_1608,60.50555193460508,Cloud_Experiment_FR_REAL,001,09,
images/fcloud_D1.4_1.tif,1.4,0,,,,,0,81,81,18,,,,,,,,,,,,,,,,,,,1,space,5,0.785,3.37273160013,,,,,,,,,,,,,,,,,,,,,,,,,,,2019_Jan_23_1608,60.50555193460508,Cloud_Experiment_FR_REAL,001,09,
images/fcloud80-20_D1.9_3.tif,1.9,2,,,,,0,82,82,107,,,,,,,,,,,,,,,,,,,None,None,None,9.194,,,,,,,,,,,,,,,,,,,,,,,,,,,,2019_Jan_23_1608,60.50555193460508,Cloud_Experiment_FR_REAL,001,09,
images/fcloud80-20_D1.5_3.tif,1.5,2,,,,,0,83,83,95,,,,,,,,,,,,,,,,,,,None,None,None,17.57,,,,,,,,,,,,,,,,,,,,,,,,,,,,2019_Jan_23_1608,60.50555193460508,Cloud_Experiment_FR_REAL,001,09,
images/fcloud65-35_D1.5_3.tif,1.5,1,,,,,0,84,84,59,,,,,,,,,,,,,,,,,,,None,None,None,26.329,,,,,,,,,,,,,,,,,,,,,,,,,,,,2019_Jan_23_1608,60.50555193460508,Cloud_Experiment_FR_REAL,001,09,
images/fcloud80-20_D1.7_2.tif,1.7,2,,,,,0,85,85,100,,,,,,,,,,,,,,,,,,,None,None,None,35.036,,,,,,,,,,,,,,,,,,,,,,,,,,,,2019_Jan_23_1608,60.50555193460508,Cloud_Experiment_FR_REAL,001,09,
images/fcloud80-20_D1.3_1.tif,1.3,2,,,,,0,86,86,87,,,,,,,,,,,,,,,,,,,None,None,None,43.481,,,,,,,,,,,,,,,,,,,,,,,,,,,,2019_Jan_23_1608,60.50555193460508,Cloud_Experiment_FR_REAL,001,09,
images/fcloud80-20_D1.7_1.tif,1.7,2,,,,,0,87,87,99,,,,,,,,,,,,,,,,,,,None,None,None,51.956,,,,,,,,,,,,,,,,,,,,,,,,,,,,2019_Jan_23_1608,60.50555193460508,Cloud_Experiment_FR_REAL,001,09,
images/fcloud65-35_D1.1_3.tif,1.1,1,,,,,0,88,88,47,,,,,,,,,,,,,,,,,,,1,space,5,1.435,2.21187582056,,,,,,,,,,,,,,,,,,,,,,,,,,,2019_Jan_23_1608,60.50555193460508,Cloud_Experiment_FR_REAL,001,09,
images/fcloud65-35_D1.8_3.tif,1.8,1,,,,,0,89,89,68,,,,,,,,,,,,,,,,,,,None,None,None,10.695,,,,,,,,,,,,,,,,,,,,,,,,,,,,2019_Jan_23_1608,60.50555193460508,Cloud_Experiment_FR_REAL,001,09,
images/fcloud65-35_D0.9_3.tif,0.9,1,,,,,0,90,90,41,,,,,,,,,,,,,,,,,,,None,None,None,19.035,,,,,,,,,,,,,,,,,,,,,,,,,,,,2019_Jan_23_1608,60.50555193460508,Cloud_Experiment_FR_REAL,001,09,
images/fcloud80-20_D0.9_2.tif,0.9,2,,,,,0,91,91,76,,,,,,,,,,,,,,,,,,,None,None,None,27.478,,,,,,,,,,,,,,,,,,,,,,,,,,,,2019_Jan_23_1608,60.50555193460508,Cloud_Experiment_FR_REAL,001,09,
images/fcloud65-35_D0.9_2.tif,0.9,1,,,,,0,92,92,40,,,,,,,,,,,,,,,,,,,None,None,None,35.822,,,,,,,,,,,,,,,,,,,,,,,,,,,,2019_Jan_23_1608,60.50555193460508,Cloud_Experiment_FR_REAL,001,09,
images/fcloud65-35_D1.3_1.tif,1.3,1,,,,,0,93,93,51,,,,,,,,,,,,,,,,,,,None,None,None,44.413,,,,,,,,,,,,,,,,,,,,,,,,,,,,2019_Jan_23_1608,60.50555193460508,Cloud_Experiment_FR_REAL,001,09,
images/fcloud_D1.4_2.tif,1.4,0,,,,,0,94,94,19,,,,,,,,,,,,,,,,,,,1,None,3,1.153,,,,,,,,,,,,,,,,,,,,,,,,,,,,2019_Jan_23_1608,60.50555193460508,Cloud_Experiment_FR_REAL,001,09,
images/fcloud65-35_D1.3_2.tif,1.3,1,,,,,0,95,95,52,,,,,,,,,,,,,,,,,,,None,None,None,10.276,,,,,,,,,,,,,,,,,,,,,,,,,,,,2019_Jan_23_1608,60.50555193460508,Cloud_Experiment_FR_REAL,001,09,
images/fcloud80-20_D0.8_1.tif,0.8,2,,,,,0,96,96,72,,,,,,,,,,,,,,,,,,,None,None,None,18.686,,,,,,,,,,,,,,,,,,,,,,,,,,,,2019_Jan_23_1608,60.50555193460508,Cloud_Experiment_FR_REAL,001,09,
images/fcloud80-20_D0.8_3.tif,0.8,2,,,,,0,97,97,74,,,,,,,,,,,,,,,,,,,None,None,None,27.095,,,,,,,,,,,,,,,,,,,,,,,,,,,,2019_Jan_23_1608,60.50555193460508,Cloud_Experiment_FR_REAL,001,09,
images/fcloud80-20_D1.3_3.tif,1.3,2,,,,,0,98,98,89,,,,,,,,,,,,,,,,,,,None,None,None,35.621,,,,,,,,,,,,,,,,,,,,,,,,,,,,2019_Jan_23_1608,60.50555193460508,Cloud_Experiment_FR_REAL,001,09,
images/fcloud65-35_D1.6_2.tif,1.6,1,,,,,0,99,99,61,,,,,,,,,,,,,,,,,,,1,space,3,1.352,5.5305909483,,,,,,,,,,,,,,,,,,,,,,,,,,,2019_Jan_23_1608,60.50555193460508,Cloud_Experiment_FR_REAL,001,09,
images/fcloud80-20_D1.4_2.tif,1.4,2,,,,,0,100,100,91,,,,,,,,,,,,,,,,,,,None,None,None,10.444,,,,,,,,,,,,,,,,,,,,,,,,,,,,2019_Jan_23_1608,60.50555193460508,Cloud_Experiment_FR_REAL,001,09,
images/fcloud80-20_D1_1.tif,1.0,2,,,,,0,101,101,78,,,,,,,,,,,,,,,,,,,None,None,None,18.986,,,,,,,,,,,,,,,,,,,,,,,,,,,,2019_Jan_23_1608,60.50555193460508,Cloud_Experiment_FR_REAL,001,09,
images/fcloud65-35_D1.1_2.tif,1.1,1,,,,,0,102,102,46,,,,,,,,,,,,,,,,,,,None,None,None,27.328,,,,,,,,,,,,,,,,,,,,,,,,,,,,2019_Jan_23_1608,60.50555193460508,Cloud_Experiment_FR_REAL,001,09,
images/fcloud80-20_D1_2.tif,1.0,2,,,,,0,103,103,79,,,,,,,,,,,,,,,,,,,None,None,None,35.871,,,,,,,,,,,,,,,,,,,,,,,,,,,,2019_Jan_23_1608,60.50555193460508,Cloud_Experiment_FR_REAL,001,09,
images/fcloud80-20_D1.5_1.tif,1.5,2,,,,,0,104,104,93,,,,,,,,,,,,,,,,,,,1,space,4,2.134,3.26078463424,,,,,,,,,,,,,,,,,,,,,,,,,,,2019_Jan_23_1608,60.50555193460508,Cloud_Experiment_FR_REAL,001,09,
images/fcloud_D1.9_1.tif,1.9,0,,,,,0,105,105,33,,,,,,,,,,,,,,,,,,,None,None,None,10.993,,,,,,,,,,,,,,,,,,,,,,,,,,,,2019_Jan_23_1608,60.50555193460508,Cloud_Experiment_FR_REAL,001,09,
images/fcloud80-20_D1.9_2.tif,1.9,2,,,,,0,106,106,106,,,,,,,,,,,,,,,,,,,None,None,None,19.937,,,,,,,,,,,,,,,,,,,,,,,,,,,,2019_Jan_23_1608,60.50555193460508,Cloud_Experiment_FR_REAL,001,09,
images/fcloud80-20_D1.5_2.tif,1.5,2,,,,,0,107,107,94,,,,,,,,,,,,,,,,,,,None,None,None,28.492,,,,,,,,,,,,,,,,,,,,,,,,,,,,2019_Jan_23_1608,60.50555193460508,Cloud_Experiment_FR_REAL,001,09,
,,,,,,,,,,,,,,,,,,,,,,,,,,,,,,,,,,,,space,54.0708852144,,,,,,,,,,,,,,,,,,,,,,,2019_Jan_23_1608,60.50555193460508,Cloud_Experiment_FR_REAL,001,09,
,,,,,,,,,,,,,,,,,,,,,,,,,6,12.422,,,,,,,,,,,,,,,,,,,,,,,,,,,,,,,,,,2019_Jan_23_1608,60.50555193460508,Cloud_Experiment_FR_REAL,001,09,
,,,,,,,,,,,,,,,,,,,,,,,,,,,,,,,,,,,,,,5,12.152,,,,,,,,,,,,,,,,,,,,,2019_Jan_23_1608,60.50555193460508,Cloud_Experiment_FR_REAL,001,09,
,,,,,,,,,,,,,,,,,,,,,,,,,,,,,,,,,,,,,,,,5,5.182,,,,,,,,,,,,,,,,,,,2019_Jan_23_1608,60.50555193460508,Cloud_Experiment_FR_REAL,001,09,
,,,,,,,,,,,,,,,,,,,,,,,,,,,,,,,,,,,,,,,,,,4,4.382,,,,,,,,,,,,,,,,,2019_Jan_23_1608,60.50555193460508,Cloud_Experiment_FR_REAL,001,09,
,,,,,,,,,,,,,,,,,,,,,,,,,,,,,,,,,,,,,,,,,,,,5,5.349,,,,,,,,,,,,,,,2019_Jan_23_1608,60.50555193460508,Cloud_Experiment_FR_REAL,001,09,
,,,,,,,,,,,,,,,,,,,,,,,,,,,,,,,,,,,,,,,,,,,,,,6,4.616,,,,,,,,,,,,,2019_Jan_23_1608,60.50555193460508,Cloud_Experiment_FR_REAL,001,09,
,,,,,,,,,,,,,,,,,,,,,,,,,,,,,,,,,,,,,,,,,,,,,,,,5,5.798,,,,,,,,,,,2019_Jan_23_1608,60.50555193460508,Cloud_Experiment_FR_REAL,001,09,
,,,,,,,,,,,,,,,,,,,,,,,,,,,,,,,,,,,,,,,,,,,,,,,,,,5,3.967,,,,,,,,,2019_Jan_23_1608,60.50555193460508,Cloud_Experiment_FR_REAL,001,09,
,,,,,,,,,,,,,,,,,,,,,,,,,,,,,,,,,,,,,,,,,,,,,,,,,,,,6,3.267,,,,,,,2019_Jan_23_1608,60.50555193460508,Cloud_Experiment_FR_REAL,001,09,
,,,,,,,,,,,,,,,,,,,,,,,,,,,,,,,,,,,,,,,,,,,,,,,,,,,,,,6,2.867,,,,,2019_Jan_23_1608,60.50555193460508,Cloud_Experiment_FR_REAL,001,09,
,,,,,,,,,,,,,,,,,,,,,,,,,,,,,,,,,,,,,,,,,,,,,,,,,,,,,,,,1,3.55,,,2019_Jan_23_1608,60.50555193460508,Cloud_Experiment_FR_REAL,001,09,
,,,,,,,,,,,,,,,,,,,,,,,,,,,,,,,,,,,,,,,,,,,,,,,,,,,,,,,,,,space,23.3641725706,2019_Jan_23_1608,60.50555193460508,Cloud_Experiment_FR_REAL,001,09,
images/fcloud80-20_D1.4_4.tif,1.4,2,,,,,,,,,0,0,0,90,,,,,,,,,,,,,,,None,None,None,184.825,,,,,,,,,,,,,,,,,,,,,,,,,,,,2019_Jan_23_1608,60.50555193460508,Cloud_Experiment_FR_REAL,001,09,
images/fcloud_D1.5_5.tif,1.5,0,,,,,,,,,0,1,1,22,,,,,,,,,,,,,,,1,space,2,1.234,6.15300049249,,,,,,,,,,,,,,,,,,,,,,,,,,,2019_Jan_23_1608,60.50555193460508,Cloud_Experiment_FR_REAL,001,09,
images/fcloud65-35_D1.7_4.tif,1.7,1,,,,,,,,,0,2,2,63,,,,,,,,,,,,,,,None,None,None,10.626,,,,,,,,,,,,,,,,,,,,,,,,,,,,2019_Jan_23_1608,60.50555193460508,Cloud_Experiment_FR_REAL,001,09,
images/fcloud_D1_4.tif,1.0,0,,,,,,,,,0,3,3,6,,,,,,,,,,,,,,,None,None,None,19.667,,,,,,,,,,,,,,,,,,,,,,,,,,,,2019_Jan_23_1608,60.50555193460508,Cloud_Experiment_FR_REAL,001,09,
images/fcloud65-35_D1.6_6.tif,1.6,1,,,,,,,,,0,4,4,62,,,,,,,,,,,,,,,1,None,3,0.852,,,,,,,,,,,,,,,,,,,,,,,,,,,,2019_Jan_23_1608,60.50555193460508,Cloud_Experiment_FR_REAL,001,09,
images/fcloud80-20_D1.9_6.tif,1.9,2,,,,,,,,,0,5,5,107,,,,,,,,,,,,,,,None,None,None,9.441,,,,,,,,,,,,,,,,,,,,,,,,,,,,2019_Jan_23_1608,60.50555193460508,Cloud_Experiment_FR_REAL,001,09,
images/fcloud_D0.8_4.tif,0.8,0,,,,,,,,,0,6,6,0,,,,,,,,,,,,,,,None,None,None,18.753,,,,,,,,,,,,,,,,,,,,,,,,,,,,2019_Jan_23_1608,60.50555193460508,Cloud_Experiment_FR_REAL,001,09,
images/fcloud80-20_D1.3_5.tif,1.3,2,,,,,,,,,0,7,7,88,,,,,,,,,,,,,,,None,None,None,27.36,,,,,,,,,,,,,,,,,,,,,,,,,,,,2019_Jan_23_1608,60.50555193460508,Cloud_Experiment_FR_REAL,001,09,
images/fcloud80-20_D1.3_4.tif,1.3,2,,,,,,,,,0,8,8,87,,,,,,,,,,,,,,,None,None,None,36.038,,,,,,,,,,,,,,,,,,,,,,,,,,,,2019_Jan_23_1608,60.50555193460508,Cloud_Experiment_FR_REAL,001,09,
images/fcloud80-20_D1.7_6.tif,1.7,2,,,,,,,,,0,9,9,101,,,,,,,,,,,,,,,None,None,None,44.679,,,,,,,,,,,,,,,,,,,,,,,,,,,,2019_Jan_23_1608,60.50555193460508,Cloud_Experiment_FR_REAL,001,09,
images/fcloud_D1.2_4.tif,1.2,0,,,,,,,,,0,10,10,12,,,,,,,,,,,,,,,1,None,3,0.886,,,,,,,,,,,,,,,,,,,,,,,,,,,,2019_Jan_23_1608,60.50555193460508,Cloud_Experiment_FR_REAL,001,09,
images/fcloud_D0.9_6.tif,0.9,0,,,,,,,,,0,11,11,5,,,,,,,,,,,,,,,None,None,None,10.159,,,,,,,,,,,,,,,,,,,,,,,,,,,,2019_Jan_23_1608,60.50555193460508,Cloud_Experiment_FR_REAL,001,09,
images/fcloud65-35_D1.7_6.tif,1.7,1,,,,,,,,,0,12,12,65,,,,,,,,,,,,,,,None,None,None,18.502,,,,,,,,,,,,,,,,,,,,,,,,,,,,2019_Jan_23_1608,60.50555193460508,Cloud_Experiment_FR_REAL,001,09,
images/fcloud80-20_D0.8_5.tif,0.8,2,,,,,,,,,0,13,13,73,,,,,,,,,,,,,,,None,None,None,27.027,,,,,,,,,,,,,,,,,,,,,,,,,,,,2019_Jan_23_1608,60.50555193460508,Cloud_Experiment_FR_REAL,001,09,
images/fcloud_D1.2_5.tif,1.2,0,,,,,,,,,0,14,14,13,,,,,,,,,,,,,,,None,None,None,35.438,,,,,,,,,,,,,,,,,,,,,,,,,,,,2019_Jan_23_1608,60.50555193460508,Cloud_Experiment_FR_REAL,001,09,
images/fcloud_D0.9_5.tif,0.9,0,,,,,,,,,0,15,15,4,,,,,,,,,,,,,,,None,None,None,43.912,,,,,,,,,,,,,,,,,,,,,,,,,,,,2019_Jan_23_1608,60.50555193460508,Cloud_Experiment_FR_REAL,001,09,
images/fcloud65-35_D1_5.tif,1.0,1,,,,,,,,,0,16,16,43,,,,,,,,,,,,,,,None,None,None,52.271,,,,,,,,,,,,,,,,,,,,,,,,,,,,2019_Jan_23_1608,60.50555193460508,Cloud_Experiment_FR_REAL,001,09,
images/fcloud80-20_D1.2_4.tif,1.2,2,,,,,,,,,0,17,17,84,,,,,,,,,,,,,,,None,None,None,60.933,,,,,,,,,,,,,,,,,,,,,,,,,,,,2019_Jan_23_1608,60.50555193460508,Cloud_Experiment_FR_REAL,001,09,
images/fcloud80-20_D1.5_5.tif,1.5,2,,,,,,,,,0,18,18,94,,,,,,,,,,,,,,,None,None,None,69.357,,,,,,,,,,,,,,,,,,,,,,,,,,,,2019_Jan_23_1608,60.50555193460508,Cloud_Experiment_FR_REAL,001,09,
images/fcloud_D0.9_4.tif,0.9,0,,,,,,,,,0,19,19,3,,,,,,,,,,,,,,,1,space,5,0.769,5.84607677732,,,,,,,,,,,,,,,,,,,,,,,,,,,2019_Jan_23_1608,60.50555193460508,Cloud_Experiment_FR_REAL,001,09,
images/fcloud80-20_D1.7_5.tif,1.7,2,,,,,,,,,0,20,20,100,,,,,,,,,,,,,,,None,None,None,10.011,,,,,,,,,,,,,,,,,,,,,,,,,,,,2019_Jan_23_1608,60.50555193460508,Cloud_Experiment_FR_REAL,001,09,
images/fcloud80-20_D1.9_4.tif,1.9,2,,,,,,,,,0,21,21,105,,,,,,,,,,,,,,,None,None,None,18.303,,,,,,,,,,,,,,,,,,,,,,,,,,,,2019_Jan_23_1608,60.50555193460508,Cloud_Experiment_FR_REAL,001,09,
images/fcloud_D1.9_6.tif,1.9,0,,,,,,,,,0,22,22,35,,,,,,,,,,,,,,,None,None,None,26.877,,,,,,,,,,,,,,,,,,,,,,,,,,,,2019_Jan_23_1608,60.50555193460508,Cloud_Experiment_FR_REAL,001,09,
images/fcloud80-20_D1.8_4.tif,1.8,2,,,,,,,,,0,23,23,102,,,,,,,,,,,,,,,None,None,None,35.219,,,,,,,,,,,,,,,,,,,,,,,,,,,,2019_Jan_23_1608,60.50555193460508,Cloud_Experiment_FR_REAL,001,09,
images/fcloud_D0.8_5.tif,0.8,0,,,,,,,,,0,24,24,1,,,,,,,,,,,,,,,None,None,None,43.78,,,,,,,,,,,,,,,,,,,,,,,,,,,,2019_Jan_23_1608,60.50555193460508,Cloud_Experiment_FR_REAL,001,09,
images/fcloud80-20_D1.5_4.tif,1.5,2,,,,,,,,,0,25,25,93,,,,,,,,,,,,,,,None,None,None,52.073,,,,,,,,,,,,,,,,,,,,,,,,,,,,2019_Jan_23_1608,60.50555193460508,Cloud_Experiment_FR_REAL,001,09,
images/fcloud65-35_D1.5_4.tif,1.5,1,,,,,,,,,0,26,26,57,,,,,,,,,,,,,,,1,space,4,0.952,5.34153355192,,,,,,,,,,,,,,,,,,,,,,,,,,,2019_Jan_23_1608,60.50555193460508,Cloud_Experiment_FR_REAL,001,09,
images/fcloud65-35_D1.2_5.tif,1.2,1,,,,,,,,,0,27,27,49,,,,,,,,,,,,,,,None,None,None,9.312,,,,,,,,,,,,,,,,,,,,,,,,,,,,2019_Jan_23_1608,60.50555193460508,Cloud_Experiment_FR_REAL,001,09,
images/fcloud_D1.9_5.tif,1.9,0,,,,,,,,,0,28,28,34,,,,,,,,,,,,,,,None,None,None,17.871,,,,,,,,,,,,,,,,,,,,,,,,,,,,2019_Jan_23_1608,60.50555193460508,Cloud_Experiment_FR_REAL,001,09,
images/fcloud65-35_D1.3_6.tif,1.3,1,,,,,,,,,0,29,29,53,,,,,,,,,,,,,,,None,None,None,26.347,,,,,,,,,,,,,,,,,,,,,,,,,,,,2019_Jan_23_1608,60.50555193460508,Cloud_Experiment_FR_REAL,001,09,
images/fcloud65-35_D1.1_4.tif,1.1,1,,,,,,,,,0,30,30,45,,,,,,,,,,,,,,,None,None,None,34.973,,,,,,,,,,,,,,,,,,,,,,,,,,,,2019_Jan_23_1608,60.50555193460508,Cloud_Experiment_FR_REAL,001,09,
images/fcloud_D1.9_4.tif,1.9,0,,,,,,,,,0,31,31,33,,,,,,,,,,,,,,,1,None,3,1.702,,,,,,,,,,,,,,,,,,,,,,,,,,,,2019_Jan_23_1608,60.50555193460508,Cloud_Experiment_FR_REAL,001,09,
images/fcloud65-35_D1.3_4.tif,1.3,1,,,,,,,,,0,32,32,51,,,,,,,,,,,,,,,1,None,3,0.62,,,,,,,,,,,,,,,,,,,,,,,,,,,,2019_Jan_23_1608,60.50555193460508,Cloud_Experiment_FR_REAL,001,09,
images/fcloud65-35_D1.5_5.tif,1.5,1,,,,,,,,,0,33,33,58,,,,,,,,,,,,,,,None,None,None,9.841,,,,,,,,,,,,,,,,,,,,,,,,,,,,2019_Jan_23_1608,60.50555193460508,Cloud_Experiment_FR_REAL,001,09,
images/fcloud_D1.3_4.tif,1.3,0,,,,,,,,,0,34,34,15,,,,,,,,,,,,,,,None,None,None,18.85,,,,,,,,,,,,,,,,,,,,,,,,,,,,2019_Jan_23_1608,60.50555193460508,Cloud_Experiment_FR_REAL,001,09,
images/fcloud80-20_D1.1_6.tif,1.1,2,,,,,,,,,0,35,35,83,,,,,,,,,,,,,,,None,None,None,27.128,,,,,,,,,,,,,,,,,,,,,,,,,,,,2019_Jan_23_1608,60.50555193460508,Cloud_Experiment_FR_REAL,001,09,
images/fcloud65-35_D0.8_4.tif,0.8,1,,,,,,,,,0,36,36,36,,,,,,,,,,,,,,,None,None,None,35.703,,,,,,,,,,,,,,,,,,,,,,,,,,,,2019_Jan_23_1608,60.50555193460508,Cloud_Experiment_FR_REAL,001,09,
images/fcloud65-35_D1.2_6.tif,1.2,1,,,,,,,,,0,37,37,50,,,,,,,,,,,,,,,1,space,4,0.636,7.69261260648,,,,,,,,,,,,,,,,,,,,,,,,,,,2019_Jan_23_1608,60.50555193460508,Cloud_Experiment_FR_REAL,001,09,
images/fcloud_D1.7_4.tif,1.7,0,,,,,,,,,0,38,38,27,,,,,,,,,,,,,,,None,None,None,9.412,,,,,,,,,,,,,,,,,,,,,,,,,,,,2019_Jan_23_1608,60.50555193460508,Cloud_Experiment_FR_REAL,001,09,
images/fcloud80-20_D1.6_5.tif,1.6,2,,,,,,,,,0,39,39,97,,,,,,,,,,,,,,,None,None,None,17.803,,,,,,,,,,,,,,,,,,,,,,,,,,,,2019_Jan_23_1608,60.50555193460508,Cloud_Experiment_FR_REAL,001,09,
images/fcloud65-35_D1.5_6.tif,1.5,1,,,,,,,,,0,40,40,59,,,,,,,,,,,,,,,None,None,None,26.229,,,,,,,,,,,,,,,,,,,,,,,,,,,,2019_Jan_23_1608,60.50555193460508,Cloud_Experiment_FR_REAL,001,09,
images/fcloud_D1.1_4.tif,1.1,0,,,,,,,,,0,41,41,9,,,,,,,,,,,,,,,None,None,None,34.838,,,,,,,,,,,,,,,,,,,,,,,,,,,,2019_Jan_23_1608,60.50555193460508,Cloud_Experiment_FR_REAL,001,09,
images/fcloud80-20_D0.9_6.tif,0.9,2,,,,,,,,,0,42,42,77,,,,,,,,,,,,,,,None,None,None,43.331,,,,,,,,,,,,,,,,,,,,,,,,,,,,2019_Jan_23_1608,60.50555193460508,Cloud_Experiment_FR_REAL,001,09,
images/fcloud80-20_D1.4_6.tif,1.4,2,,,,,,,,,0,43,43,92,,,,,,,,,,,,,,,None,None,None,51.656,,,,,,,,,,,,,,,,,,,,,,,,,,,,2019_Jan_23_1608,60.50555193460508,Cloud_Experiment_FR_REAL,001,09,
images/fcloud65-35_D1.6_5.tif,1.6,1,,,,,,,,,0,44,44,61,,,,,,,,,,,,,,,None,None,None,60.216,,,,,,,,,,,,,,,,,,,,,,,,,,,,2019_Jan_23_1608,60.50555193460508,Cloud_Experiment_FR_REAL,001,09,
images/fcloud65-35_D1.6_4.tif,1.6,1,,,,,,,,,0,45,45,60,,,,,,,,,,,,,,,None,None,None,68.625,,,,,,,,,,,,,,,,,,,,,,,,,,,,2019_Jan_23_1608,60.50555193460508,Cloud_Experiment_FR_REAL,001,09,
images/fcloud_D1.8_5.tif,1.8,0,,,,,,,,,0,46,46,31,,,,,,,,,,,,,,,1,None,4,0.687,,,,,,,,,,,,,,,,,,,,,,,,,,,,2019_Jan_23_1608,60.50555193460508,Cloud_Experiment_FR_REAL,001,09,
images/fcloud_D1.1_6.tif,1.1,0,,,,,,,,,0,47,47,11,,,,,,,,,,,,,,,None,None,None,9.644,,,,,,,,,,,,,,,,,,,,,,,,,,,,2019_Jan_23_1608,60.50555193460508,Cloud_Experiment_FR_REAL,001,09,
images/fcloud80-20_D1.9_5.tif,1.9,2,,,,,,,,,0,48,48,106,,,,,,,,,,,,,,,None,None,None,18.136,,,,,,,,,,,,,,,,,,,,,,,,,,,,2019_Jan_23_1608,60.50555193460508,Cloud_Experiment_FR_REAL,001,09,
images/fcloud_D1.2_6.tif,1.2,0,,,,,,,,,0,49,49,14,,,,,,,,,,,,,,,None,None,None,26.596,,,,,,,,,,,,,,,,,,,,,,,,,,,,2019_Jan_23_1608,60.50555193460508,Cloud_Experiment_FR_REAL,001,09,
images/fcloud80-20_D1.5_6.tif,1.5,2,,,,,,,,,0,50,50,95,,,,,,,,,,,,,,,None,None,None,35.004,,,,,,,,,,,,,,,,,,,,,,,,,,,,2019_Jan_23_1608,60.50555193460508,Cloud_Experiment_FR_REAL,001,09,
images/fcloud_D1.6_4.tif,1.6,0,,,,,,,,,0,51,51,24,,,,,,,,,,,,,,,1,space,4,0.734,2.7107500383,,,,,,,,,,,,,,,,,,,,,,,,,,,2019_Jan_23_1608,60.50555193460508,Cloud_Experiment_FR_REAL,001,09,
images/fcloud65-35_D1.8_4.tif,1.8,1,,,,,,,,,0,52,52,66,,,,,,,,,,,,,,,None,None,None,9.563,,,,,,,,,,,,,,,,,,,,,,,,,,,,2019_Jan_23_1608,60.50555193460508,Cloud_Experiment_FR_REAL,001,09,
images/fcloud65-35_D1.8_6.tif,1.8,1,,,,,,,,,0,53,53,68,,,,,,,,,,,,,,,None,space,None,19.236,8.23156467284,,,,,,,,,,,,,,,,,,,,,,,,,,,2019_Jan_23_1608,60.50555193460508,Cloud_Experiment_FR_REAL,001,09,
images/fcloud80-20_D0.9_4.tif,0.9,2,,,,,,,,,0,54,54,75,,,,,,,,,,,,,,,None,None,None,27.71,,,,,,,,,,,,,,,,,,,,,,,,,,,,2019_Jan_23_1608,60.50555193460508,Cloud_Experiment_FR_REAL,001,09,
images/fcloud65-35_D0.8_6.tif,0.8,1,,,,,,,,,0,55,55,38,,,,,,,,,,,,,,,None,None,None,36.004,,,,,,,,,,,,,,,,,,,,,,,,,,,,2019_Jan_23_1608,60.50555193460508,Cloud_Experiment_FR_REAL,001,09,
images/fcloud80-20_D1.8_6.tif,1.8,2,,,,,,,,,0,56,56,104,,,,,,,,,,,,,,,None,None,None,44.58,,,,,,,,,,,,,,,,,,,,,,,,,,,,2019_Jan_23_1608,60.50555193460508,Cloud_Experiment_FR_REAL,001,09,
images/fcloud80-20_D1.2_5.tif,1.2,2,,,,,,,,,0,57,57,85,,,,,,,,,,,,,,,None,None,None,53.337,,,,,,,,,,,,,,,,,,,,,,,,,,,,2019_Jan_23_1608,60.50555193460508,Cloud_Experiment_FR_REAL,001,09,
images/fcloud65-35_D1.9_6.tif,1.9,1,,,,,,,,,0,58,58,71,,,,,,,,,,,,,,,None,None,None,61.895,,,,,,,,,,,,,,,,,,,,,,,,,,,,2019_Jan_23_1608,60.50555193460508,Cloud_Experiment_FR_REAL,001,09,
images/fcloud_D1.8_6.tif,1.8,0,,,,,,,,,0,59,59,32,,,,,,,,,,,,,,,1,space,5,3.485,2.06445180572,,,,,,,,,,,,,,,,,,,,,,,,,,,2019_Jan_23_1608,60.50555193460508,Cloud_Experiment_FR_REAL,001,09,
images/fcloud65-35_D1.2_4.tif,1.2,1,,,,,,,,,0,60,60,48,,,,,,,,,,,,,,,None,None,None,12.042,,,,,,,,,,,,,,,,,,,,,,,,,,,,2019_Jan_23_1608,60.50555193460508,Cloud_Experiment_FR_REAL,001,09,
images/fcloud65-35_D0.9_5.tif,0.9,1,,,,,,,,,0,61,61,40,,,,,,,,,,,,,,,None,None,None,20.518,,,,,,,,,,,,,,,,,,,,,,,,,,,,2019_Jan_23_1608,60.50555193460508,Cloud_Experiment_FR_REAL,001,09,
images/fcloud_D1.4_6.tif,1.4,0,,,,,,,,,0,62,62,20,,,,,,,,,,,,,,,None,None,None,29.158,,,,,,,,,,,,,,,,,,,,,,,,,,,,2019_Jan_23_1608,60.50555193460508,Cloud_Experiment_FR_REAL,001,09,
images/fcloud_D1.8_4.tif,1.8,0,,,,,,,,,0,63,63,30,,,,,,,,,,,,,,,None,None,None,37.9,,,,,,,,,,,,,,,,,,,,,,,,,,,,2019_Jan_23_1608,60.50555193460508,Cloud_Experiment_FR_REAL,001,09,
images/fcloud65-35_D1.9_5.tif,1.9,1,,,,,,,,,0,64,64,70,,,,,,,,,,,,,,,1,space,3,0.869,7.0539188018,,,,,,,,,,,,,,,,,,,,,,,,,,,2019_Jan_23_1608,60.50555193460508,Cloud_Experiment_FR_REAL,001,09,
images/fcloud_D1.6_6.tif,1.6,0,,,,,,,,,0,65,65,26,,,,,,,,,,,,,,,1,space,5,2.252,4.47504721602,,,,,,,,,,,,,,,,,,,,,,,,,,,2019_Jan_23_1608,60.50555193460508,Cloud_Experiment_FR_REAL,001,09,
images/fcloud_D1.1_5.tif,1.1,0,,,,,,,,,0,66,66,10,,,,,,,,,,,,,,,None,None,None,10.96,,,,,,,,,,,,,,,,,,,,,,,,,,,,2019_Jan_23_1608,60.50555193460508,Cloud_Experiment_FR_REAL,001,09,
images/fcloud65-35_D0.9_4.tif,0.9,1,,,,,,,,,0,67,67,39,,,,,,,,,,,,,,,None,None,None,19.435,,,,,,,,,,,,,,,,,,,,,,,,,,,,2019_Jan_23_1608,60.50555193460508,Cloud_Experiment_FR_REAL,001,09,
images/fcloud80-20_D1.2_6.tif,1.2,2,,,,,,,,,0,68,68,86,,,,,,,,,,,,,,,None,None,None,27.861,,,,,,,,,,,,,,,,,,,,,,,,,,,,2019_Jan_23_1608,60.50555193460508,Cloud_Experiment_FR_REAL,001,09,
images/fcloud80-20_D1_4.tif,1.0,2,,,,,,,,,0,69,69,78,,,,,,,,,,,,,,,None,None,None,36.202,,,,,,,,,,,,,,,,,,,,,,,,,,,,2019_Jan_23_1608,60.50555193460508,Cloud_Experiment_FR_REAL,001,09,
images/fcloud80-20_D1.1_5.tif,1.1,2,,,,,,,,,0,70,70,82,,,,,,,,,,,,,,,None,None,None,44.617,,,,,,,,,,,,,,,,,,,,,,,,,,,,2019_Jan_23_1608,60.50555193460508,Cloud_Experiment_FR_REAL,001,09,
images/fcloud65-35_D1.4_6.tif,1.4,1,,,,,,,,,0,71,71,56,,,,,,,,,,,,,,,None,None,None,53.158,,,,,,,,,,,,,,,,,,,,,,,,,,,,2019_Jan_23_1608,60.50555193460508,Cloud_Experiment_FR_REAL,001,09,
images/fcloud65-35_D1.4_4.tif,1.4,1,,,,,,,,,0,72,72,54,,,,,,,,,,,,,,,None,space,None,62.032,7.24644761722,,,,,,,,,,,,,,,,,,,,,,,,,,,2019_Jan_23_1608,60.50555193460508,Cloud_Experiment_FR_REAL,001,09,
images/fcloud65-35_D1_4.tif,1.0,1,,,,,,,,,0,73,73,42,,,,,,,,,,,,,,,None,None,None,71.189,,,,,,,,,,,,,,,,,,,,,,,,,,,,2019_Jan_23_1608,60.50555193460508,Cloud_Experiment_FR_REAL,001,09,
images/fcloud65-35_D0.9_6.tif,0.9,1,,,,,,,,,0,74,74,41,,,,,,,,,,,,,,,None,None,None,79.833,,,,,,,,,,,,,,,,,,,,,,,,,,,,2019_Jan_23_1608,60.50555193460508,Cloud_Experiment_FR_REAL,001,09,
images/fcloud_D1.3_5.tif,1.3,0,,,,,,,,,0,75,75,16,,,,,,,,,,,,,,,None,None,None,88.759,,,,,,,,,,,,,,,,,,,,,,,,,,,,2019_Jan_23_1608,60.50555193460508,Cloud_Experiment_FR_REAL,001,09,
images/fcloud65-35_D1_6.tif,1.0,1,,,,,,,,,0,76,76,44,,,,,,,,,,,,,,,1,space,3,1.818,6.71555646029,,,,,,,,,,,,,,,,,,,,,,,,,,,2019_Jan_23_1608,60.50555193460508,Cloud_Experiment_FR_REAL,001,09,
images/fcloud_D1.7_5.tif,1.7,0,,,,,,,,,0,77,77,28,,,,,,,,,,,,,,,1,space,3,1.901,6.70631630678,,,,,,,,,,,,,,,,,,,,,,,,,,,2019_Jan_23_1608,60.50555193460508,Cloud_Experiment_FR_REAL,001,09,
images/fcloud65-35_D1.1_6.tif,1.1,1,,,,,,,,,0,78,78,47,,,,,,,,,,,,,,,None,None,None,10.208,,,,,,,,,,,,,,,,,,,,,,,,,,,,2019_Jan_23_1608,60.50555193460508,Cloud_Experiment_FR_REAL,001,09,
images/fcloud65-35_D0.8_5.tif,0.8,1,,,,,,,,,0,79,79,37,,,,,,,,,,,,,,,None,None,None,18.588,,,,,,,,,,,,,,,,,,,,,,,,,,,,2019_Jan_23_1608,60.50555193460508,Cloud_Experiment_FR_REAL,001,09,
images/fcloud80-20_D1.7_4.tif,1.7,2,,,,,,,,,0,80,80,99,,,,,,,,,,,,,,,None,None,None,26.994,,,,,,,,,,,,,,,,,,,,,,,,,,,,2019_Jan_23_1608,60.50555193460508,Cloud_Experiment_FR_REAL,001,09,
images/fcloud_D1.7_6.tif,1.7,0,,,,,,,,,0,81,81,29,,,,,,,,,,,,,,,1,space,3,0.62,5.67661159072,,,,,,,,,,,,,,,,,,,,,,,,,,,2019_Jan_23_1608,60.50555193460508,Cloud_Experiment_FR_REAL,001,09,
images/fcloud80-20_D1.6_4.tif,1.6,2,,,,,,,,,0,82,82,96,,,,,,,,,,,,,,,None,None,None,10.11,,,,,,,,,,,,,,,,,,,,,,,,,,,,2019_Jan_23_1608,60.50555193460508,Cloud_Experiment_FR_REAL,001,09,
images/fcloud65-35_D1.9_4.tif,1.9,1,,,,,,,,,0,83,83,69,,,,,,,,,,,,,,,None,None,None,18.604,,,,,,,,,,,,,,,,,,,,,,,,,,,,2019_Jan_23_1608,60.50555193460508,Cloud_Experiment_FR_REAL,001,09,
images/fcloud80-20_D1.3_6.tif,1.3,2,,,,,,,,,0,84,84,89,,,,,,,,,,,,,,,None,None,None,27.095,,,,,,,,,,,,,,,,,,,,,,,,,,,,2019_Jan_23_1608,60.50555193460508,Cloud_Experiment_FR_REAL,001,09,
images/fcloud65-35_D1.4_5.tif,1.4,1,,,,,,,,,0,85,85,55,,,,,,,,,,,,,,,1,space,2,1.502,6.15698442515,,,,,,,,,,,,,,,,,,,,,,,,,,,2019_Jan_23_1608,60.50555193460508,Cloud_Experiment_FR_REAL,001,09,
images/fcloud80-20_D1.1_4.tif,1.1,2,,,,,,,,,0,86,86,81,,,,,,,,,,,,,,,None,None,None,10.942,,,,,,,,,,,,,,,,,,,,,,,,,,,,2019_Jan_23_1608,60.50555193460508,Cloud_Experiment_FR_REAL,001,09,
images/fcloud65-35_D1.7_5.tif,1.7,1,,,,,,,,,0,87,87,64,,,,,,,,,,,,,,,None,None,None,19.502,,,,,,,,,,,,,,,,,,,,,,,,,,,,2019_Jan_23_1608,60.50555193460508,Cloud_Experiment_FR_REAL,001,09,
images/fcloud80-20_D0.8_6.tif,0.8,2,,,,,,,,,0,88,88,74,,,,,,,,,,,,,,,None,None,None,27.944,,,,,,,,,,,,,,,,,,,,,,,,,,,,2019_Jan_23_1608,60.50555193460508,Cloud_Experiment_FR_REAL,001,09,
images/fcloud_D1_6.tif,1.0,0,,,,,,,,,0,89,89,8,,,,,,,,,,,,,,,None,None,None,36.872,,,,,,,,,,,,,,,,,,,,,,,,,,,,2019_Jan_23_1608,60.50555193460508,Cloud_Experiment_FR_REAL,001,09,
images/fcloud_D0.8_6.tif,0.8,0,,,,,,,,,0,90,90,2,,,,,,,,,,,,,,,None,None,None,45.196,,,,,,,,,,,,,,,,,,,,,,,,,,,,2019_Jan_23_1608,60.50555193460508,Cloud_Experiment_FR_REAL,001,09,
images/fcloud65-35_D1.3_5.tif,1.3,1,,,,,,,,,0,91,91,52,,,,,,,,,,,,,,,None,None,None,53.753,,,,,,,,,,,,,,,,,,,,,,,,,,,,2019_Jan_23_1608,60.50555193460508,Cloud_Experiment_FR_REAL,001,09,
images/fcloud80-20_D1.8_5.tif,1.8,2,,,,,,,,,0,92,92,103,,,,,,,,,,,,,,,None,None,None,62.681,,,,,,,,,,,,,,,,,,,,,,,,,,,,2019_Jan_23_1608,60.50555193460508,Cloud_Experiment_FR_REAL,001,09,
images/fcloud_D1.4_4.tif,1.4,0,,,,,,,,,0,93,93,18,,,,,,,,,,,,,,,None,None,None,71.073,,,,,,,,,,,,,,,,,,,,,,,,,,,,2019_Jan_23_1608,60.50555193460508,Cloud_Experiment_FR_REAL,001,09,
images/fcloud_D1.6_5.tif,1.6,0,,,,,,,,,0,94,94,25,,,,,,,,,,,,,,,None,None,None,79.632,,,,,,,,,,,,,,,,,,,,,,,,,,,,2019_Jan_23_1608,60.50555193460508,Cloud_Experiment_FR_REAL,001,09,
images/fcloud80-20_D1.6_6.tif,1.6,2,,,,,,,,,0,95,95,98,,,,,,,,,,,,,,,None,None,None,88.04,,,,,,,,,,,,,,,,,,,,,,,,,,,,2019_Jan_23_1608,60.50555193460508,Cloud_Experiment_FR_REAL,001,09,
images/fcloud_D1.3_6.tif,1.3,0,,,,,,,,,0,96,96,17,,,,,,,,,,,,,,,1,space,3,0.936,5.39279365697,,,,,,,,,,,,,,,,,,,,,,,,,,,2019_Jan_23_1608,60.50555193460508,Cloud_Experiment_FR_REAL,001,09,
images/fcloud_D1_5.tif,1.0,0,,,,,,,,,0,97,97,7,,,,,,,,,,,,,,,1,None,4,0.703,,,,,,,,,,,,,,,,,,,,,,,,,,,,2019_Jan_23_1608,60.50555193460508,Cloud_Experiment_FR_REAL,001,09,
images/fcloud_D1.5_6.tif,1.5,0,,,,,,,,,0,98,98,23,,,,,,,,,,,,,,,None,None,None,9.945,,,,,,,,,,,,,,,,,,,,,,,,,,,,2019_Jan_23_1608,60.50555193460508,Cloud_Experiment_FR_REAL,001,09,
images/fcloud_D1.5_4.tif,1.5,0,,,,,,,,,0,99,99,21,,,,,,,,,,,,,,,2,space,3,1.386,6.2369776807,,,,,,,,,,,,,,,,,,,,,,,,,,,2019_Jan_23_1608,60.50555193460508,Cloud_Experiment_FR_REAL,001,09,
images/fcloud80-20_D1.4_5.tif,1.4,2,,,,,,,,,0,100,100,91,,,,,,,,,,,,,,,None,None,None,9.843,,,,,,,,,,,,,,,,,,,,,,,,,,,,2019_Jan_23_1608,60.50555193460508,Cloud_Experiment_FR_REAL,001,09,
images/fcloud80-20_D1_5.tif,1.0,2,,,,,,,,,0,101,101,79,,,,,,,,,,,,,,,1,space,3,1.335,5.01911568004,,,,,,,,,,,,,,,,,,,,,,,,,,,2019_Jan_23_1608,60.50555193460508,Cloud_Experiment_FR_REAL,001,09,
images/fcloud65-35_D1.1_5.tif,1.1,1,,,,,,,,,0,102,102,46,,,,,,,,,,,,,,,None,None,None,9.875,,,,,,,,,,,,,,,,,,,,,,,,,,,,2019_Jan_23_1608,60.50555193460508,Cloud_Experiment_FR_REAL,001,09,
images/fcloud65-35_D1.8_5.tif,1.8,1,,,,,,,,,0,103,103,67,,,,,,,,,,,,,,,None,None,None,18.235,,,,,,,,,,,,,,,,,,,,,,,,,,,,2019_Jan_23_1608,60.50555193460508,Cloud_Experiment_FR_REAL,001,09,
images/fcloud80-20_D0.8_4.tif,0.8,2,,,,,,,,,0,104,104,72,,,,,,,,,,,,,,,None,None,None,26.743,,,,,,,,,,,,,,,,,,,,,,,,,,,,2019_Jan_23_1608,60.50555193460508,Cloud_Experiment_FR_REAL,001,09,
images/fcloud_D1.4_5.tif,1.4,0,,,,,,,,,0,105,105,19,,,,,,,,,,,,,,,None,None,None,36.688,,,,,,,,,,,,,,,,,,,,,,,,,,,,2019_Jan_23_1608,60.50555193460508,Cloud_Experiment_FR_REAL,001,09,
images/fcloud80-20_D0.9_5.tif,0.9,2,,,,,,,,,0,106,106,76,,,,,,,,,,,,,,,1,space,3,0.701,7.43456634763,,,,,,,,,,,,,,,,,,,,,,,,,,,2019_Jan_23_1608,60.50555193460508,Cloud_Experiment_FR_REAL,001,09,
images/fcloud80-20_D1_6.tif,1.0,2,,,,,,,,,0,107,107,80,,,,,,,,,,,,,,,None,None,None,9.11,,,,,,,,,,,,,,,,,,,,,,,,,,,,2019_Jan_23_1608,60.50555193460508,Cloud_Experiment_FR_REAL,001,09,
,,,,,,,,,,,,,,,,,,,,,,,,,,,,,,,,,,,,space,1.91687357414,,,,,,,,,,,,,,,,,,,,,,,2019_Jan_23_1608,60.50555193460508,Cloud_Experiment_FR_REAL,001,09,
,,,,,,,,,,,,,,,,,,,,,,,,,5,11.162,,,,,,,,,,,,,,,,,,,,,,,,,,,,,,,,,,2019_Jan_23_1608,60.50555193460508,Cloud_Experiment_FR_REAL,001,09,
,,,,,,,,,,,,,,,,,,,,,,,,,,,,,,,,,,,,,,5,4.775,,,,,,,,,,,,,,,,,,,,,2019_Jan_23_1608,60.50555193460508,Cloud_Experiment_FR_REAL,001,09,
,,,,,,,,,,,,,,,,,,,,,,,,,,,,,,,,,,,,,,,,4,2.517,,,,,,,,,,,,,,,,,,,2019_Jan_23_1608,60.50555193460508,Cloud_Experiment_FR_REAL,001,09,
,,,,,,,,,,,,,,,,,,,,,,,,,,,,,,,,,,,,,,,,,,4,1.851,,,,,,,,,,,,,,,,,2019_Jan_23_1608,60.50555193460508,Cloud_Experiment_FR_REAL,001,09,
,,,,,,,,,,,,,,,,,,,,,,,,,,,,,,,,,,,,,,,,,,,,4,2.566,,,,,,,,,,,,,,,2019_Jan_23_1608,60.50555193460508,Cloud_Experiment_FR_REAL,001,09,
,,,,,,,,,,,,,,,,,,,,,,,,,,,,,,,,,,,,,,,,,,,,,,5,1.785,,,,,,,,,,,,,2019_Jan_23_1608,60.50555193460508,Cloud_Experiment_FR_REAL,001,09,
,,,,,,,,,,,,,,,,,,,,,,,,,,,,,,,,,,,,,,,,,,,,,,,,5,2.401,,,,,,,,,,,2019_Jan_23_1608,60.50555193460508,Cloud_Experiment_FR_REAL,001,09,
,,,,,,,,,,,,,,,,,,,,,,,,,,,,,,,,,,,,,,,,,,,,,,,,,,5,3.983,,,,,,,,,2019_Jan_23_1608,60.50555193460508,Cloud_Experiment_FR_REAL,001,09,
,,,,,,,,,,,,,,,,,,,,,,,,,,,,,,,,,,,,,,,,,,,,,,,,,,,,5,1.652,,,,,,,2019_Jan_23_1608,60.50555193460508,Cloud_Experiment_FR_REAL,001,09,
,,,,,,,,,,,,,,,,,,,,,,,,,,,,,,,,,,,,,,,,,,,,,,,,,,,,,,5,1.935,,,,,2019_Jan_23_1608,60.50555193460508,Cloud_Experiment_FR_REAL,001,09,
,,,,,,,,,,,,,,,,,,,,,,,,,,,,,,,,,,,,,,,,,,,,,,,,,,,,,,,,1,1.718,,,2019_Jan_23_1608,60.50555193460508,Cloud_Experiment_FR_REAL,001,09,
,,,,,,,,,,,,,,,,,,,,,,,,,,,,,,,,,,,,,,,,,,,,,,,,,,,,,,,,,,space,126.956624997,2019_Jan_23_1608,60.50555193460508,Cloud_Experiment_FR_REAL,001,09,
images/fcloud65-35_D1.2_7.tif,1.2,1,,,,,,,,,,,,,0,0,0,64,,,,,,,,,,,None,None,None,185.209,,,,,,,,,,,,,,,,,,,,,,,,,,,,2019_Jan_23_1608,60.50555193460508,Cloud_Experiment_FR_REAL,001,09,
images/fcloud80-20_D1.5_9.tif,1.5,2,,,,,,,,,,,,,0,1,1,126,,,,,,,,,,,None,None,None,193.583,,,,,,,,,,,,,,,,,,,,,,,,,,,,2019_Jan_23_1608,60.50555193460508,Cloud_Experiment_FR_REAL,001,09,
images/fcloud80-20_D1.2_8.tif,1.2,2,,,,,,,,,,,,,0,2,2,113,,,,,,,,,,,None,None,None,201.943,,,,,,,,,,,,,,,,,,,,,,,,,,,,2019_Jan_23_1608,60.50555193460508,Cloud_Experiment_FR_REAL,001,09,
images/fcloud80-20_D1.8_9.tif,1.8,2,,,,,,,,,,,,,0,3,3,138,,,,,,,,,,,None,None,None,210.335,,,,,,,,,,,,,,,,,,,,,,,,,,,,2019_Jan_23_1608,60.50555193460508,Cloud_Experiment_FR_REAL,001,09,
images/fcloud65-35_D1_9.tif,1.0,1,,,,,,,,,,,,,0,4,4,58,,,,,,,,,,,None,None,None,218.878,,,,,,,,,,,,,,,,,,,,,,,,,,,,2019_Jan_23_1608,60.50555193460508,Cloud_Experiment_FR_REAL,001,09,
images/fcloud_D1.5_8.tif,1.5,0,,,,,,,,,,,,,0,5,5,29,,,,,,,,,,,None,None,None,227.421,,,,,,,,,,,,,,,,,,,,,,,,,,,,2019_Jan_23_1608,60.50555193460508,Cloud_Experiment_FR_REAL,001,09,
images/fcloud80-20_D0.9_9.tif,0.9,2,,,,,,,,,,,,,0,6,6,102,,,,,,,,,,,None,None,None,235.796,,,,,,,,,,,,,,,,,,,,,,,,,,,,2019_Jan_23_1608,60.50555193460508,Cloud_Experiment_FR_REAL,001,09,
images/fcloud80-20_D0.9_8.tif,0.9,2,,,,,,,,,,,,,0,7,7,101,,,,,,,,,,,None,None,None,244.175,,,,,,,,,,,,,,,,,,,,,,,,,,,,2019_Jan_23_1608,60.50555193460508,Cloud_Experiment_FR_REAL,001,09,
images/fcloud80-20_D1.9_8.tif,1.9,2,,,,,,,,,,,,,0,8,8,141,,,,,,,,,,,None,None,None,252.632,,,,,,,,,,,,,,,,,,,,,,,,,,,,2019_Jan_23_1608,60.50555193460508,Cloud_Experiment_FR_REAL,001,09,
images/fcloud80-20_D1.6_10.tif,1.6,2,,,,,,,,,,,,,0,9,9,131,,,,,,,,,,,None,None,None,261.006,,,,,,,,,,,,,,,,,,,,,,,,,,,,2019_Jan_23_1608,60.50555193460508,Cloud_Experiment_FR_REAL,001,09,
images/fcloud80-20_D1_10.tif,1.0,2,,,,,,,,,,,,,0,10,10,107,,,,,,,,,,,None,None,None,269.435,,,,,,,,,,,,,,,,,,,,,,,,,,,,2019_Jan_23_1608,60.50555193460508,Cloud_Experiment_FR_REAL,001,09,
images/fcloud_D1.8_10.tif,1.8,0,,,,,,,,,,,,,0,11,11,43,,,,,,,,,,,None,None,None,277.928,,,,,,,,,,,,,,,,,,,,,,,,,,,,2019_Jan_23_1608,60.50555193460508,Cloud_Experiment_FR_REAL,001,09,
images/fcloud80-20_D1.7_7.tif,1.7,2,,,,,,,,,,,,,0,12,12,132,,,,,,,,,,,None,None,None,286.385,,,,,,,,,,,,,,,,,,,,,,,,,,,,2019_Jan_23_1608,60.50555193460508,Cloud_Experiment_FR_REAL,001,09,
images/fcloud65-35_D1.9_9.tif,1.9,1,,,,,,,,,,,,,0,13,13,94,,,,,,,,,,,None,None,None,294.828,,,,,,,,,,,,,,,,,,,,,,,,,,,,2019_Jan_23_1608,60.50555193460508,Cloud_Experiment_FR_REAL,001,09,
images/fcloud65-35_D1.9_10.tif,1.9,1,,,,,,,,,,,,,0,14,14,95,,,,,,,,,,,None,None,None,303.288,,,,,,,,,,,,,,,,,,,,,,,,,,,,2019_Jan_23_1608,60.50555193460508,Cloud_Experiment_FR_REAL,001,09,
images/fcloud_D1.6_8.tif,1.6,0,,,,,,,,,,,,,0,15,15,33,,,,,,,,,,,None,None,None,311.647,,,,,,,,,,,,,,,,,,,,,,,,,,,,2019_Jan_23_1608,60.50555193460508,Cloud_Experiment_FR_REAL,001,09,
images/fcloud80-20_D1.3_8.tif,1.3,2,,,,,,,,,,,,,0,16,16,117,,,,,,,,,,,None,None,None,319.988,,,,,,,,,,,,,,,,,,,,,,,,,,,,2019_Jan_23_1608,60.50555193460508,Cloud_Experiment_FR_REAL,001,09,
images/fcloud80-20_D1.4_9.tif,1.4,2,,,,,,,,,,,,,0,17,17,122,,,,,,,,,,,None,None,None,328.516,,,,,,,,,,,,,,,,,,,,,,,,,,,,2019_Jan_23_1608,60.50555193460508,Cloud_Experiment_FR_REAL,001,09,
images/fcloud_D1.3_7.tif,1.3,0,,,,,,,,,,,,,0,18,18,20,,,,,,,,,,,None,None,None,336.858,,,,,,,,,,,,,,,,,,,,,,,,,,,,2019_Jan_23_1608,60.50555193460508,Cloud_Experiment_FR_REAL,001,09,
images/fcloud65-35_D1.2_9.tif,1.2,1,,,,,,,,,,,,,0,19,19,66,,,,,,,,,,,None,None,None,345.469,,,,,,,,,,,,,,,,,,,,,,,,,,,,2019_Jan_23_1608,60.50555193460508,Cloud_Experiment_FR_REAL,001,09,
images/fcloud_D1.6_7.tif,1.6,0,,,,,,,,,,,,,0,20,20,32,,,,,,,,,,,None,None,None,353.843,,,,,,,,,,,,,,,,,,,,,,,,,,,,2019_Jan_23_1608,60.50555193460508,Cloud_Experiment_FR_REAL,001,09,
images/fcloud_D1.1_8.tif,1.1,0,,,,,,,,,,,,,0,21,21,13,,,,,,,,,,,None,None,None,362.251,,,,,,,,,,,,,,,,,,,,,,,,,,,,2019_Jan_23_1608,60.50555193460508,Cloud_Experiment_FR_REAL,001,09,
images/fcloud65-35_D1.5_9.tif,1.5,1,,,,,,,,,,,,,0,22,22,78,,,,,,,,,,,None,None,None,370.612,,,,,,,,,,,,,,,,,,,,,,,,,,,,2019_Jan_23_1608,60.50555193460508,Cloud_Experiment_FR_REAL,001,09,
images/fcloud80-20_D1.6_9.tif,1.6,2,,,,,,,,,,,,,0,23,23,130,,,,,,,,,,,None,None,None,379.205,,,,,,,,,,,,,,,,,,,,,,,,,,,,2019_Jan_23_1608,60.50555193460508,Cloud_Experiment_FR_REAL,001,09,
images/fcloud80-20_D0.9_10.tif,0.9,2,,,,,,,,,,,,,0,24,24,103,,,,,,,,,,,None,None,None,387.78,,,,,,,,,,,,,,,,,,,,,,,,,,,,2019_Jan_23_1608,60.50555193460508,Cloud_Experiment_FR_REAL,001,09,
images/fcloud80-20_D1.5_10.tif,1.5,2,,,,,,,,,,,,,0,25,25,127,,,,,,,,,,,1,space,2,1.668,4.98397842198,,,,,,,,,,,,,,,,,,,,,,,,,,,2019_Jan_23_1608,60.50555193460508,Cloud_Experiment_FR_REAL,001,09,
images/fcloud_D1.3_10.tif,1.3,0,,,,,,,,,,,,,0,26,26,23,,,,,,,,,,,None,None,None,10.61,,,,,,,,,,,,,,,,,,,,,,,,,,,,2019_Jan_23_1608,60.50555193460508,Cloud_Experiment_FR_REAL,001,09,
images/fcloud_D1.5_10.tif,1.5,0,,,,,,,,,,,,,0,27,27,31,,,,,,,,,,,1,None,2,2.218,,,,,,,,,,,,,,,,,,,,,,,,,,,,2019_Jan_23_1608,60.50555193460508,Cloud_Experiment_FR_REAL,001,09,
images/fcloud80-20_D1.3_7.tif,1.3,2,,,,,,,,,,,,,0,28,28,116,,,,,,,,,,,1,None,2,0.753,,,,,,,,,,,,,,,,,,,,,,,,,,,,2019_Jan_23_1608,60.50555193460508,Cloud_Experiment_FR_REAL,001,09,
images/fcloud_D1.7_10.tif,1.7,0,,,,,,,,,,,,,0,29,29,39,,,,,,,,,,,1,space,3,0.62,2.70814994394,,,,,,,,,,,,,,,,,,,,,,,,,,,2019_Jan_23_1608,60.50555193460508,Cloud_Experiment_FR_REAL,001,09,
images/fcloud_D1.1_10.tif,1.1,0,,,,,,,,,,,,,0,30,30,15,,,,,,,,,,,None,None,None,11.428,,,,,,,,,,,,,,,,,,,,,,,,,,,,2019_Jan_23_1608,60.50555193460508,Cloud_Experiment_FR_REAL,001,09,
images/fcloud80-20_D1.2_7.tif,1.2,2,,,,,,,,,,,,,0,31,31,112,,,,,,,,,,,None,None,None,19.753,,,,,,,,,,,,,,,,,,,,,,,,,,,,2019_Jan_23_1608,60.50555193460508,Cloud_Experiment_FR_REAL,001,09,
images/fcloud80-20_D0.8_7.tif,0.8,2,,,,,,,,,,,,,0,32,32,96,,,,,,,,,,,None,None,None,28.328,,,,,,,,,,,,,,,,,,,,,,,,,,,,2019_Jan_23_1608,60.50555193460508,Cloud_Experiment_FR_REAL,001,09,
images/fcloud65-35_D1.4_8.tif,1.4,1,,,,,,,,,,,,,0,33,33,73,,,,,,,,,,,None,None,None,36.704,,,,,,,,,,,,,,,,,,,,,,,,,,,,2019_Jan_23_1608,60.50555193460508,Cloud_Experiment_FR_REAL,001,09,
images/fcloud80-20_D1.8_7.tif,1.8,2,,,,,,,,,,,,,0,34,34,136,,,,,,,,,,,None,None,None,45.113,,,,,,,,,,,,,,,,,,,,,,,,,,,,2019_Jan_23_1608,60.50555193460508,Cloud_Experiment_FR_REAL,001,09,
images/fcloud65-35_D1_8.tif,1.0,1,,,,,,,,,,,,,0,35,35,57,,,,,,,,,,,None,None,None,53.506,,,,,,,,,,,,,,,,,,,,,,,,,,,,2019_Jan_23_1608,60.50555193460508,Cloud_Experiment_FR_REAL,001,09,
images/fcloud65-35_D1.4_9.tif,1.4,1,,,,,,,,,,,,,0,36,36,74,,,,,,,,,,,None,None,None,61.966,,,,,,,,,,,,,,,,,,,,,,,,,,,,2019_Jan_23_1608,60.50555193460508,Cloud_Experiment_FR_REAL,001,09,
images/fcloud65-35_D1.7_8.tif,1.7,1,,,,,,,,,,,,,0,37,37,85,,,,,,,,,,,None,None,None,70.458,,,,,,,,,,,,,,,,,,,,,,,,,,,,2019_Jan_23_1608,60.50555193460508,Cloud_Experiment_FR_REAL,001,09,
images/fcloud80-20_D1.6_8.tif,1.6,2,,,,,,,,,,,,,0,38,38,129,,,,,,,,,,,None,None,None,78.885,,,,,,,,,,,,,,,,,,,,,,,,,,,,2019_Jan_23_1608,60.50555193460508,Cloud_Experiment_FR_REAL,001,09,
images/fcloud_D1.1_9.tif,1.1,0,,,,,,,,,,,,,0,39,39,14,,,,,,,,,,,None,None,None,87.692,,,,,,,,,,,,,,,,,,,,,,,,,,,,2019_Jan_23_1608,60.50555193460508,Cloud_Experiment_FR_REAL,001,09,
images/fcloud_D0.9_9.tif,0.9,0,,,,,,,,,,,,,0,40,40,6,,,,,,,,,,,1,space,3,1.801,6.27737681425,,,,,,,,,,,,,,,,,,,,,,,,,,,2019_Jan_23_1608,60.50555193460508,Cloud_Experiment_FR_REAL,001,09,
images/fcloud65-35_D1.1_8.tif,1.1,1,,,,,,,,,,,,,0,41,41,61,,,,,,,,,,,None,None,None,10.326,,,,,,,,,,,,,,,,,,,,,,,,,,,,2019_Jan_23_1608,60.50555193460508,Cloud_Experiment_FR_REAL,001,09,
images/fcloud_D0.9_7.tif,0.9,0,,,,,,,,,,,,,0,42,42,4,,,,,,,,,,,None,None,None,18.702,,,,,,,,,,,,,,,,,,,,,,,,,,,,2019_Jan_23_1608,60.50555193460508,Cloud_Experiment_FR_REAL,001,09,
images/fcloud80-20_D1.7_10.tif,1.7,2,,,,,,,,,,,,,0,43,43,135,,,,,,,,,,,None,None,None,27.045,,,,,,,,,,,,,,,,,,,,,,,,,,,,2019_Jan_23_1608,60.50555193460508,Cloud_Experiment_FR_REAL,001,09,
images/fcloud_D1_7.tif,1.0,0,,,,,,,,,,,,,0,44,44,8,,,,,,,,,,,1,space,4,0.736,7.08058750414,,,,,,,,,,,,,,,,,,,,,,,,,,,2019_Jan_23_1608,60.50555193460508,Cloud_Experiment_FR_REAL,001,09,
images/fcloud80-20_D1.1_7.tif,1.1,2,,,,,,,,,,,,,0,45,45,108,,,,,,,,,,,None,None,None,9.161,,,,,,,,,,,,,,,,,,,,,,,,,,,,2019_Jan_23_1608,60.50555193460508,Cloud_Experiment_FR_REAL,001,09,
images/fcloud80-20_D1.1_9.tif,1.1,2,,,,,,,,,,,,,0,46,46,110,,,,,,,,,,,1,space,4,1.968,5.66189160207,,,,,,,,,,,,,,,,,,,,,,,,,,,2019_Jan_23_1608,60.50555193460508,Cloud_Experiment_FR_REAL,001,09,
images/fcloud65-35_D1.8_9.tif,1.8,1,,,,,,,,,,,,,0,47,47,90,,,,,,,,,,,None,None,None,11.61,,,,,,,,,,,,,,,,,,,,,,,,,,,,2019_Jan_23_1608,60.50555193460508,Cloud_Experiment_FR_REAL,001,09,
images/fcloud80-20_D1.4_7.tif,1.4,2,,,,,,,,,,,,,0,48,48,120,,,,,,,,,,,None,None,None,19.984,,,,,,,,,,,,,,,,,,,,,,,,,,,,2019_Jan_23_1608,60.50555193460508,Cloud_Experiment_FR_REAL,001,09,
images/fcloud_D1.3_9.tif,1.3,0,,,,,,,,,,,,,0,49,49,22,,,,,,,,,,,None,None,None,28.377,,,,,,,,,,,,,,,,,,,,,,,,,,,,2019_Jan_23_1608,60.50555193460508,Cloud_Experiment_FR_REAL,001,09,
images/fcloud65-35_D0.8_10.tif,0.8,1,,,,,,,,,,,,,0,50,50,51,,,,,,,,,,,None,None,None,36.936,,,,,,,,,,,,,,,,,,,,,,,,,,,,2019_Jan_23_1608,60.50555193460508,Cloud_Experiment_FR_REAL,001,09,
images/fcloud_D1_8.tif,1.0,0,,,,,,,,,,,,,0,51,51,9,,,,,,,,,,,None,None,None,45.363,,,,,,,,,,,,,,,,,,,,,,,,,,,,2019_Jan_23_1608,60.50555193460508,Cloud_Experiment_FR_REAL,001,09,
images/fcloud_D1.9_9.tif,1.9,0,,,,,,,,,,,,,0,52,52,46,,,,,,,,,,,None,None,None,54.056,,,,,,,,,,,,,,,,,,,,,,,,,,,,2019_Jan_23_1608,60.50555193460508,Cloud_Experiment_FR_REAL,001,09,
images/fcloud_D1.7_9.tif,1.7,0,,,,,,,,,,,,,0,53,53,38,,,,,,,,,,,None,None,None,62.564,,,,,,,,,,,,,,,,,,,,,,,,,,,,2019_Jan_23_1608,60.50555193460508,Cloud_Experiment_FR_REAL,001,09,
images/fcloud_D1.9_7.tif,1.9,0,,,,,,,,,,,,,0,54,54,44,,,,,,,,,,,None,None,None,70.94,,,,,,,,,,,,,,,,,,,,,,,,,,,,2019_Jan_23_1608,60.50555193460508,Cloud_Experiment_FR_REAL,001,09,
images/fcloud80-20_D0.8_9.tif,0.8,2,,,,,,,,,,,,,0,55,55,98,,,,,,,,,,,2,space,4,1.268,3.1155977904,,,,,,,,,,,,,,,,,,,,,,,,,,,2019_Jan_23_1608,60.50555193460508,Cloud_Experiment_FR_REAL,001,09,
images/fcloud65-35_D1.3_9.tif,1.3,1,,,,,,,,,,,,,0,56,56,70,,,,,,,,,,,1,None,3,1.084,,,,,,,,,,,,,,,,,,,,,,,,,,,,2019_Jan_23_1608,60.50555193460508,Cloud_Experiment_FR_REAL,001,09,
images/fcloud65-35_D1.4_10.tif,1.4,1,,,,,,,,,,,,,0,57,57,75,,,,,,,,,,,None,None,None,9.727,,,,,,,,,,,,,,,,,,,,,,,,,,,,2019_Jan_23_1608,60.50555193460508,Cloud_Experiment_FR_REAL,001,09,
images/fcloud65-35_D1.8_8.tif,1.8,1,,,,,,,,,,,,,0,58,58,89,,,,,,,,,,,None,None,None,18.835,,,,,,,,,,,,,,,,,,,,,,,,,,,,2019_Jan_23_1608,60.50555193460508,Cloud_Experiment_FR_REAL,001,09,
images/fcloud_D1_10.tif,1.0,0,,,,,,,,,,,,,0,59,59,11,,,,,,,,,,,None,None,None,27.245,,,,,,,,,,,,,,,,,,,,,,,,,,,,2019_Jan_23_1608,60.50555193460508,Cloud_Experiment_FR_REAL,001,09,
images/fcloud80-20_D1.1_8.tif,1.1,2,,,,,,,,,,,,,0,60,60,109,,,,,,,,,,,None,None,None,36.253,,,,,,,,,,,,,,,,,,,,,,,,,,,,2019_Jan_23_1608,60.50555193460508,Cloud_Experiment_FR_REAL,001,09,
images/fcloud_D1.4_9.tif,1.4,0,,,,,,,,,,,,,0,61,61,26,,,,,,,,,,,None,None,None,44.612,,,,,,,,,,,,,,,,,,,,,,,,,,,,2019_Jan_23_1608,60.50555193460508,Cloud_Experiment_FR_REAL,001,09,
images/fcloud65-35_D1.3_7.tif,1.3,1,,,,,,,,,,,,,0,62,62,68,,,,,,,,,,,1,space,3,0.853,3.53639052616,,,,,,,,,,,,,,,,,,,,,,,,,,,2019_Jan_23_1608,60.50555193460508,Cloud_Experiment_FR_REAL,001,09,
images/fcloud_D1.7_8.tif,1.7,0,,,,,,,,,,,,,0,63,63,37,,,,,,,,,,,None,None,None,9.96,,,,,,,,,,,,,,,,,,,,,,,,,,,,2019_Jan_23_1608,60.50555193460508,Cloud_Experiment_FR_REAL,001,09,
images/fcloud_D0.8_10.tif,0.8,0,,,,,,,,,,,,,0,64,64,3,,,,,,,,,,,None,None,None,19.951,,,,,,,,,,,,,,,,,,,,,,,,,,,,2019_Jan_23_1608,60.50555193460508,Cloud_Experiment_FR_REAL,001,09,
images/fcloud_D0.9_8.tif,0.9,0,,,,,,,,,,,,,0,65,65,5,,,,,,,,,,,None,None,None,28.56,,,,,,,,,,,,,,,,,,,,,,,,,,,,2019_Jan_23_1608,60.50555193460508,Cloud_Experiment_FR_REAL,001,09,
images/fcloud80-20_D1.7_8.tif,1.7,2,,,,,,,,,,,,,0,66,66,133,,,,,,,,,,,None,None,None,37.037,,,,,,,,,,,,,,,,,,,,,,,,,,,,2019_Jan_23_1608,60.50555193460508,Cloud_Experiment_FR_REAL,001,09,
images/fcloud65-35_D1.3_10.tif,1.3,1,,,,,,,,,,,,,0,67,67,71,,,,,,,,,,,None,None,None,45.496,,,,,,,,,,,,,,,,,,,,,,,,,,,,2019_Jan_23_1608,60.50555193460508,Cloud_Experiment_FR_REAL,001,09,
images/fcloud65-35_D1.7_9.tif,1.7,1,,,,,,,,,,,,,0,68,68,86,,,,,,,,,,,None,None,None,53.906,,,,,,,,,,,,,,,,,,,,,,,,,,,,2019_Jan_23_1608,60.50555193460508,Cloud_Experiment_FR_REAL,001,09,
images/fcloud_D1_9.tif,1.0,0,,,,,,,,,,,,,0,69,69,10,,,,,,,,,,,None,None,None,62.314,,,,,,,,,,,,,,,,,,,,,,,,,,,,2019_Jan_23_1608,60.50555193460508,Cloud_Experiment_FR_REAL,001,09,
images/fcloud65-35_D0.8_9.tif,0.8,1,,,,,,,,,,,,,0,70,70,50,,,,,,,,,,,None,None,None,70.74,,,,,,,,,,,,,,,,,,,,,,,,,,,,2019_Jan_23_1608,60.50555193460508,Cloud_Experiment_FR_REAL,001,09,
images/fcloud_D1.3_8.tif,1.3,0,,,,,,,,,,,,,0,71,71,21,,,,,,,,,,,None,None,None,79.332,,,,,,,,,,,,,,,,,,,,,,,,,,,,2019_Jan_23_1608,60.50555193460508,Cloud_Experiment_FR_REAL,001,09,
images/fcloud_D1.5_7.tif,1.5,0,,,,,,,,,,,,,0,72,72,28,,,,,,,,,,,None,None,None,88.01,,,,,,,,,,,,,,,,,,,,,,,,,,,,2019_Jan_23_1608,60.50555193460508,Cloud_Experiment_FR_REAL,001,09,
images/fcloud65-35_D1.6_10.tif,1.6,1,,,,,,,,,,,,,0,73,73,83,,,,,,,,,,,None,None,None,96.551,,,,,,,,,,,,,,,,,,,,,,,,,,,,2019_Jan_23_1608,60.50555193460508,Cloud_Experiment_FR_REAL,001,09,
images/fcloud80-20_D1_9.tif,1.0,2,,,,,,,,,,,,,0,74,74,106,,,,,,,,,,,None,None,None,105.061,,,,,,,,,,,,,,,,,,,,,,,,,,,,2019_Jan_23_1608,60.50555193460508,Cloud_Experiment_FR_REAL,001,09,
images/fcloud65-35_D0.9_9.tif,0.9,1,,,,,,,,,,,,,0,75,75,54,,,,,,,,,,,None,None,None,113.671,,,,,,,,,,,,,,,,,,,,,,,,,,,,2019_Jan_23_1608,60.50555193460508,Cloud_Experiment_FR_REAL,001,09,
images/fcloud80-20_D1.3_9.tif,1.3,2,,,,,,,,,,,,,0,76,76,118,,,,,,,,,,,None,None,None,122.062,,,,,,,,,,,,,,,,,,,,,,,,,,,,2019_Jan_23_1608,60.50555193460508,Cloud_Experiment_FR_REAL,001,09,
images/fcloud65-35_D1.2_10.tif,1.2,1,,,,,,,,,,,,,0,77,77,67,,,,,,,,,,,None,None,None,130.57,,,,,,,,,,,,,,,,,,,,,,,,,,,,2019_Jan_23_1608,60.50555193460508,Cloud_Experiment_FR_REAL,001,09,
images/fcloud80-20_D1.7_9.tif,1.7,2,,,,,,,,,,,,,0,78,78,134,,,,,,,,,,,None,None,None,139.048,,,,,,,,,,,,,,,,,,,,,,,,,,,,2019_Jan_23_1608,60.50555193460508,Cloud_Experiment_FR_REAL,001,09,
images/fcloud80-20_D0.8_8.tif,0.8,2,,,,,,,,,,,,,0,79,79,97,,,,,,,,,,,None,None,None,147.489,,,,,,,,,,,,,,,,,,,,,,,,,,,,2019_Jan_23_1608,60.50555193460508,Cloud_Experiment_FR_REAL,001,09,
images/fcloud65-35_D1.8_7.tif,1.8,1,,,,,,,,,,,,,0,80,80,88,,,,,,,,,,,None,None,None,156.13,,,,,,,,,,,,,,,,,,,,,,,,,,,,2019_Jan_23_1608,60.50555193460508,Cloud_Experiment_FR_REAL,001,09,
images/fcloud80-20_D1.5_7.tif,1.5,2,,,,,,,,,,,,,0,81,81,124,,,,,,,,,,,None,None,None,164.641,,,,,,,,,,,,,,,,,,,,,,,,,,,,2019_Jan_23_1608,60.50555193460508,Cloud_Experiment_FR_REAL,001,09,
images/fcloud80-20_D1.2_10.tif,1.2,2,,,,,,,,,,,,,0,82,82,115,,,,,,,,,,,None,None,None,173.051,,,,,,,,,,,,,,,,,,,,,,,,,,,,2019_Jan_23_1608,60.50555193460508,Cloud_Experiment_FR_REAL,001,09,
images/fcloud_D1.5_9.tif,1.5,0,,,,,,,,,,,,,0,83,83,30,,,,,,,,,,,None,None,None,181.741,,,,,,,,,,,,,,,,,,,,,,,,,,,,2019_Jan_23_1608,60.50555193460508,Cloud_Experiment_FR_REAL,001,09,
images/fcloud80-20_D1_7.tif,1.0,2,,,,,,,,,,,,,0,84,84,104,,,,,,,,,,,1,space,4,3.698,3.3708362763,,,,,,,,,,,,,,,,,,,,,,,,,,,2019_Jan_23_1608,60.50555193460508,Cloud_Experiment_FR_REAL,001,09,
images/fcloud_D0.8_7.tif,0.8,0,,,,,,,,,,,,,0,85,85,0,,,,,,,,,,,1,space,5,1.169,4.84406065036,,,,,,,,,,,,,,,,,,,,,,,,,,,2019_Jan_23_1608,60.50555193460508,Cloud_Experiment_FR_REAL,001,09,
images/fcloud65-35_D1.6_9.tif,1.6,1,,,,,,,,,,,,,0,86,86,82,,,,,,,,,,,None,None,None,10.093,,,,,,,,,,,,,,,,,,,,,,,,,,,,2019_Jan_23_1608,60.50555193460508,Cloud_Experiment_FR_REAL,001,09,
images/fcloud65-35_D1.5_7.tif,1.5,1,,,,,,,,,,,,,0,87,87,76,,,,,,,,,,,1,None,3,0.986,,,,,,,,,,,,,,,,,,,,,,,,,,,,2019_Jan_23_1608,60.50555193460508,Cloud_Experiment_FR_REAL,001,09,
images/fcloud80-20_D1.8_10.tif,1.8,2,,,,,,,,,,,,,0,88,88,139,,,,,,,,,,,None,None,None,9.427,,,,,,,,,,,,,,,,,,,,,,,,,,,,2019_Jan_23_1608,60.50555193460508,Cloud_Experiment_FR_REAL,001,09,
images/fcloud_D1.8_8.tif,1.8,0,,,,,,,,,,,,,0,89,89,41,,,,,,,,,,,None,None,None,17.802,,,,,,,,,,,,,,,,,,,,,,,,,,,,2019_Jan_23_1608,60.50555193460508,Cloud_Experiment_FR_REAL,001,09,
images/fcloud80-20_D0.9_7.tif,0.9,2,,,,,,,,,,,,,0,90,90,100,,,,,,,,,,,None,None,None,26.313,,,,,,,,,,,,,,,,,,,,,,,,,,,,2019_Jan_23_1608,60.50555193460508,Cloud_Experiment_FR_REAL,001,09,
images/fcloud_D1.2_8.tif,1.2,0,,,,,,,,,,,,,0,91,91,17,,,,,,,,,,,2,space,3,1.219,6.34270251487,,,,,,,,,,,,,,,,,,,,,,,,,,,2019_Jan_23_1608,60.50555193460508,Cloud_Experiment_FR_REAL,001,09,
images/fcloud80-20_D1.2_9.tif,1.2,2,,,,,,,,,,,,,0,92,92,114,,,,,,,,,,,None,None,None,9.56,,,,,,,,,,,,,,,,,,,,,,,,,,,,2019_Jan_23_1608,60.50555193460508,Cloud_Experiment_FR_REAL,001,09,
images/fcloud65-35_D1.9_7.tif,1.9,1,,,,,,,,,,,,,0,93,93,92,,,,,,,,,,,None,None,None,17.872,,,,,,,,,,,,,,,,,,,,,,,,,,,,2019_Jan_23_1608,60.50555193460508,Cloud_Experiment_FR_REAL,001,09,
images/fcloud65-35_D1.6_7.tif,1.6,1,,,,,,,,,,,,,0,94,94,80,,,,,,,,,,,None,None,None,26.179,,,,,,,,,,,,,,,,,,,,,,,,,,,,2019_Jan_23_1608,60.50555193460508,Cloud_Experiment_FR_REAL,001,09,
images/fcloud65-35_D1_7.tif,1.0,1,,,,,,,,,,,,,0,95,95,56,,,,,,,,,,,1,space,4,0.951,4.49365346672,,,,,,,,,,,,,,,,,,,,,,,,,,,2019_Jan_23_1608,60.50555193460508,Cloud_Experiment_FR_REAL,001,09,
images/fcloud65-35_D1.4_7.tif,1.4,1,,,,,,,,,,,,,0,96,96,72,,,,,,,,,,,None,None,None,9.394,,,,,,,,,,,,,,,,,,,,,,,,,,,,2019_Jan_23_1608,60.50555193460508,Cloud_Experiment_FR_REAL,001,09,
images/fcloud_D1.6_10.tif,1.6,0,,,,,,,,,,,,,0,97,97,35,,,,,,,,,,,None,None,None,17.853,,,,,,,,,,,,,,,,,,,,,,,,,,,,2019_Jan_23_1608,60.50555193460508,Cloud_Experiment_FR_REAL,001,09,
images/fcloud_D0.8_9.tif,0.8,0,,,,,,,,,,,,,0,98,98,2,,,,,,,,,,,None,None,None,26.329,,,,,,,,,,,,,,,,,,,,,,,,,,,,2019_Jan_23_1608,60.50555193460508,Cloud_Experiment_FR_REAL,001,09,
images/fcloud65-35_D0.8_7.tif,0.8,1,,,,,,,,,,,,,0,99,99,48,,,,,,,,,,,None,None,None,34.641,,,,,,,,,,,,,,,,,,,,,,,,,,,,2019_Jan_23_1608,60.50555193460508,Cloud_Experiment_FR_REAL,001,09,
images/fcloud_D1.8_7.tif,1.8,0,,,,,,,,,,,,,0,100,100,40,,,,,,,,,,,None,None,None,43.014,,,,,,,,,,,,,,,,,,,,,,,,,,,,2019_Jan_23_1608,60.50555193460508,Cloud_Experiment_FR_REAL,001,09,
images/fcloud65-35_D1.7_10.tif,1.7,1,,,,,,,,,,,,,0,101,101,87,,,,,,,,,,,None,None,None,51.357,,,,,,,,,,,,,,,,,,,,,,,,,,,,2019_Jan_23_1608,60.50555193460508,Cloud_Experiment_FR_REAL,001,09,
images/fcloud65-35_D1.8_10.tif,1.8,1,,,,,,,,,,,,,0,102,102,91,,,,,,,,,,,None,None,None,59.698,,,,,,,,,,,,,,,,,,,,,,,,,,,,2019_Jan_23_1608,60.50555193460508,Cloud_Experiment_FR_REAL,001,09,
images/fcloud_D1.8_9.tif,1.8,0,,,,,,,,,,,,,0,103,103,42,,,,,,,,,,,None,None,None,68.042,,,,,,,,,,,,,,,,,,,,,,,,,,,,2019_Jan_23_1608,60.50555193460508,Cloud_Experiment_FR_REAL,001,09,
images/fcloud_D1.4_7.tif,1.4,0,,,,,,,,,,,,,0,104,104,24,,,,,,,,,,,None,None,None,76.401,,,,,,,,,,,,,,,,,,,,,,,,,,,,2019_Jan_23_1608,60.50555193460508,Cloud_Experiment_FR_REAL,001,09,
images/fcloud_D1.2_7.tif,1.2,0,,,,,,,,,,,,,0,105,105,16,,,,,,,,,,,None,None,None,85.01,,,,,,,,,,,,,,,,,,,,,,,,,,,,2019_Jan_23_1608,60.50555193460508,Cloud_Experiment_FR_REAL,001,09,
images/fcloud80-20_D1.9_7.tif,1.9,2,,,,,,,,,,,,,0,106,106,140,,,,,,,,,,,None,None,None,93.453,,,,,,,,,,,,,,,,,,,,,,,,,,,,2019_Jan_23_1608,60.50555193460508,Cloud_Experiment_FR_REAL,001,09,
images/fcloud80-20_D0.8_10.tif,0.8,2,,,,,,,,,,,,,0,107,107,99,,,,,,,,,,,None,None,None,101.848,,,,,,,,,,,,,,,,,,,,,,,,,,,,2019_Jan_23_1608,60.50555193460508,Cloud_Experiment_FR_REAL,001,09,
images/fcloud80-20_D1.4_10.tif,1.4,2,,,,,,,,,,,,,0,108,108,123,,,,,,,,,,,2,space,4,1.018,6.77799573744,,,,,,,,,,,,,,,,,,,,,,,,,,,2019_Jan_23_1608,60.50555193460508,Cloud_Experiment_FR_REAL,001,09,
images/fcloud65-35_D1.5_8.tif,1.5,1,,,,,,,,,,,,,0,109,109,77,,,,,,,,,,,None,None,None,9.628,,,,,,,,,,,,,,,,,,,,,,,,,,,,2019_Jan_23_1608,60.50555193460508,Cloud_Experiment_FR_REAL,001,09,
images/fcloud65-35_D1.1_7.tif,1.1,1,,,,,,,,,,,,,0,110,110,60,,,,,,,,,,,None,None,None,18.353,,,,,,,,,,,,,,,,,,,,,,,,,,,,2019_Jan_23_1608,60.50555193460508,Cloud_Experiment_FR_REAL,001,09,
images/fcloud65-35_D1.6_8.tif,1.6,1,,,,,,,,,,,,,0,111,111,81,,,,,,,,,,,None,None,None,26.812,,,,,,,,,,,,,,,,,,,,,,,,,,,,2019_Jan_23_1608,60.50555193460508,Cloud_Experiment_FR_REAL,001,09,
images/fcloud80-20_D1.8_8.tif,1.8,2,,,,,,,,,,,,,0,112,112,137,,,,,,,,,,,None,None,None,35.22,,,,,,,,,,,,,,,,,,,,,,,,,,,,2019_Jan_23_1608,60.50555193460508,Cloud_Experiment_FR_REAL,001,09,
images/fcloud65-35_D1.2_8.tif,1.2,1,,,,,,,,,,,,,0,113,113,65,,,,,,,,,,,None,None,None,43.665,,,,,,,,,,,,,,,,,,,,,,,,,,,,2019_Jan_23_1608,60.50555193460508,Cloud_Experiment_FR_REAL,001,09,
images/fcloud_D1.1_7.tif,1.1,0,,,,,,,,,,,,,0,114,114,12,,,,,,,,,,,None,None,None,52.157,,,,,,,,,,,,,,,,,,,,,,,,,,,,2019_Jan_23_1608,60.50555193460508,Cloud_Experiment_FR_REAL,001,09,
images/fcloud65-35_D0.9_10.tif,0.9,1,,,,,,,,,,,,,0,115,115,55,,,,,,,,,,,None,None,None,60.534,,,,,,,,,,,,,,,,,,,,,,,,,,,,2019_Jan_23_1608,60.50555193460508,Cloud_Experiment_FR_REAL,001,09,
images/fcloud_D1.4_8.tif,1.4,0,,,,,,,,,,,,,0,116,116,25,,,,,,,,,,,None,None,None,69.107,,,,,,,,,,,,,,,,,,,,,,,,,,,,2019_Jan_23_1608,60.50555193460508,Cloud_Experiment_FR_REAL,001,09,
images/fcloud80-20_D1_8.tif,1.0,2,,,,,,,,,,,,,0,117,117,105,,,,,,,,,,,None,None,None,77.652,,,,,,,,,,,,,,,,,,,,,,,,,,,,2019_Jan_23_1608,60.50555193460508,Cloud_Experiment_FR_REAL,001,09,
images/fcloud80-20_D1.5_8.tif,1.5,2,,,,,,,,,,,,,0,118,118,125,,,,,,,,,,,None,None,None,86.079,,,,,,,,,,,,,,,,,,,,,,,,,,,,2019_Jan_23_1608,60.50555193460508,Cloud_Experiment_FR_REAL,001,09,
images/fcloud80-20_D1.3_10.tif,1.3,2,,,,,,,,,,,,,0,119,119,119,,,,,,,,,,,None,None,None,94.62,,,,,,,,,,,,,,,,,,,,,,,,,,,,2019_Jan_23_1608,60.50555193460508,Cloud_Experiment_FR_REAL,001,09,
images/fcloud65-35_D1.9_8.tif,1.9,1,,,,,,,,,,,,,0,120,120,93,,,,,,,,,,,None,None,None,103.028,,,,,,,,,,,,,,,,,,,,,,,,,,,,2019_Jan_23_1608,60.50555193460508,Cloud_Experiment_FR_REAL,001,09,
images/fcloud65-35_D1_10.tif,1.0,1,,,,,,,,,,,,,0,121,121,59,,,,,,,,,,,None,None,None,111.589,,,,,,,,,,,,,,,,,,,,,,,,,,,,2019_Jan_23_1608,60.50555193460508,Cloud_Experiment_FR_REAL,001,09,
images/fcloud65-35_D1.1_10.tif,1.1,1,,,,,,,,,,,,,0,122,122,63,,,,,,,,,,,None,None,None,119.963,,,,,,,,,,,,,,,,,,,,,,,,,,,,2019_Jan_23_1608,60.50555193460508,Cloud_Experiment_FR_REAL,001,09,
images/fcloud_D1.9_10.tif,1.9,0,,,,,,,,,,,,,0,123,123,47,,,,,,,,,,,None,None,None,128.425,,,,,,,,,,,,,,,,,,,,,,,,,,,,2019_Jan_23_1608,60.50555193460508,Cloud_Experiment_FR_REAL,001,09,
images/fcloud65-35_D1.7_7.tif,1.7,1,,,,,,,,,,,,,0,124,124,84,,,,,,,,,,,None,None,None,137.299,,,,,,,,,,,,,,,,,,,,,,,,,,,,2019_Jan_23_1608,60.50555193460508,Cloud_Experiment_FR_REAL,001,09,
images/fcloud_D0.8_8.tif,0.8,0,,,,,,,,,,,,,0,125,125,1,,,,,,,,,,,None,None,None,145.708,,,,,,,,,,,,,,,,,,,,,,,,,,,,2019_Jan_23_1608,60.50555193460508,Cloud_Experiment_FR_REAL,001,09,
images/fcloud65-35_D0.8_8.tif,0.8,1,,,,,,,,,,,,,0,126,126,49,,,,,,,,,,,None,None,None,154.218,,,,,,,,,,,,,,,,,,,,,,,,,,,,2019_Jan_23_1608,60.50555193460508,Cloud_Experiment_FR_REAL,001,09,
images/fcloud_D1.6_9.tif,1.6,0,,,,,,,,,,,,,0,127,127,34,,,,,,,,,,,None,None,None,162.611,,,,,,,,,,,,,,,,,,,,,,,,,,,,2019_Jan_23_1608,60.50555193460508,Cloud_Experiment_FR_REAL,001,09,
images/fcloud80-20_D1.9_10.tif,1.9,2,,,,,,,,,,,,,0,128,128,143,,,,,,,,,,,None,None,None,171.22,,,,,,,,,,,,,,,,,,,,,,,,,,,,2019_Jan_23_1608,60.50555193460508,Cloud_Experiment_FR_REAL,001,09,
images/fcloud_D1.9_8.tif,1.9,0,,,,,,,,,,,,,0,129,129,45,,,,,,,,,,,None,None,None,179.812,,,,,,,,,,,,,,,,,,,,,,,,,,,,2019_Jan_23_1608,60.50555193460508,Cloud_Experiment_FR_REAL,001,09,
images/fcloud65-35_D1.1_9.tif,1.1,1,,,,,,,,,,,,,0,130,130,62,,,,,,,,,,,None,None,None,188.222,,,,,,,,,,,,,,,,,,,,,,,,,,,,2019_Jan_23_1608,60.50555193460508,Cloud_Experiment_FR_REAL,001,09,
images/fcloud65-35_D1.3_8.tif,1.3,1,,,,,,,,,,,,,0,131,131,69,,,,,,,,,,,None,None,None,196.649,,,,,,,,,,,,,,,,,,,,,,,,,,,,2019_Jan_23_1608,60.50555193460508,Cloud_Experiment_FR_REAL,001,09,
images/fcloud65-35_D1.5_10.tif,1.5,1,,,,,,,,,,,,,0,132,132,79,,,,,,,,,,,None,None,None,205.005,,,,,,,,,,,,,,,,,,,,,,,,,,,,2019_Jan_23_1608,60.50555193460508,Cloud_Experiment_FR_REAL,001,09,
images/fcloud80-20_D1.6_7.tif,1.6,2,,,,,,,,,,,,,0,133,133,128,,,,,,,,,,,None,None,None,213.399,,,,,,,,,,,,,,,,,,,,,,,,,,,,2019_Jan_23_1608,60.50555193460508,Cloud_Experiment_FR_REAL,001,09,
images/fcloud80-20_D1.9_9.tif,1.9,2,,,,,,,,,,,,,0,134,134,142,,,,,,,,,,,None,None,None,221.825,,,,,,,,,,,,,,,,,,,,,,,,,,,,2019_Jan_23_1608,60.50555193460508,Cloud_Experiment_FR_REAL,001,09,
images/fcloud65-35_D0.9_8.tif,0.9,1,,,,,,,,,,,,,0,135,135,53,,,,,,,,,,,None,None,None,230.201,,,,,,,,,,,,,,,,,,,,,,,,,,,,2019_Jan_23_1608,60.50555193460508,Cloud_Experiment_FR_REAL,001,09,
images/fcloud_D1.2_9.tif,1.2,0,,,,,,,,,,,,,0,136,136,18,,,,,,,,,,,None,None,None,238.81,,,,,,,,,,,,,,,,,,,,,,,,,,,,2019_Jan_23_1608,60.50555193460508,Cloud_Experiment_FR_REAL,001,09,
images/fcloud80-20_D1.1_10.tif,1.1,2,,,,,,,,,,,,,0,137,137,111,,,,,,,,,,,3,space,3,6.197,4.50749339181,,,,,,,,,,,,,,,,,,,,,,,,,,,2019_Jan_23_1608,60.50555193460508,Cloud_Experiment_FR_REAL,001,09,
images/fcloud_D1.7_7.tif,1.7,0,,,,,,,,,,,,,0,138,138,36,,,,,,,,,,,None,None,None,16.204,,,,,,,,,,,,,,,,,,,,,,,,,,,,2019_Jan_23_1608,60.50555193460508,Cloud_Experiment_FR_REAL,001,09,
images/fcloud_D1.4_10.tif,1.4,0,,,,,,,,,,,,,0,139,139,27,,,,,,,,,,,None,None,None,24.712,,,,,,,,,,,,,,,,,,,,,,,,,,,,2019_Jan_23_1608,60.50555193460508,Cloud_Experiment_FR_REAL,001,09,
images/fcloud80-20_D1.4_8.tif,1.4,2,,,,,,,,,,,,,0,140,140,121,,,,,,,,,,,1,space,2,1.735,3.17888166124,,,,,,,,,,,,,,,,,,,,,,,,,,,2019_Jan_23_1608,60.50555193460508,Cloud_Experiment_FR_REAL,001,09,
images/fcloud_D1.2_10.tif,1.2,0,,,,,,,,,,,,,0,141,141,19,,,,,,,,,,,None,None,None,10.26,,,,,,,,,,,,,,,,,,,,,,,,,,,,2019_Jan_23_1608,60.50555193460508,Cloud_Experiment_FR_REAL,001,09,
images/fcloud_D0.9_10.tif,0.9,0,,,,,,,,,,,,,0,142,142,7,,,,,,,,,,,None,None,None,18.653,,,,,,,,,,,,,,,,,,,,,,,,,,,,2019_Jan_23_1608,60.50555193460508,Cloud_Experiment_FR_REAL,001,09,
images/fcloud65-35_D0.9_7.tif,0.9,1,,,,,,,,,,,,,0,143,143,52,,,,,,,,,,,None,None,None,27.092,,,,,,,,,,,,,,,,,,,,,,,,,,,,2019_Jan_23_1608,60.50555193460508,Cloud_Experiment_FR_REAL,001,09,
,,,,,,,,,,,,,,,,,,,,,,,,,5,6.424,,,,,,,,,,,,,,,,,,,,,,,,,,,,,,,,,,2019_Jan_23_1608,60.50555193460508,Cloud_Experiment_FR_REAL,001,09,
