ImageFile,FD,Contrast,trials_4.thisRepN,trials_4.thisTrialN,trials_4.thisN,trials_4.thisIndex,trials.thisRepN,trials.thisTrialN,trials.thisN,trials.thisIndex,trials_2.thisRepN,trials_2.thisTrialN,trials_2.thisN,trials_2.thisIndex,trials_3.thisRepN,trials_3.thisTrialN,trials_3.thisN,trials_3.thisIndex,end_instructions.keys,end_instructions.rt,key_resp_4.keys,key_resp_4.rt,key_resp_6.keys,key_resp_6.rt,Fatigue.response,Fatigue.rt,key_resp_5.keys,key_resp_5.rt,n_objets.response,reaction_time.keys,vividness.response,vividness.rt,reaction_time.rt,key_resp_2.keys,key_resp_2.rt,key_resp_8.keys,key_resp_8.rt,Flow01.response,Flow01.rt,Flow02.response,Flow02.rt,Flow03.response,Flow03.rt,Flow04.response,Flow04.rt,Flow05.response,Flow05.rt,Flow06.response,Flow06.rt,Flow07.response,Flow07.rt,Flow08.response,Flow08.rt,Flow09.response,Flow09.rt,Flow10.response,Flow10.rt,key_resp_3.keys,key_resp_3.rt,date,frameRate,expName,session,participant,
,,,,,,,,,,,,,,,,,,,space,8.74789057192,,,,,,,,,,,,,,,,,,,,,,,,,,,,,,,,,,,,,,,,2019_Jan_23_1734,60.079681522149386,Cloud_Experiment_FR_REAL,001,10,
,,,,,,,,,,,,,,,,,,,,,space,71.2228416595,,,,,,,,,,,,,,,,,,,,,,,,,,,,,,,,,,,,,,2019_Jan_23_1734,60.079681522149386,Cloud_Experiment_FR_REAL,001,10,
,,,,,,,,,,,,,,,,,,,,,,,space,145.442590245,,,,,,,,,,,,,,,,,,,,,,,,,,,,,,,,,,,,2019_Jan_23_1734,60.079681522149386,Cloud_Experiment_FR_REAL,001,10,
,,,,,,,,,,,,,,,,,,,,,,,,,7,27.241,,,,,,,,,,,,,,,,,,,,,,,,,,,,,,,,,,2019_Jan_23_1734,60.079681522149386,Cloud_Experiment_FR_REAL,001,10,
,,,,,,,,,,,,,,,,,,,,,,,,,,,space,16.3044690985,,,,,,,,,,,,,,,,,,,,,,,,,,,,,,,,2019_Jan_23_1734,60.079681522149386,Cloud_Experiment_FR_REAL,001,10,
pratique/fcloud80-20_D1.5_30,1.5,2,0,0,0,8,,,,,,,,,,,,,,,,,,,,,,,1,None,1,20.371,,,,,,,,,,,,,,,,,,,,,,,,,,,,2019_Jan_23_1734,60.079681522149386,Cloud_Experiment_FR_REAL,001,10,
pratique/fcloud_D1.6_28,1.6,0,0,1,1,5,,,,,,,,,,,,,,,,,,,,,,,2,None,1,10.195,,,,,,,,,,,,,,,,,,,,,,,,,,,,2019_Jan_23_1734,60.079681522149386,Cloud_Experiment_FR_REAL,001,10,
pratique/fcloud65-35_D1.3_30,1.3,1,0,2,2,6,,,,,,,,,,,,,,,,,,,,,,,None,None,None,26.879,,,,,,,,,,,,,,,,,,,,,,,,,,,,2019_Jan_23_1734,60.079681522149386,Cloud_Experiment_FR_REAL,001,10,
pratique/fcloud65-35_D1.2_30,1.2,1,0,3,3,3,,,,,,,,,,,,,,,,,,,,,,,1,space,1,3.417,4.15787374173,,,,,,,,,,,,,,,,,,,,,,,,,,,2019_Jan_23_1734,60.079681522149386,Cloud_Experiment_FR_REAL,001,10,
pratique/fcloud65-35_D1.9_29,1.9,1,0,4,4,7,,,,,,,,,,,,,,,,,,,,,,,None,None,None,25.728,,,,,,,,,,,,,,,,,,,,,,,,,,,,2019_Jan_23_1734,60.079681522149386,Cloud_Experiment_FR_REAL,001,10,
pratique/fcloud65-35_D1.6_30,1.6,1,0,5,5,2,,,,,,,,,,,,,,,,,,,,,,,None,None,None,38.568,,,,,,,,,,,,,,,,,,,,,,,,,,,,2019_Jan_23_1734,60.079681522149386,Cloud_Experiment_FR_REAL,001,10,
pratique/fcloud_D0.8_30,0.8,0,0,6,6,0,,,,,,,,,,,,,,,,,,,,,,,None,None,None,49.925,,,,,,,,,,,,,,,,,,,,,,,,,,,,2019_Jan_23_1734,60.079681522149386,Cloud_Experiment_FR_REAL,001,10,
pratique/fcloud_D1.4_30,1.4,0,0,7,7,1,,,,,,,,,,,,,,,,,,,,,,,1,space,2,1.702,5.09453024037,,,,,,,,,,,,,,,,,,,,,,,,,,,2019_Jan_23_1734,60.079681522149386,Cloud_Experiment_FR_REAL,001,10,
pratique/fcloud80-20_D1_30,1.0,2,0,8,8,9,,,,,,,,,,,,,,,,,,,,,,,2,space,4,4.249,3.82279416075,,,,,,,,,,,,,,,,,,,,,,,,,,,2019_Jan_23_1734,60.079681522149386,Cloud_Experiment_FR_REAL,001,10,
pratique/fcloud80-20_D1.8_30,1.8,2,0,9,9,4,,,,,,,,,,,,,,,,,,,,,,,None,None,None,13.792,,,,,,,,,,,,,,,,,,,,,,,,,,,,2019_Jan_23_1734,60.079681522149386,Cloud_Experiment_FR_REAL,001,10,
,,,,,,,,,,,,,,,,,,,,,,,,,,,,,,,,,,space,52.3884879253,,,,,,,,,,,,,,,,,,,,,,,,,2019_Jan_23_1734,60.079681522149386,Cloud_Experiment_FR_REAL,001,10,
images/fcloud_D0.8_1.tif,0.8,0,,,,,0,0,0,0,,,,,,,,,,,,,,,,,,,1,space,1,2.451,3.73267914591,,,,,,,,,,,,,,,,,,,,,,,,,,,2019_Jan_23_1734,60.079681522149386,Cloud_Experiment_FR_REAL,001,10,
images/fcloud_D1.6_2.tif,1.6,0,,,,,0,1,1,25,,,,,,,,,,,,,,,,,,,None,None,None,11.691,,,,,,,,,,,,,,,,,,,,,,,,,,,,2019_Jan_23_1734,60.079681522149386,Cloud_Experiment_FR_REAL,001,10,
images/fcloud_D1.7_1.tif,1.7,0,,,,,0,2,2,27,,,,,,,,,,,,,,,,,,,None,None,None,21.397,,,,,,,,,,,,,,,,,,,,,,,,,,,,2019_Jan_23_1734,60.079681522149386,Cloud_Experiment_FR_REAL,001,10,
images/fcloud80-20_D0.9_2.tif,0.9,2,,,,,0,3,3,76,,,,,,,,,,,,,,,,,,,None,None,None,31.259,,,,,,,,,,,,,,,,,,,,,,,,,,,,2019_Jan_23_1734,60.079681522149386,Cloud_Experiment_FR_REAL,001,10,
images/fcloud80-20_D1.2_1.tif,1.2,2,,,,,0,4,4,84,,,,,,,,,,,,,,,,,,,None,None,None,40.9,,,,,,,,,,,,,,,,,,,,,,,,,,,,2019_Jan_23_1734,60.079681522149386,Cloud_Experiment_FR_REAL,001,10,
images/fcloud_D1.2_3.tif,1.2,0,,,,,0,5,5,14,,,,,,,,,,,,,,,,,,,1,None,3,1.703,,,,,,,,,,,,,,,,,,,,,,,,,,,,2019_Jan_23_1734,60.079681522149386,Cloud_Experiment_FR_REAL,001,10,
images/fcloud65-35_D1.4_3.tif,1.4,1,,,,,0,6,6,56,,,,,,,,,,,,,,,,,,,None,None,None,12.46,,,,,,,,,,,,,,,,,,,,,,,,,,,,2019_Jan_23_1734,60.079681522149386,Cloud_Experiment_FR_REAL,001,10,
images/fcloud65-35_D1.1_1.tif,1.1,1,,,,,0,7,7,45,,,,,,,,,,,,,,,,,,,None,None,None,23.982,,,,,,,,,,,,,,,,,,,,,,,,,,,,2019_Jan_23_1734,60.079681522149386,Cloud_Experiment_FR_REAL,001,10,
images/fcloud80-20_D1.8_1.tif,1.8,2,,,,,0,8,8,102,,,,,,,,,,,,,,,,,,,None,None,None,33.49,,,,,,,,,,,,,,,,,,,,,,,,,,,,2019_Jan_23_1734,60.079681522149386,Cloud_Experiment_FR_REAL,001,10,
images/fcloud80-20_D1.6_3.tif,1.6,2,,,,,0,9,9,98,,,,,,,,,,,,,,,,,,,None,None,None,42.932,,,,,,,,,,,,,,,,,,,,,,,,,,,,2019_Jan_23_1734,60.079681522149386,Cloud_Experiment_FR_REAL,001,10,
images/fcloud65-35_D1.3_2.tif,1.3,1,,,,,0,10,10,52,,,,,,,,,,,,,,,,,,,1,None,1,2.636,,,,,,,,,,,,,,,,,,,,,,,,,,,,2019_Jan_23_1734,60.079681522149386,Cloud_Experiment_FR_REAL,001,10,
images/fcloud65-35_D1.2_1.tif,1.2,1,,,,,0,11,11,48,,,,,,,,,,,,,,,,,,,None,None,None,12.024,,,,,,,,,,,,,,,,,,,,,,,,,,,,2019_Jan_23_1734,60.079681522149386,Cloud_Experiment_FR_REAL,001,10,
images/fcloud65-35_D0.8_2.tif,0.8,1,,,,,0,12,12,37,,,,,,,,,,,,,,,,,,,None,None,None,21.699,,,,,,,,,,,,,,,,,,,,,,,,,,,,2019_Jan_23_1734,60.079681522149386,Cloud_Experiment_FR_REAL,001,10,
images/fcloud65-35_D1.5_2.tif,1.5,1,,,,,0,13,13,58,,,,,,,,,,,,,,,,,,,None,None,None,30.858,,,,,,,,,,,,,,,,,,,,,,,,,,,,2019_Jan_23_1734,60.079681522149386,Cloud_Experiment_FR_REAL,001,10,
images/fcloud80-20_D1.3_2.tif,1.3,2,,,,,0,14,14,88,,,,,,,,,,,,,,,,,,,None,None,None,40.4,,,,,,,,,,,,,,,,,,,,,,,,,,,,2019_Jan_23_1734,60.079681522149386,Cloud_Experiment_FR_REAL,001,10,
images/fcloud80-20_D1.8_2.tif,1.8,2,,,,,0,15,15,103,,,,,,,,,,,,,,,,,,,None,None,None,49.577,,,,,,,,,,,,,,,,,,,,,,,,,,,,2019_Jan_23_1734,60.079681522149386,Cloud_Experiment_FR_REAL,001,10,
images/fcloud80-20_D1.6_1.tif,1.6,2,,,,,0,16,16,96,,,,,,,,,,,,,,,,,,,1,space,3,2.367,4.99892973577,,,,,,,,,,,,,,,,,,,,,,,,,,,2019_Jan_23_1734,60.079681522149386,Cloud_Experiment_FR_REAL,001,10,
images/fcloud65-35_D1.2_3.tif,1.2,1,,,,,0,17,17,50,,,,,,,,,,,,,,,,,,,1,None,1,1.119,,,,,,,,,,,,,,,,,,,,,,,,,,,,2019_Jan_23_1734,60.079681522149386,Cloud_Experiment_FR_REAL,001,10,
images/fcloud80-20_D1_1.tif,1.0,2,,,,,0,18,18,78,,,,,,,,,,,,,,,,,,,None,None,None,10.177,,,,,,,,,,,,,,,,,,,,,,,,,,,,2019_Jan_23_1734,60.079681522149386,Cloud_Experiment_FR_REAL,001,10,
images/fcloud80-20_D1_3.tif,1.0,2,,,,,0,19,19,80,,,,,,,,,,,,,,,,,,,1,space,1,0.67,7.2344305341,,,,,,,,,,,,,,,,,,,,,,,,,,,2019_Jan_23_1734,60.079681522149386,Cloud_Experiment_FR_REAL,001,10,
images/fcloud80-20_D1.5_1.tif,1.5,2,,,,,0,20,20,93,,,,,,,,,,,,,,,,,,,None,None,None,18.287,,,,,,,,,,,,,,,,,,,,,,,,,,,,2019_Jan_23_1734,60.079681522149386,Cloud_Experiment_FR_REAL,001,10,
images/fcloud_D1.5_3.tif,1.5,0,,,,,0,21,21,23,,,,,,,,,,,,,,,,,,,None,None,None,28.16,,,,,,,,,,,,,,,,,,,,,,,,,,,,2019_Jan_23_1734,60.079681522149386,Cloud_Experiment_FR_REAL,001,10,
images/fcloud80-20_D1.1_2.tif,1.1,2,,,,,0,22,22,82,,,,,,,,,,,,,,,,,,,None,None,None,38.32,,,,,,,,,,,,,,,,,,,,,,,,,,,,2019_Jan_23_1734,60.079681522149386,Cloud_Experiment_FR_REAL,001,10,
images/fcloud80-20_D1.2_3.tif,1.2,2,,,,,0,23,23,86,,,,,,,,,,,,,,,,,,,1,space,1,0.901,8.32708704096,,,,,,,,,,,,,,,,,,,,,,,,,,,2019_Jan_23_1734,60.079681522149386,Cloud_Experiment_FR_REAL,001,10,
images/fcloud65-35_D1.5_1.tif,1.5,1,,,,,0,24,24,57,,,,,,,,,,,,,,,,,,,None,None,None,10.843,,,,,,,,,,,,,,,,,,,,,,,,,,,,2019_Jan_23_1734,60.079681522149386,Cloud_Experiment_FR_REAL,001,10,
images/fcloud65-35_D1.2_2.tif,1.2,1,,,,,0,25,25,49,,,,,,,,,,,,,,,,,,,None,None,None,22.949,,,,,,,,,,,,,,,,,,,,,,,,,,,,2019_Jan_23_1734,60.079681522149386,Cloud_Experiment_FR_REAL,001,10,
images/fcloud65-35_D1.8_1.tif,1.8,1,,,,,0,26,26,66,,,,,,,,,,,,,,,,,,,None,None,None,32.757,,,,,,,,,,,,,,,,,,,,,,,,,,,,2019_Jan_23_1734,60.079681522149386,Cloud_Experiment_FR_REAL,001,10,
images/fcloud80-20_D1.9_3.tif,1.9,2,,,,,0,27,27,107,,,,,,,,,,,,,,,,,,,None,None,None,42.583,,,,,,,,,,,,,,,,,,,,,,,,,,,,2019_Jan_23_1734,60.079681522149386,Cloud_Experiment_FR_REAL,001,10,
images/fcloud_D1.3_2.tif,1.3,0,,,,,0,28,28,16,,,,,,,,,,,,,,,,,,,2,space,3,4.632,5.98631429169,,,,,,,,,,,,,,,,,,,,,,,,,,,2019_Jan_23_1734,60.079681522149386,Cloud_Experiment_FR_REAL,001,10,
images/fcloud_D1.9_2.tif,1.9,0,,,,,0,29,29,34,,,,,,,,,,,,,,,,,,,None,None,None,17.103,,,,,,,,,,,,,,,,,,,,,,,,,,,,2019_Jan_23_1734,60.079681522149386,Cloud_Experiment_FR_REAL,001,10,
images/fcloud65-35_D1.8_2.tif,1.8,1,,,,,0,30,30,67,,,,,,,,,,,,,,,,,,,1,None,4,1.253,,,,,,,,,,,,,,,,,,,,,,,,,,,,2019_Jan_23_1734,60.079681522149386,Cloud_Experiment_FR_REAL,001,10,
images/fcloud65-35_D1.9_3.tif,1.9,1,,,,,0,31,31,71,,,,,,,,,,,,,,,,,,,1,space,3,3.485,6.08608173282,,,,,,,,,,,,,,,,,,,,,,,,,,,2019_Jan_23_1734,60.079681522149386,Cloud_Experiment_FR_REAL,001,10,
images/fcloud_D0.8_3.tif,0.8,0,,,,,0,32,32,2,,,,,,,,,,,,,,,,,,,1,None,1,0.869,,,,,,,,,,,,,,,,,,,,,,,,,,,,2019_Jan_23_1734,60.079681522149386,Cloud_Experiment_FR_REAL,001,10,
images/fcloud65-35_D0.9_2.tif,0.9,1,,,,,0,33,33,40,,,,,,,,,,,,,,,,,,,None,None,None,11.376,,,,,,,,,,,,,,,,,,,,,,,,,,,,2019_Jan_23_1734,60.079681522149386,Cloud_Experiment_FR_REAL,001,10,
images/fcloud80-20_D1.2_2.tif,1.2,2,,,,,0,34,34,85,,,,,,,,,,,,,,,,,,,1,space,3,2.235,6.26914421012,,,,,,,,,,,,,,,,,,,,,,,,,,,2019_Jan_23_1734,60.079681522149386,Cloud_Experiment_FR_REAL,001,10,
images/fcloud65-35_D1.8_3.tif,1.8,1,,,,,0,35,35,68,,,,,,,,,,,,,,,,,,,1,space,2,1.087,7.84658055202,,,,,,,,,,,,,,,,,,,,,,,,,,,2019_Jan_23_1734,60.079681522149386,Cloud_Experiment_FR_REAL,001,10,
images/fcloud_D1.2_2.tif,1.2,0,,,,,0,36,36,13,,,,,,,,,,,,,,,,,,,1,space,3,2.901,6.81797848572,,,,,,,,,,,,,,,,,,,,,,,,,,,2019_Jan_23_1734,60.079681522149386,Cloud_Experiment_FR_REAL,001,10,
images/fcloud65-35_D1.3_1.tif,1.3,1,,,,,0,37,37,51,,,,,,,,,,,,,,,,,,,1,space,3,6.379,4.48561723196,,,,,,,,,,,,,,,,,,,,,,,,,,,2019_Jan_23_1734,60.079681522149386,Cloud_Experiment_FR_REAL,001,10,
images/fcloud65-35_D1.9_1.tif,1.9,1,,,,,0,38,38,69,,,,,,,,,,,,,,,,,,,1,space,1,2.068,7.82953548888,,,,,,,,,,,,,,,,,,,,,,,,,,,2019_Jan_23_1734,60.079681522149386,Cloud_Experiment_FR_REAL,001,10,
images/fcloud65-35_D0.9_3.tif,0.9,1,,,,,0,39,39,41,,,,,,,,,,,,,,,,,,,None,None,None,11.393,,,,,,,,,,,,,,,,,,,,,,,,,,,,2019_Jan_23_1734,60.079681522149386,Cloud_Experiment_FR_REAL,001,10,
images/fcloud80-20_D0.8_2.tif,0.8,2,,,,,0,40,40,73,,,,,,,,,,,,,,,,,,,1,space,1,1.902,5.86095560921,,,,,,,,,,,,,,,,,,,,,,,,,,,2019_Jan_23_1734,60.079681522149386,Cloud_Experiment_FR_REAL,001,10,
images/fcloud65-35_D1.7_2.tif,1.7,1,,,,,0,41,41,64,,,,,,,,,,,,,,,,,,,None,None,None,11.311,,,,,,,,,,,,,,,,,,,,,,,,,,,,2019_Jan_23_1734,60.079681522149386,Cloud_Experiment_FR_REAL,001,10,
images/fcloud65-35_D1.3_3.tif,1.3,1,,,,,0,42,42,53,,,,,,,,,,,,,,,,,,,None,None,None,20.368,,,,,,,,,,,,,,,,,,,,,,,,,,,,2019_Jan_23_1734,60.079681522149386,Cloud_Experiment_FR_REAL,001,10,
images/fcloud65-35_D1.7_3.tif,1.7,1,,,,,0,43,43,65,,,,,,,,,,,,,,,,,,,1,None,1,0.569,,,,,,,,,,,,,,,,,,,,,,,,,,,,2019_Jan_23_1734,60.079681522149386,Cloud_Experiment_FR_REAL,001,10,
images/fcloud65-35_D1.7_1.tif,1.7,1,,,,,0,44,44,63,,,,,,,,,,,,,,,,,,,None,None,None,9.712,,,,,,,,,,,,,,,,,,,,,,,,,,,,2019_Jan_23_1734,60.079681522149386,Cloud_Experiment_FR_REAL,001,10,
images/fcloud_D0.9_3.tif,0.9,0,,,,,0,45,45,5,,,,,,,,,,,,,,,,,,,1,space,3,1.552,7.02156258578,,,,,,,,,,,,,,,,,,,,,,,,,,,2019_Jan_23_1734,60.079681522149386,Cloud_Experiment_FR_REAL,001,10,
images/fcloud_D1.3_3.tif,1.3,0,,,,,0,46,46,17,,,,,,,,,,,,,,,,,,,1,None,2,0.903,,,,,,,,,,,,,,,,,,,,,,,,,,,,2019_Jan_23_1734,60.079681522149386,Cloud_Experiment_FR_REAL,001,10,
images/fcloud80-20_D1.9_2.tif,1.9,2,,,,,0,47,47,106,,,,,,,,,,,,,,,,,,,None,None,None,9.827,,,,,,,,,,,,,,,,,,,,,,,,,,,,2019_Jan_23_1734,60.079681522149386,Cloud_Experiment_FR_REAL,001,10,
images/fcloud_D1.7_2.tif,1.7,0,,,,,0,48,48,28,,,,,,,,,,,,,,,,,,,1,space,3,2.218,4.71554206676,,,,,,,,,,,,,,,,,,,,,,,,,,,2019_Jan_23_1734,60.079681522149386,Cloud_Experiment_FR_REAL,001,10,
images/fcloud80-20_D1.5_3.tif,1.5,2,,,,,0,49,49,95,,,,,,,,,,,,,,,,,,,None,None,None,11.342,,,,,,,,,,,,,,,,,,,,,,,,,,,,2019_Jan_23_1734,60.079681522149386,Cloud_Experiment_FR_REAL,001,10,
images/fcloud_D1_1.tif,1.0,0,,,,,0,50,50,6,,,,,,,,,,,,,,,,,,,1,None,2,0.819,,,,,,,,,,,,,,,,,,,,,,,,,,,,2019_Jan_23_1734,60.079681522149386,Cloud_Experiment_FR_REAL,001,10,
images/fcloud80-20_D1.4_1.tif,1.4,2,,,,,0,51,51,90,,,,,,,,,,,,,,,,,,,1,space,3,2.135,6.5225377497,,,,,,,,,,,,,,,,,,,,,,,,,,,2019_Jan_23_1734,60.079681522149386,Cloud_Experiment_FR_REAL,001,10,
images/fcloud65-35_D0.9_1.tif,0.9,1,,,,,0,52,52,39,,,,,,,,,,,,,,,,,,,1,None,2,1.552,,,,,,,,,,,,,,,,,,,,,,,,,,,,2019_Jan_23_1734,60.079681522149386,Cloud_Experiment_FR_REAL,001,10,
images/fcloud80-20_D0.8_3.tif,0.8,2,,,,,0,53,53,74,,,,,,,,,,,,,,,,,,,1,space,4,1.968,5.05383398259,,,,,,,,,,,,,,,,,,,,,,,,,,,2019_Jan_23_1734,60.079681522149386,Cloud_Experiment_FR_REAL,001,10,
images/fcloud_D0.8_2.tif,0.8,0,,,,,0,54,54,1,,,,,,,,,,,,,,,,,,,2,space,4,1.152,3.98294516979,,,,,,,,,,,,,,,,,,,,,,,,,,,2019_Jan_23_1734,60.079681522149386,Cloud_Experiment_FR_REAL,001,10,
images/fcloud80-20_D0.8_1.tif,0.8,2,,,,,0,55,55,72,,,,,,,,,,,,,,,,,,,None,None,None,11.593,,,,,,,,,,,,,,,,,,,,,,,,,,,,2019_Jan_23_1734,60.079681522149386,Cloud_Experiment_FR_REAL,001,10,
images/fcloud65-35_D1.6_2.tif,1.6,1,,,,,0,56,56,61,,,,,,,,,,,,,,,,,,,1,space,4,5.582,3.99479004421,,,,,,,,,,,,,,,,,,,,,,,,,,,2019_Jan_23_1734,60.079681522149386,Cloud_Experiment_FR_REAL,001,10,
images/fcloud_D1.8_3.tif,1.8,0,,,,,0,57,57,32,,,,,,,,,,,,,,,,,,,None,None,None,17.087,,,,,,,,,,,,,,,,,,,,,,,,,,,,2019_Jan_23_1734,60.079681522149386,Cloud_Experiment_FR_REAL,001,10,
images/fcloud80-20_D1.4_2.tif,1.4,2,,,,,0,58,58,91,,,,,,,,,,,,,,,,,,,None,None,None,26.445,,,,,,,,,,,,,,,,,,,,,,,,,,,,2019_Jan_23_1734,60.079681522149386,Cloud_Experiment_FR_REAL,001,10,
images/fcloud_D1.3_1.tif,1.3,0,,,,,0,59,59,15,,,,,,,,,,,,,,,,,,,1,space,2,2.318,7.25208064096,,,,,,,,,,,,,,,,,,,,,,,,,,,2019_Jan_23_1734,60.079681522149386,Cloud_Experiment_FR_REAL,001,10,
images/fcloud_D1.1_3.tif,1.1,0,,,,,0,60,60,11,,,,,,,,,,,,,,,,,,,1,space,3,1.918,2.90095069486,,,,,,,,,,,,,,,,,,,,,,,,,,,2019_Jan_23_1734,60.079681522149386,Cloud_Experiment_FR_REAL,001,10,
images/fcloud80-20_D1.5_2.tif,1.5,2,,,,,0,61,61,94,,,,,,,,,,,,,,,,,,,None,None,None,15.005,,,,,,,,,,,,,,,,,,,,,,,,,,,,2019_Jan_23_1734,60.079681522149386,Cloud_Experiment_FR_REAL,001,10,
images/fcloud_D1.8_2.tif,1.8,0,,,,,0,62,62,31,,,,,,,,,,,,,,,,,,,None,None,None,24.065,,,,,,,,,,,,,,,,,,,,,,,,,,,,2019_Jan_23_1734,60.079681522149386,Cloud_Experiment_FR_REAL,001,10,
images/fcloud80-20_D1.9_1.tif,1.9,2,,,,,0,63,63,105,,,,,,,,,,,,,,,,,,,None,None,None,32.873,,,,,,,,,,,,,,,,,,,,,,,,,,,,2019_Jan_23_1734,60.079681522149386,Cloud_Experiment_FR_REAL,001,10,
images/fcloud80-20_D0.9_1.tif,0.9,2,,,,,0,64,64,75,,,,,,,,,,,,,,,,,,,1,space,2,1.318,6.9180481917,,,,,,,,,,,,,,,,,,,,,,,,,,,2019_Jan_23_1734,60.079681522149386,Cloud_Experiment_FR_REAL,001,10,
images/fcloud65-35_D0.8_1.tif,0.8,1,,,,,0,65,65,36,,,,,,,,,,,,,,,,,,,2,None,1,0.919,,,,,,,,,,,,,,,,,,,,,,,,,,,,2019_Jan_23_1734,60.079681522149386,Cloud_Experiment_FR_REAL,001,10,
images/fcloud_D1_3.tif,1.0,0,,,,,0,66,66,8,,,,,,,,,,,,,,,,,,,1,space,3,1.435,7.1288157079,,,,,,,,,,,,,,,,,,,,,,,,,,,2019_Jan_23_1734,60.079681522149386,Cloud_Experiment_FR_REAL,001,10,
images/fcloud65-35_D1_2.tif,1.0,1,,,,,0,67,67,43,,,,,,,,,,,,,,,,,,,1,space,2,2.268,5.1088456671,,,,,,,,,,,,,,,,,,,,,,,,,,,2019_Jan_23_1734,60.079681522149386,Cloud_Experiment_FR_REAL,001,10,
images/fcloud65-35_D1.1_3.tif,1.1,1,,,,,0,68,68,47,,,,,,,,,,,,,,,,,,,1,space,4,1.802,7.39928823829,,,,,,,,,,,,,,,,,,,,,,,,,,,2019_Jan_23_1734,60.079681522149386,Cloud_Experiment_FR_REAL,001,10,
images/fcloud65-35_D1.9_2.tif,1.9,1,,,,,0,69,69,70,,,,,,,,,,,,,,,,,,,None,None,None,11.075,,,,,,,,,,,,,,,,,,,,,,,,,,,,2019_Jan_23_1734,60.079681522149386,Cloud_Experiment_FR_REAL,001,10,
images/fcloud_D1.5_1.tif,1.5,0,,,,,0,70,70,21,,,,,,,,,,,,,,,,,,,1,space,3,2.402,5.49706011469,,,,,,,,,,,,,,,,,,,,,,,,,,,2019_Jan_23_1734,60.079681522149386,Cloud_Experiment_FR_REAL,001,10,
images/fcloud_D1.6_1.tif,1.6,0,,,,,0,71,71,24,,,,,,,,,,,,,,,,,,,None,None,None,11.477,,,,,,,,,,,,,,,,,,,,,,,,,,,,2019_Jan_23_1734,60.079681522149386,Cloud_Experiment_FR_REAL,001,10,
images/fcloud_D1.4_2.tif,1.4,0,,,,,0,72,72,19,,,,,,,,,,,,,,,,,,,1,space,4,0.985,5.7142877705,,,,,,,,,,,,,,,,,,,,,,,,,,,2019_Jan_23_1734,60.079681522149386,Cloud_Experiment_FR_REAL,001,10,
images/fcloud_D0.9_2.tif,0.9,0,,,,,0,73,73,4,,,,,,,,,,,,,,,,,,,None,None,None,11.011,,,,,,,,,,,,,,,,,,,,,,,,,,,,2019_Jan_23_1734,60.079681522149386,Cloud_Experiment_FR_REAL,001,10,
images/fcloud_D1_2.tif,1.0,0,,,,,0,74,74,7,,,,,,,,,,,,,,,,,,,1,space,3,1.585,6.74390304083,,,,,,,,,,,,,,,,,,,,,,,,,,,2019_Jan_23_1734,60.079681522149386,Cloud_Experiment_FR_REAL,001,10,
images/fcloud_D1.7_3.tif,1.7,0,,,,,0,75,75,29,,,,,,,,,,,,,,,,,,,None,None,None,10.877,,,,,,,,,,,,,,,,,,,,,,,,,,,,2019_Jan_23_1734,60.079681522149386,Cloud_Experiment_FR_REAL,001,10,
images/fcloud80-20_D0.9_3.tif,0.9,2,,,,,0,76,76,77,,,,,,,,,,,,,,,,,,,None,None,None,20.934,,,,,,,,,,,,,,,,,,,,,,,,,,,,2019_Jan_23_1734,60.079681522149386,Cloud_Experiment_FR_REAL,001,10,
images/fcloud_D1.2_1.tif,1.2,0,,,,,0,77,77,12,,,,,,,,,,,,,,,,,,,None,None,None,31.176,,,,,,,,,,,,,,,,,,,,,,,,,,,,2019_Jan_23_1734,60.079681522149386,Cloud_Experiment_FR_REAL,001,10,
images/fcloud80-20_D1.8_3.tif,1.8,2,,,,,0,78,78,104,,,,,,,,,,,,,,,,,,,None,None,None,39.766,,,,,,,,,,,,,,,,,,,,,,,,,,,,2019_Jan_23_1734,60.079681522149386,Cloud_Experiment_FR_REAL,001,10,
images/fcloud65-35_D1.5_3.tif,1.5,1,,,,,0,79,79,59,,,,,,,,,,,,,,,,,,,1,space,3,1.167,7.55267067425,,,,,,,,,,,,,,,,,,,,,,,,,,,2019_Jan_23_1734,60.079681522149386,Cloud_Experiment_FR_REAL,001,10,
images/fcloud_D0.9_1.tif,0.9,0,,,,,0,80,80,3,,,,,,,,,,,,,,,,,,,2,space,3,1.502,6.04313648079,,,,,,,,,,,,,,,,,,,,,,,,,,,2019_Jan_23_1734,60.079681522149386,Cloud_Experiment_FR_REAL,001,10,
images/fcloud65-35_D1.4_1.tif,1.4,1,,,,,0,81,81,54,,,,,,,,,,,,,,,,,,,1,space,1,0.819,7.77852932739,,,,,,,,,,,,,,,,,,,,,,,,,,,2019_Jan_23_1734,60.079681522149386,Cloud_Experiment_FR_REAL,001,10,
images/fcloud65-35_D1.6_1.tif,1.6,1,,,,,0,82,82,60,,,,,,,,,,,,,,,,,,,None,None,None,10.293,,,,,,,,,,,,,,,,,,,,,,,,,,,,2019_Jan_23_1734,60.079681522149386,Cloud_Experiment_FR_REAL,001,10,
images/fcloud_D1.1_2.tif,1.1,0,,,,,0,83,83,10,,,,,,,,,,,,,,,,,,,2,space,1,4.531,1.44381935257,,,,,,,,,,,,,,,,,,,,,,,,,,,2019_Jan_23_1734,60.079681522149386,Cloud_Experiment_FR_REAL,001,10,
images/fcloud_D1.9_1.tif,1.9,0,,,,,0,84,84,33,,,,,,,,,,,,,,,,,,,None,None,None,13.106,,,,,,,,,,,,,,,,,,,,,,,,,,,,2019_Jan_23_1734,60.079681522149386,Cloud_Experiment_FR_REAL,001,10,
images/fcloud80-20_D1.1_1.tif,1.1,2,,,,,0,85,85,81,,,,,,,,,,,,,,,,,,,None,None,None,22.182,,,,,,,,,,,,,,,,,,,,,,,,,,,,2019_Jan_23_1734,60.079681522149386,Cloud_Experiment_FR_REAL,001,10,
images/fcloud_D1.9_3.tif,1.9,0,,,,,0,86,86,35,,,,,,,,,,,,,,,,,,,None,None,None,31.173,,,,,,,,,,,,,,,,,,,,,,,,,,,,2019_Jan_23_1734,60.079681522149386,Cloud_Experiment_FR_REAL,001,10,
images/fcloud80-20_D1.3_1.tif,1.3,2,,,,,0,87,87,87,,,,,,,,,,,,,,,,,,,None,None,None,40.251,,,,,,,,,,,,,,,,,,,,,,,,,,,,2019_Jan_23_1734,60.079681522149386,Cloud_Experiment_FR_REAL,001,10,
images/fcloud80-20_D1.6_2.tif,1.6,2,,,,,0,88,88,97,,,,,,,,,,,,,,,,,,,None,None,None,48.825,,,,,,,,,,,,,,,,,,,,,,,,,,,,2019_Jan_23_1734,60.079681522149386,Cloud_Experiment_FR_REAL,001,10,
images/fcloud80-20_D1.7_1.tif,1.7,2,,,,,0,89,89,99,,,,,,,,,,,,,,,,,,,None,None,None,57.287,,,,,,,,,,,,,,,,,,,,,,,,,,,,2019_Jan_23_1734,60.079681522149386,Cloud_Experiment_FR_REAL,001,10,
images/fcloud65-35_D0.8_3.tif,0.8,1,,,,,0,90,90,38,,,,,,,,,,,,,,,,,,,None,None,None,66.161,,,,,,,,,,,,,,,,,,,,,,,,,,,,2019_Jan_23_1734,60.079681522149386,Cloud_Experiment_FR_REAL,001,10,
images/fcloud_D1.1_1.tif,1.1,0,,,,,0,91,91,9,,,,,,,,,,,,,,,,,,,3,space,2,0.636,2.79977474074,,,,,,,,,,,,,,,,,,,,,,,,,,,2019_Jan_23_1734,60.079681522149386,Cloud_Experiment_FR_REAL,001,10,
images/fcloud_D1.8_1.tif,1.8,0,,,,,0,92,92,30,,,,,,,,,,,,,,,,,,,1,space,1,0.586,8.0258441568,,,,,,,,,,,,,,,,,,,,,,,,,,,2019_Jan_23_1734,60.079681522149386,Cloud_Experiment_FR_REAL,001,10,
images/fcloud_D1.6_3.tif,1.6,0,,,,,0,93,93,26,,,,,,,,,,,,,,,,,,,1,space,1,1.868,5.54321050481,,,,,,,,,,,,,,,,,,,,,,,,,,,2019_Jan_23_1734,60.079681522149386,Cloud_Experiment_FR_REAL,001,10,
images/fcloud_D1.4_1.tif,1.4,0,,,,,0,94,94,18,,,,,,,,,,,,,,,,,,,2,space,2,0.952,5.90161588308,,,,,,,,,,,,,,,,,,,,,,,,,,,2019_Jan_23_1734,60.079681522149386,Cloud_Experiment_FR_REAL,001,10,
images/fcloud65-35_D1_1.tif,1.0,1,,,,,0,95,95,42,,,,,,,,,,,,,,,,,,,2,space,2,0.502,1.86144396226,,,,,,,,,,,,,,,,,,,,,,,,,,,2019_Jan_23_1734,60.079681522149386,Cloud_Experiment_FR_REAL,001,10,
images/fcloud80-20_D1.3_3.tif,1.3,2,,,,,0,96,96,89,,,,,,,,,,,,,,,,,,,None,None,None,9.01,,,,,,,,,,,,,,,,,,,,,,,,,,,,2019_Jan_23_1734,60.079681522149386,Cloud_Experiment_FR_REAL,001,10,
images/fcloud80-20_D1.7_2.tif,1.7,2,,,,,0,97,97,100,,,,,,,,,,,,,,,,,,,1,space,4,3.167,4.57038812243,,,,,,,,,,,,,,,,,,,,,,,,,,,2019_Jan_23_1734,60.079681522149386,Cloud_Experiment_FR_REAL,001,10,
images/fcloud65-35_D1.1_2.tif,1.1,1,,,,,0,98,98,46,,,,,,,,,,,,,,,,,,,None,None,None,12.192,,,,,,,,,,,,,,,,,,,,,,,,,,,,2019_Jan_23_1734,60.079681522149386,Cloud_Experiment_FR_REAL,001,10,
images/fcloud80-20_D1.7_3.tif,1.7,2,,,,,0,99,99,101,,,,,,,,,,,,,,,,,,,None,None,None,21.266,,,,,,,,,,,,,,,,,,,,,,,,,,,,2019_Jan_23_1734,60.079681522149386,Cloud_Experiment_FR_REAL,001,10,
images/fcloud80-20_D1.4_3.tif,1.4,2,,,,,0,100,100,92,,,,,,,,,,,,,,,,,,,1,space,1,1.485,5.91785285049,,,,,,,,,,,,,,,,,,,,,,,,,,,2019_Jan_23_1734,60.079681522149386,Cloud_Experiment_FR_REAL,001,10,
images/fcloud_D1.4_3.tif,1.4,0,,,,,0,101,101,20,,,,,,,,,,,,,,,,,,,3,space,3,1.901,1.82422015161,,,,,,,,,,,,,,,,,,,,,,,,,,,2019_Jan_23_1734,60.079681522149386,Cloud_Experiment_FR_REAL,001,10,
images/fcloud65-35_D1_3.tif,1.0,1,,,,,0,102,102,44,,,,,,,,,,,,,,,,,,,None,None,None,11.009,,,,,,,,,,,,,,,,,,,,,,,,,,,,2019_Jan_23_1734,60.079681522149386,Cloud_Experiment_FR_REAL,001,10,
images/fcloud80-20_D1.1_3.tif,1.1,2,,,,,0,103,103,83,,,,,,,,,,,,,,,,,,,1,space,1,0.62,7.86546953346,,,,,,,,,,,,,,,,,,,,,,,,,,,2019_Jan_23_1734,60.079681522149386,Cloud_Experiment_FR_REAL,001,10,
images/fcloud_D1.5_2.tif,1.5,0,,,,,0,104,104,22,,,,,,,,,,,,,,,,,,,1,space,2,2.1,1.95087990936,,,,,,,,,,,,,,,,,,,,,,,,,,,2019_Jan_23_1734,60.079681522149386,Cloud_Experiment_FR_REAL,001,10,
images/fcloud80-20_D1_2.tif,1.0,2,,,,,0,105,105,79,,,,,,,,,,,,,,,,,,,None,None,None,10.726,,,,,,,,,,,,,,,,,,,,,,,,,,,,2019_Jan_23_1734,60.079681522149386,Cloud_Experiment_FR_REAL,001,10,
images/fcloud65-35_D1.4_2.tif,1.4,1,,,,,0,106,106,55,,,,,,,,,,,,,,,,,,,None,None,None,19.951,,,,,,,,,,,,,,,,,,,,,,,,,,,,2019_Jan_23_1734,60.079681522149386,Cloud_Experiment_FR_REAL,001,10,
images/fcloud65-35_D1.6_3.tif,1.6,1,,,,,0,107,107,62,,,,,,,,,,,,,,,,,,,None,None,None,28.429,,,,,,,,,,,,,,,,,,,,,,,,,,,,2019_Jan_23_1734,60.079681522149386,Cloud_Experiment_FR_REAL,001,10,
,,,,,,,,,,,,,,,,,,,,,,,,,,,,,,,,,,,,space,4.23133540395,,,,,,,,,,,,,,,,,,,,,,,2019_Jan_23_1734,60.079681522149386,Cloud_Experiment_FR_REAL,001,10,
,,,,,,,,,,,,,,,,,,,,,,,,,6,7.135,,,,,,,,,,,,,,,,,,,,,,,,,,,,,,,,,,2019_Jan_23_1734,60.079681522149386,Cloud_Experiment_FR_REAL,001,10,
,,,,,,,,,,,,,,,,,,,,,,,,,,,,,,,,,,,,,,3,15.57,,,,,,,,,,,,,,,,,,,,,2019_Jan_23_1734,60.079681522149386,Cloud_Experiment_FR_REAL,001,10,
,,,,,,,,,,,,,,,,,,,,,,,,,,,,,,,,,,,,,,,,2,8.547,,,,,,,,,,,,,,,,,,,2019_Jan_23_1734,60.079681522149386,Cloud_Experiment_FR_REAL,001,10,
,,,,,,,,,,,,,,,,,,,,,,,,,,,,,,,,,,,,,,,,,,2,3.95,,,,,,,,,,,,,,,,,2019_Jan_23_1734,60.079681522149386,Cloud_Experiment_FR_REAL,001,10,
,,,,,,,,,,,,,,,,,,,,,,,,,,,,,,,,,,,,,,,,,,,,2,3.717,,,,,,,,,,,,,,,2019_Jan_23_1734,60.079681522149386,Cloud_Experiment_FR_REAL,001,10,
,,,,,,,,,,,,,,,,,,,,,,,,,,,,,,,,,,,,,,,,,,,,,,6,5.815,,,,,,,,,,,,,2019_Jan_23_1734,60.079681522149386,Cloud_Experiment_FR_REAL,001,10,
,,,,,,,,,,,,,,,,,,,,,,,,,,,,,,,,,,,,,,,,,,,,,,,,3,6.331,,,,,,,,,,,2019_Jan_23_1734,60.079681522149386,Cloud_Experiment_FR_REAL,001,10,
,,,,,,,,,,,,,,,,,,,,,,,,,,,,,,,,,,,,,,,,,,,,,,,,,,2,6.167,,,,,,,,,2019_Jan_23_1734,60.079681522149386,Cloud_Experiment_FR_REAL,001,10,
,,,,,,,,,,,,,,,,,,,,,,,,,,,,,,,,,,,,,,,,,,,,,,,,,,,,7,3.786,,,,,,,2019_Jan_23_1734,60.079681522149386,Cloud_Experiment_FR_REAL,001,10,
,,,,,,,,,,,,,,,,,,,,,,,,,,,,,,,,,,,,,,,,,,,,,,,,,,,,,,6,5.048,,,,,2019_Jan_23_1734,60.079681522149386,Cloud_Experiment_FR_REAL,001,10,
,,,,,,,,,,,,,,,,,,,,,,,,,,,,,,,,,,,,,,,,,,,,,,,,,,,,,,,,1,3.717,,,2019_Jan_23_1734,60.079681522149386,Cloud_Experiment_FR_REAL,001,10,
,,,,,,,,,,,,,,,,,,,,,,,,,,,,,,,,,,,,,,,,,,,,,,,,,,,,,,,,,,space,303.321015013,2019_Jan_23_1734,60.079681522149386,Cloud_Experiment_FR_REAL,001,10,
images/fcloud80-20_D1.7_5.tif,1.7,2,,,,,,,,,0,0,0,100,,,,,,,,,,,,,,,None,None,None,423.134,,,,,,,,,,,,,,,,,,,,,,,,,,,,2019_Jan_23_1734,60.079681522149386,Cloud_Experiment_FR_REAL,001,10,
images/fcloud80-20_D1.4_4.tif,1.4,2,,,,,,,,,0,1,1,90,,,,,,,,,,,,,,,None,None,None,431.874,,,,,,,,,,,,,,,,,,,,,,,,,,,,2019_Jan_23_1734,60.079681522149386,Cloud_Experiment_FR_REAL,001,10,
images/fcloud_D1.4_4.tif,1.4,0,,,,,,,,,0,2,2,18,,,,,,,,,,,,,,,1,space,2,1.568,2.14205881415,,,,,,,,,,,,,,,,,,,,,,,,,,,2019_Jan_23_1734,60.079681522149386,Cloud_Experiment_FR_REAL,001,10,
images/fcloud65-35_D1.5_5.tif,1.5,1,,,,,,,,,0,3,3,58,,,,,,,,,,,,,,,1,space,2,1.519,1.95201597273,,,,,,,,,,,,,,,,,,,,,,,,,,,2019_Jan_23_1734,60.079681522149386,Cloud_Experiment_FR_REAL,001,10,
images/fcloud80-20_D1.4_5.tif,1.4,2,,,,,,,,,0,4,4,91,,,,,,,,,,,,,,,2,None,1,0.686,,,,,,,,,,,,,,,,,,,,,,,,,,,,2019_Jan_23_1734,60.079681522149386,Cloud_Experiment_FR_REAL,001,10,
images/fcloud65-35_D1.5_6.tif,1.5,1,,,,,,,,,0,5,5,59,,,,,,,,,,,,,,,1,None,1,0.469,,,,,,,,,,,,,,,,,,,,,,,,,,,,2019_Jan_23_1734,60.079681522149386,Cloud_Experiment_FR_REAL,001,10,
images/fcloud80-20_D0.9_5.tif,0.9,2,,,,,,,,,0,6,6,76,,,,,,,,,,,,,,,None,None,None,9.61,,,,,,,,,,,,,,,,,,,,,,,,,,,,2019_Jan_23_1734,60.079681522149386,Cloud_Experiment_FR_REAL,001,10,
images/fcloud65-35_D1.8_4.tif,1.8,1,,,,,,,,,0,7,7,66,,,,,,,,,,,,,,,1,None,2,5.997,,,,,,,,,,,,,,,,,,,,,,,,,,,,2019_Jan_23_1734,60.079681522149386,Cloud_Experiment_FR_REAL,001,10,
images/fcloud80-20_D1.4_6.tif,1.4,2,,,,,,,,,0,8,8,92,,,,,,,,,,,,,,,1,space,3,2.335,7.94325389114,,,,,,,,,,,,,,,,,,,,,,,,,,,2019_Jan_23_1734,60.079681522149386,Cloud_Experiment_FR_REAL,001,10,
images/fcloud80-20_D0.9_6.tif,0.9,2,,,,,,,,,0,9,9,77,,,,,,,,,,,,,,,1,space,3,2.651,5.82579110624,,,,,,,,,,,,,,,,,,,,,,,,,,,2019_Jan_23_1734,60.079681522149386,Cloud_Experiment_FR_REAL,001,10,
images/fcloud80-20_D1.6_5.tif,1.6,2,,,,,,,,,0,10,10,97,,,,,,,,,,,,,,,1,space,2,1.469,7.2993922832,,,,,,,,,,,,,,,,,,,,,,,,,,,2019_Jan_23_1734,60.079681522149386,Cloud_Experiment_FR_REAL,001,10,
images/fcloud80-20_D1.6_4.tif,1.6,2,,,,,,,,,0,11,11,96,,,,,,,,,,,,,,,None,None,None,9.976,,,,,,,,,,,,,,,,,,,,,,,,,,,,2019_Jan_23_1734,60.079681522149386,Cloud_Experiment_FR_REAL,001,10,
images/fcloud_D1_4.tif,1.0,0,,,,,,,,,0,12,12,6,,,,,,,,,,,,,,,3,space,3,1.885,1.9894469479,,,,,,,,,,,,,,,,,,,,,,,,,,,2019_Jan_23_1734,60.079681522149386,Cloud_Experiment_FR_REAL,001,10,
images/fcloud_D1.5_5.tif,1.5,0,,,,,,,,,0,13,13,22,,,,,,,,,,,,,,,1,space,1,0.619,2.87054120825,,,,,,,,,,,,,,,,,,,,,,,,,,,2019_Jan_23_1734,60.079681522149386,Cloud_Experiment_FR_REAL,001,10,
images/fcloud80-20_D0.8_6.tif,0.8,2,,,,,,,,,0,14,14,74,,,,,,,,,,,,,,,None,None,None,15.354,,,,,,,,,,,,,,,,,,,,,,,,,,,,2019_Jan_23_1734,60.079681522149386,Cloud_Experiment_FR_REAL,001,10,
images/fcloud_D1.9_6.tif,1.9,0,,,,,,,,,0,15,15,35,,,,,,,,,,,,,,,None,None,None,24.264,,,,,,,,,,,,,,,,,,,,,,,,,,,,2019_Jan_23_1734,60.079681522149386,Cloud_Experiment_FR_REAL,001,10,
images/fcloud80-20_D1.3_6.tif,1.3,2,,,,,,,,,0,16,16,89,,,,,,,,,,,,,,,1,space,2,2.268,4.40940434296,,,,,,,,,,,,,,,,,,,,,,,,,,,2019_Jan_23_1734,60.079681522149386,Cloud_Experiment_FR_REAL,001,10,
images/fcloud_D1.8_4.tif,1.8,0,,,,,,,,,0,17,17,30,,,,,,,,,,,,,,,None,None,None,15.173,,,,,,,,,,,,,,,,,,,,,,,,,,,,2019_Jan_23_1734,60.079681522149386,Cloud_Experiment_FR_REAL,001,10,
images/fcloud80-20_D1.9_6.tif,1.9,2,,,,,,,,,0,18,18,107,,,,,,,,,,,,,,,None,None,None,24.514,,,,,,,,,,,,,,,,,,,,,,,,,,,,2019_Jan_23_1734,60.079681522149386,Cloud_Experiment_FR_REAL,001,10,
images/fcloud_D1.2_5.tif,1.2,0,,,,,,,,,0,19,19,13,,,,,,,,,,,,,,,2,space,4,1.568,1.40851965285,,,,,,,,,,,,,,,,,,,,,,,,,,,2019_Jan_23_1734,60.079681522149386,Cloud_Experiment_FR_REAL,001,10,
images/fcloud80-20_D1.8_4.tif,1.8,2,,,,,,,,,0,20,20,102,,,,,,,,,,,,,,,None,None,None,15.638,,,,,,,,,,,,,,,,,,,,,,,,,,,,2019_Jan_23_1734,60.079681522149386,Cloud_Experiment_FR_REAL,001,10,
images/fcloud_D1.1_4.tif,1.1,0,,,,,,,,,0,21,21,9,,,,,,,,,,,,,,,1,space,2,5.365,1.77511085614,,,,,,,,,,,,,,,,,,,,,,,,,,,2019_Jan_23_1734,60.079681522149386,Cloud_Experiment_FR_REAL,001,10,
images/fcloud80-20_D1.8_5.tif,1.8,2,,,,,,,,,0,22,22,103,,,,,,,,,,,,,,,1,None,1,0.669,,,,,,,,,,,,,,,,,,,,,,,,,,,,2019_Jan_23_1734,60.079681522149386,Cloud_Experiment_FR_REAL,001,10,
images/fcloud65-35_D1.9_6.tif,1.9,1,,,,,,,,,0,23,23,71,,,,,,,,,,,,,,,2,space,1,2.116,7.09233522197,,,,,,,,,,,,,,,,,,,,,,,,,,,2019_Jan_23_1734,60.079681522149386,Cloud_Experiment_FR_REAL,001,10,
images/fcloud65-35_D1.4_6.tif,1.4,1,,,,,,,,,0,24,24,56,,,,,,,,,,,,,,,1,space,2,1.4,6.21919134905,,,,,,,,,,,,,,,,,,,,,,,,,,,2019_Jan_23_1734,60.079681522149386,Cloud_Experiment_FR_REAL,001,10,
images/fcloud80-20_D1.8_6.tif,1.8,2,,,,,,,,,0,25,25,104,,,,,,,,,,,,,,,None,None,None,10.61,,,,,,,,,,,,,,,,,,,,,,,,,,,,2019_Jan_23_1734,60.079681522149386,Cloud_Experiment_FR_REAL,001,10,
images/fcloud80-20_D1.5_6.tif,1.5,2,,,,,,,,,0,26,26,95,,,,,,,,,,,,,,,2,space,3,1.186,2.06477925926,,,,,,,,,,,,,,,,,,,,,,,,,,,2019_Jan_23_1734,60.079681522149386,Cloud_Experiment_FR_REAL,001,10,
images/fcloud_D0.8_4.tif,0.8,0,,,,,,,,,0,27,27,0,,,,,,,,,,,,,,,2,space,2,0.669,2.30977826717,,,,,,,,,,,,,,,,,,,,,,,,,,,2019_Jan_23_1734,60.079681522149386,Cloud_Experiment_FR_REAL,001,10,
images/fcloud80-20_D1.1_5.tif,1.1,2,,,,,,,,,0,28,28,82,,,,,,,,,,,,,,,2,space,3,0.968,4.26882292525,,,,,,,,,,,,,,,,,,,,,,,,,,,2019_Jan_23_1734,60.079681522149386,Cloud_Experiment_FR_REAL,001,10,
images/fcloud_D1.7_4.tif,1.7,0,,,,,,,,,0,29,29,27,,,,,,,,,,,,,,,2,space,1,0.885,5.48043914762,,,,,,,,,,,,,,,,,,,,,,,,,,,2019_Jan_23_1734,60.079681522149386,Cloud_Experiment_FR_REAL,001,10,
images/fcloud_D0.9_6.tif,0.9,0,,,,,,,,,0,30,30,5,,,,,,,,,,,,,,,3,space,1,0.653,5.4006602533,,,,,,,,,,,,,,,,,,,,,,,,,,,2019_Jan_23_1734,60.079681522149386,Cloud_Experiment_FR_REAL,001,10,
images/fcloud_D0.9_4.tif,0.9,0,,,,,,,,,0,31,31,3,,,,,,,,,,,,,,,2,space,3,1.086,4.20300630128,,,,,,,,,,,,,,,,,,,,,,,,,,,2019_Jan_23_1734,60.079681522149386,Cloud_Experiment_FR_REAL,001,10,
images/fcloud65-35_D1.8_6.tif,1.8,1,,,,,,,,,0,32,32,68,,,,,,,,,,,,,,,2,space,1,0.42,3.27944948731,,,,,,,,,,,,,,,,,,,,,,,,,,,2019_Jan_23_1734,60.079681522149386,Cloud_Experiment_FR_REAL,001,10,
images/fcloud80-20_D1.6_6.tif,1.6,2,,,,,,,,,0,33,33,98,,,,,,,,,,,,,,,2,space,3,4.266,7.0064205573,,,,,,,,,,,,,,,,,,,,,,,,,,,2019_Jan_23_1734,60.079681522149386,Cloud_Experiment_FR_REAL,001,10,
images/fcloud_D1_6.tif,1.0,0,,,,,,,,,0,34,34,8,,,,,,,,,,,,,,,3,space,4,0.753,2.02791425961,,,,,,,,,,,,,,,,,,,,,,,,,,,2019_Jan_23_1734,60.079681522149386,Cloud_Experiment_FR_REAL,001,10,
images/fcloud65-35_D1.8_5.tif,1.8,1,,,,,,,,,0,35,35,67,,,,,,,,,,,,,,,2,space,3,1.002,5.65151384301,,,,,,,,,,,,,,,,,,,,,,,,,,,2019_Jan_23_1734,60.079681522149386,Cloud_Experiment_FR_REAL,001,10,
images/fcloud80-20_D0.8_4.tif,0.8,2,,,,,,,,,0,36,36,72,,,,,,,,,,,,,,,1,space,1,0.919,6.23083111516,,,,,,,,,,,,,,,,,,,,,,,,,,,2019_Jan_23_1734,60.079681522149386,Cloud_Experiment_FR_REAL,001,10,
images/fcloud_D0.8_6.tif,0.8,0,,,,,,,,,0,37,37,2,,,,,,,,,,,,,,,3,space,3,2.166,3.95975816759,,,,,,,,,,,,,,,,,,,,,,,,,,,2019_Jan_23_1734,60.079681522149386,Cloud_Experiment_FR_REAL,001,10,
images/fcloud_D1_5.tif,1.0,0,,,,,,,,,0,38,38,7,,,,,,,,,,,,,,,4,space,2,2.718,2.7630536767,,,,,,,,,,,,,,,,,,,,,,,,,,,2019_Jan_23_1734,60.079681522149386,Cloud_Experiment_FR_REAL,001,10,
images/fcloud_D1.7_6.tif,1.7,0,,,,,,,,,0,39,39,29,,,,,,,,,,,,,,,1,space,3,1.336,5.8452948984,,,,,,,,,,,,,,,,,,,,,,,,,,,2019_Jan_23_1734,60.079681522149386,Cloud_Experiment_FR_REAL,001,10,
images/fcloud65-35_D0.8_4.tif,0.8,1,,,,,,,,,0,40,40,36,,,,,,,,,,,,,,,2,space,1,7.114,3.87529622467,,,,,,,,,,,,,,,,,,,,,,,,,,,2019_Jan_23_1734,60.079681522149386,Cloud_Experiment_FR_REAL,001,10,
images/fcloud65-35_D1.5_4.tif,1.5,1,,,,,,,,,0,41,41,57,,,,,,,,,,,,,,,2,space,1,1.452,4.7889322752,,,,,,,,,,,,,,,,,,,,,,,,,,,2019_Jan_23_1734,60.079681522149386,Cloud_Experiment_FR_REAL,001,10,
images/fcloud_D1.4_5.tif,1.4,0,,,,,,,,,0,42,42,19,,,,,,,,,,,,,,,1,space,1,0.57,5.68390090237,,,,,,,,,,,,,,,,,,,,,,,,,,,2019_Jan_23_1734,60.079681522149386,Cloud_Experiment_FR_REAL,001,10,
images/fcloud80-20_D1.9_5.tif,1.9,2,,,,,,,,,0,43,43,106,,,,,,,,,,,,,,,1,space,3,1.586,3.81761402014,,,,,,,,,,,,,,,,,,,,,,,,,,,2019_Jan_23_1734,60.079681522149386,Cloud_Experiment_FR_REAL,001,10,
images/fcloud80-20_D1.1_4.tif,1.1,2,,,,,,,,,0,44,44,81,,,,,,,,,,,,,,,1,space,3,2.0,5.42697939769,,,,,,,,,,,,,,,,,,,,,,,,,,,2019_Jan_23_1734,60.079681522149386,Cloud_Experiment_FR_REAL,001,10,
images/fcloud_D1.3_5.tif,1.3,0,,,,,,,,,0,45,45,16,,,,,,,,,,,,,,,3,space,3,0.67,2.99701950431,,,,,,,,,,,,,,,,,,,,,,,,,,,2019_Jan_23_1734,60.079681522149386,Cloud_Experiment_FR_REAL,001,10,
images/fcloud_D1.8_6.tif,1.8,0,,,,,,,,,0,46,46,32,,,,,,,,,,,,,,,2,space,1,1.102,5.78022571164,,,,,,,,,,,,,,,,,,,,,,,,,,,2019_Jan_23_1734,60.079681522149386,Cloud_Experiment_FR_REAL,001,10,
images/fcloud65-35_D1_4.tif,1.0,1,,,,,,,,,0,47,47,42,,,,,,,,,,,,,,,2,space,2,2.35,1.93049656766,,,,,,,,,,,,,,,,,,,,,,,,,,,2019_Jan_23_1734,60.079681522149386,Cloud_Experiment_FR_REAL,001,10,
images/fcloud65-35_D1_6.tif,1.0,1,,,,,,,,,0,48,48,44,,,,,,,,,,,,,,,2,space,1,0.984,6.06792887938,,,,,,,,,,,,,,,,,,,,,,,,,,,2019_Jan_23_1734,60.079681522149386,Cloud_Experiment_FR_REAL,001,10,
images/fcloud65-35_D1.9_5.tif,1.9,1,,,,,,,,,0,49,49,70,,,,,,,,,,,,,,,None,None,None,10.393,,,,,,,,,,,,,,,,,,,,,,,,,,,,2019_Jan_23_1734,60.079681522149386,Cloud_Experiment_FR_REAL,001,10,
images/fcloud_D1.6_5.tif,1.6,0,,,,,,,,,0,50,50,25,,,,,,,,,,,,,,,None,space,None,19.552,6.55721595587,,,,,,,,,,,,,,,,,,,,,,,,,,,2019_Jan_23_1734,60.079681522149386,Cloud_Experiment_FR_REAL,001,10,
images/fcloud_D1.2_6.tif,1.2,0,,,,,,,,,0,51,51,14,,,,,,,,,,,,,,,None,space,None,30.044,5.99336765171,,,,,,,,,,,,,,,,,,,,,,,,,,,2019_Jan_23_1734,60.079681522149386,Cloud_Experiment_FR_REAL,001,10,
images/fcloud80-20_D1.7_6.tif,1.7,2,,,,,,,,,0,52,52,101,,,,,,,,,,,,,,,2,space,2,0.636,2.59032526371,,,,,,,,,,,,,,,,,,,,,,,,,,,2019_Jan_23_1734,60.079681522149386,Cloud_Experiment_FR_REAL,001,10,
images/fcloud65-35_D1.3_5.tif,1.3,1,,,,,,,,,0,53,53,52,,,,,,,,,,,,,,,None,None,None,9.692,,,,,,,,,,,,,,,,,,,,,,,,,,,,2019_Jan_23_1734,60.079681522149386,Cloud_Experiment_FR_REAL,001,10,
images/fcloud80-20_D1_6.tif,1.0,2,,,,,,,,,0,54,54,80,,,,,,,,,,,,,,,None,None,None,18.753,,,,,,,,,,,,,,,,,,,,,,,,,,,,2019_Jan_23_1734,60.079681522149386,Cloud_Experiment_FR_REAL,001,10,
images/fcloud65-35_D1.6_6.tif,1.6,1,,,,,,,,,0,55,55,62,,,,,,,,,,,,,,,1,space,2,0.736,6.36609462535,,,,,,,,,,,,,,,,,,,,,,,,,,,2019_Jan_23_1734,60.079681522149386,Cloud_Experiment_FR_REAL,001,10,
images/fcloud_D1.7_5.tif,1.7,0,,,,,,,,,0,56,56,28,,,,,,,,,,,,,,,1,space,1,1.518,7.30210341362,,,,,,,,,,,,,,,,,,,,,,,,,,,2019_Jan_23_1734,60.079681522149386,Cloud_Experiment_FR_REAL,001,10,
images/fcloud65-35_D1.3_6.tif,1.3,1,,,,,,,,,0,57,57,53,,,,,,,,,,,,,,,1,None,2,0.819,,,,,,,,,,,,,,,,,,,,,,,,,,,,2019_Jan_23_1734,60.079681522149386,Cloud_Experiment_FR_REAL,001,10,
images/fcloud80-20_D1.1_6.tif,1.1,2,,,,,,,,,0,58,58,83,,,,,,,,,,,,,,,1,space,1,0.803,4.00862945517,,,,,,,,,,,,,,,,,,,,,,,,,,,2019_Jan_23_1734,60.079681522149386,Cloud_Experiment_FR_REAL,001,10,
images/fcloud65-35_D1.3_4.tif,1.3,1,,,,,,,,,0,59,59,51,,,,,,,,,,,,,,,1,space,2,0.802,7.27411924244,,,,,,,,,,,,,,,,,,,,,,,,,,,2019_Jan_23_1734,60.079681522149386,Cloud_Experiment_FR_REAL,001,10,
images/fcloud80-20_D1.2_5.tif,1.2,2,,,,,,,,,0,60,60,85,,,,,,,,,,,,,,,1,space,1,1.669,6.38538662653,,,,,,,,,,,,,,,,,,,,,,,,,,,2019_Jan_23_1734,60.079681522149386,Cloud_Experiment_FR_REAL,001,10,
images/fcloud65-35_D1.6_4.tif,1.6,1,,,,,,,,,0,61,61,60,,,,,,,,,,,,,,,None,None,None,10.26,,,,,,,,,,,,,,,,,,,,,,,,,,,,2019_Jan_23_1734,60.079681522149386,Cloud_Experiment_FR_REAL,001,10,
images/fcloud_D1.2_4.tif,1.2,0,,,,,,,,,0,62,62,12,,,,,,,,,,,,,,,1,space,2,1.785,6.62534737322,,,,,,,,,,,,,,,,,,,,,,,,,,,2019_Jan_23_1734,60.079681522149386,Cloud_Experiment_FR_REAL,001,10,
images/fcloud_D1.6_4.tif,1.6,0,,,,,,,,,0,63,63,24,,,,,,,,,,,,,,,2,space,2,0.919,4.62253497378,,,,,,,,,,,,,,,,,,,,,,,,,,,2019_Jan_23_1734,60.079681522149386,Cloud_Experiment_FR_REAL,001,10,
images/fcloud65-35_D1_5.tif,1.0,1,,,,,,,,,0,64,64,43,,,,,,,,,,,,,,,2,space,3,0.801,2.11524463404,,,,,,,,,,,,,,,,,,,,,,,,,,,2019_Jan_23_1734,60.079681522149386,Cloud_Experiment_FR_REAL,001,10,
images/fcloud_D1.3_6.tif,1.3,0,,,,,,,,,0,65,65,17,,,,,,,,,,,,,,,1,space,2,1.419,5.85495040903,,,,,,,,,,,,,,,,,,,,,,,,,,,2019_Jan_23_1734,60.079681522149386,Cloud_Experiment_FR_REAL,001,10,
images/fcloud80-20_D1.5_5.tif,1.5,2,,,,,,,,,0,66,66,94,,,,,,,,,,,,,,,1,space,1,0.719,5.57590856799,,,,,,,,,,,,,,,,,,,,,,,,,,,2019_Jan_23_1734,60.079681522149386,Cloud_Experiment_FR_REAL,001,10,
images/fcloud80-20_D1.3_5.tif,1.3,2,,,,,,,,,0,67,67,88,,,,,,,,,,,,,,,None,None,None,9.777,,,,,,,,,,,,,,,,,,,,,,,,,,,,2019_Jan_23_1734,60.079681522149386,Cloud_Experiment_FR_REAL,001,10,
images/fcloud_D0.9_5.tif,0.9,0,,,,,,,,,0,68,68,4,,,,,,,,,,,,,,,2,space,3,0.969,2.24275309796,,,,,,,,,,,,,,,,,,,,,,,,,,,2019_Jan_23_1734,60.079681522149386,Cloud_Experiment_FR_REAL,001,10,
images/fcloud65-35_D1.7_5.tif,1.7,1,,,,,,,,,0,69,69,64,,,,,,,,,,,,,,,1,space,2,1.251,7.8071380764,,,,,,,,,,,,,,,,,,,,,,,,,,,2019_Jan_23_1734,60.079681522149386,Cloud_Experiment_FR_REAL,001,10,
images/fcloud_D1.9_5.tif,1.9,0,,,,,,,,,0,70,70,34,,,,,,,,,,,,,,,None,None,None,15.886,,,,,,,,,,,,,,,,,,,,,,,,,,,,2019_Jan_23_1734,60.079681522149386,Cloud_Experiment_FR_REAL,001,10,
images/fcloud65-35_D0.8_6.tif,0.8,1,,,,,,,,,0,71,71,38,,,,,,,,,,,,,,,2,space,4,1.052,1.98630503868,,,,,,,,,,,,,,,,,,,,,,,,,,,2019_Jan_23_1734,60.079681522149386,Cloud_Experiment_FR_REAL,001,10,
images/fcloud65-35_D1.2_6.tif,1.2,1,,,,,,,,,0,72,72,50,,,,,,,,,,,,,,,1,space,3,0.902,7.10594947654,,,,,,,,,,,,,,,,,,,,,,,,,,,2019_Jan_23_1734,60.079681522149386,Cloud_Experiment_FR_REAL,001,10,
images/fcloud65-35_D0.9_6.tif,0.9,1,,,,,,,,,0,73,73,41,,,,,,,,,,,,,,,1,None,1,0.952,,,,,,,,,,,,,,,,,,,,,,,,,,,,2019_Jan_23_1734,60.079681522149386,Cloud_Experiment_FR_REAL,001,10,
images/fcloud65-35_D1.1_5.tif,1.1,1,,,,,,,,,0,74,74,46,,,,,,,,,,,,,,,1,space,1,2.268,4.9285421274,,,,,,,,,,,,,,,,,,,,,,,,,,,2019_Jan_23_1734,60.079681522149386,Cloud_Experiment_FR_REAL,001,10,
images/fcloud65-35_D1.4_4.tif,1.4,1,,,,,,,,,0,75,75,54,,,,,,,,,,,,,,,2,space,2,1.785,2.82407570191,,,,,,,,,,,,,,,,,,,,,,,,,,,2019_Jan_23_1734,60.079681522149386,Cloud_Experiment_FR_REAL,001,10,
images/fcloud80-20_D1.5_4.tif,1.5,2,,,,,,,,,0,76,76,93,,,,,,,,,,,,,,,None,None,None,12.225,,,,,,,,,,,,,,,,,,,,,,,,,,,,2019_Jan_23_1734,60.079681522149386,Cloud_Experiment_FR_REAL,001,10,
images/fcloud_D1.5_4.tif,1.5,0,,,,,,,,,0,77,77,21,,,,,,,,,,,,,,,1,space,1,0.603,7.53345886577,,,,,,,,,,,,,,,,,,,,,,,,,,,2019_Jan_23_1734,60.079681522149386,Cloud_Experiment_FR_REAL,001,10,
images/fcloud_D1.5_6.tif,1.5,0,,,,,,,,,0,78,78,23,,,,,,,,,,,,,,,1,space,1,1.602,4.29744041321,,,,,,,,,,,,,,,,,,,,,,,,,,,2019_Jan_23_1734,60.079681522149386,Cloud_Experiment_FR_REAL,001,10,
images/fcloud80-20_D0.8_5.tif,0.8,2,,,,,,,,,0,79,79,73,,,,,,,,,,,,,,,1,space,1,0.502,3.58980349702,,,,,,,,,,,,,,,,,,,,,,,,,,,2019_Jan_23_1734,60.079681522149386,Cloud_Experiment_FR_REAL,001,10,
images/fcloud65-35_D0.8_5.tif,0.8,1,,,,,,,,,0,80,80,37,,,,,,,,,,,,,,,2,space,3,0.851,2.69014411041,,,,,,,,,,,,,,,,,,,,,,,,,,,2019_Jan_23_1734,60.079681522149386,Cloud_Experiment_FR_REAL,001,10,
images/fcloud_D1.9_4.tif,1.9,0,,,,,,,,,0,81,81,33,,,,,,,,,,,,,,,1,space,1,1.652,5.45299422098,,,,,,,,,,,,,,,,,,,,,,,,,,,2019_Jan_23_1734,60.079681522149386,Cloud_Experiment_FR_REAL,001,10,
images/fcloud80-20_D1.2_4.tif,1.2,2,,,,,,,,,0,82,82,84,,,,,,,,,,,,,,,1,space,4,2.119,7.95025635965,,,,,,,,,,,,,,,,,,,,,,,,,,,2019_Jan_23_1734,60.079681522149386,Cloud_Experiment_FR_REAL,001,10,
images/fcloud65-35_D1.4_5.tif,1.4,1,,,,,,,,,0,83,83,55,,,,,,,,,,,,,,,1,space,3,1.419,5.35903304041,,,,,,,,,,,,,,,,,,,,,,,,,,,2019_Jan_23_1734,60.079681522149386,Cloud_Experiment_FR_REAL,001,10,
images/fcloud80-20_D1.3_4.tif,1.3,2,,,,,,,,,0,84,84,87,,,,,,,,,,,,,,,2,space,3,0.753,1.99476434139,,,,,,,,,,,,,,,,,,,,,,,,,,,2019_Jan_23_1734,60.079681522149386,Cloud_Experiment_FR_REAL,001,10,
images/fcloud80-20_D1.7_4.tif,1.7,2,,,,,,,,,0,85,85,99,,,,,,,,,,,,,,,3,space,3,1.451,3.33507855286,,,,,,,,,,,,,,,,,,,,,,,,,,,2019_Jan_23_1734,60.079681522149386,Cloud_Experiment_FR_REAL,001,10,
images/fcloud80-20_D1_5.tif,1.0,2,,,,,,,,,0,86,86,79,,,,,,,,,,,,,,,2,space,2,2.118,3.09327440197,,,,,,,,,,,,,,,,,,,,,,,,,,,2019_Jan_23_1734,60.079681522149386,Cloud_Experiment_FR_REAL,001,10,
images/fcloud_D1.3_4.tif,1.3,0,,,,,,,,,0,87,87,15,,,,,,,,,,,,,,,4,space,3,1.433,1.24561741704,,,,,,,,,,,,,,,,,,,,,,,,,,,2019_Jan_23_1734,60.079681522149386,Cloud_Experiment_FR_REAL,001,10,
images/fcloud_D1.1_6.tif,1.1,0,,,,,,,,,0,88,88,11,,,,,,,,,,,,,,,3,space,3,2.985,1.45740430595,,,,,,,,,,,,,,,,,,,,,,,,,,,2019_Jan_23_1734,60.079681522149386,Cloud_Experiment_FR_REAL,001,10,
images/fcloud65-35_D1.2_4.tif,1.2,1,,,,,,,,,0,89,89,48,,,,,,,,,,,,,,,2,space,3,3.917,3.63540641768,,,,,,,,,,,,,,,,,,,,,,,,,,,2019_Jan_23_1734,60.079681522149386,Cloud_Experiment_FR_REAL,001,10,
images/fcloud80-20_D0.9_4.tif,0.9,2,,,,,,,,,0,90,90,75,,,,,,,,,,,,,,,2,space,2,2.452,2.20893336501,,,,,,,,,,,,,,,,,,,,,,,,,,,2019_Jan_23_1734,60.079681522149386,Cloud_Experiment_FR_REAL,001,10,
images/fcloud65-35_D1.7_4.tif,1.7,1,,,,,,,,,0,91,91,63,,,,,,,,,,,,,,,None,None,None,13.024,,,,,,,,,,,,,,,,,,,,,,,,,,,,2019_Jan_23_1734,60.079681522149386,Cloud_Experiment_FR_REAL,001,10,
images/fcloud65-35_D1.1_4.tif,1.1,1,,,,,,,,,0,92,92,45,,,,,,,,,,,,,,,2,space,2,0.886,2.72872091603,,,,,,,,,,,,,,,,,,,,,,,,,,,2019_Jan_23_1734,60.079681522149386,Cloud_Experiment_FR_REAL,001,10,
images/fcloud65-35_D1.7_6.tif,1.7,1,,,,,,,,,0,93,93,65,,,,,,,,,,,,,,,None,None,None,9.776,,,,,,,,,,,,,,,,,,,,,,,,,,,,2019_Jan_23_1734,60.079681522149386,Cloud_Experiment_FR_REAL,001,10,
images/fcloud65-35_D1.2_5.tif,1.2,1,,,,,,,,,0,94,94,49,,,,,,,,,,,,,,,2,space,3,1.369,5.45216453489,,,,,,,,,,,,,,,,,,,,,,,,,,,2019_Jan_23_1734,60.079681522149386,Cloud_Experiment_FR_REAL,001,10,
images/fcloud65-35_D0.9_4.tif,0.9,1,,,,,,,,,0,95,95,39,,,,,,,,,,,,,,,3,space,2,2.018,5.59207253944,,,,,,,,,,,,,,,,,,,,,,,,,,,2019_Jan_23_1734,60.079681522149386,Cloud_Experiment_FR_REAL,001,10,
images/fcloud80-20_D1.2_6.tif,1.2,2,,,,,,,,,0,96,96,86,,,,,,,,,,,,,,,3,space,4,1.785,2.80898250872,,,,,,,,,,,,,,,,,,,,,,,,,,,2019_Jan_23_1734,60.079681522149386,Cloud_Experiment_FR_REAL,001,10,
images/fcloud_D1.6_6.tif,1.6,0,,,,,,,,,0,97,97,26,,,,,,,,,,,,,,,1,space,3,4.599,5.65657780698,,,,,,,,,,,,,,,,,,,,,,,,,,,2019_Jan_23_1734,60.079681522149386,Cloud_Experiment_FR_REAL,001,10,
images/fcloud_D0.8_5.tif,0.8,0,,,,,,,,,0,98,98,1,,,,,,,,,,,,,,,4,space,4,1.185,1.1847290463,,,,,,,,,,,,,,,,,,,,,,,,,,,2019_Jan_23_1734,60.079681522149386,Cloud_Experiment_FR_REAL,001,10,
images/fcloud_D1.4_6.tif,1.4,0,,,,,,,,,0,99,99,20,,,,,,,,,,,,,,,2,space,3,0.903,6.37923749071,,,,,,,,,,,,,,,,,,,,,,,,,,,2019_Jan_23_1734,60.079681522149386,Cloud_Experiment_FR_REAL,001,10,
images/fcloud_D1.8_5.tif,1.8,0,,,,,,,,,0,100,100,31,,,,,,,,,,,,,,,3,space,3,1.885,1.82013700614,,,,,,,,,,,,,,,,,,,,,,,,,,,2019_Jan_23_1734,60.079681522149386,Cloud_Experiment_FR_REAL,001,10,
images/fcloud65-35_D1.9_4.tif,1.9,1,,,,,,,,,0,101,101,69,,,,,,,,,,,,,,,1,None,1,0.653,,,,,,,,,,,,,,,,,,,,,,,,,,,,2019_Jan_23_1734,60.079681522149386,Cloud_Experiment_FR_REAL,001,10,
images/fcloud65-35_D1.6_5.tif,1.6,1,,,,,,,,,0,102,102,61,,,,,,,,,,,,,,,2,space,1,0.502,5.14068422889,,,,,,,,,,,,,,,,,,,,,,,,,,,2019_Jan_23_1734,60.079681522149386,Cloud_Experiment_FR_REAL,001,10,
images/fcloud65-35_D0.9_5.tif,0.9,1,,,,,,,,,0,103,103,40,,,,,,,,,,,,,,,3,space,2,4.316,2.48766831474,,,,,,,,,,,,,,,,,,,,,,,,,,,2019_Jan_23_1734,60.079681522149386,Cloud_Experiment_FR_REAL,001,10,
images/fcloud65-35_D1.1_6.tif,1.1,1,,,,,,,,,0,104,104,47,,,,,,,,,,,,,,,2,space,4,2.683,1.79535900117,,,,,,,,,,,,,,,,,,,,,,,,,,,2019_Jan_23_1734,60.079681522149386,Cloud_Experiment_FR_REAL,001,10,
images/fcloud80-20_D1.9_4.tif,1.9,2,,,,,,,,,0,105,105,105,,,,,,,,,,,,,,,None,None,None,12.359,,,,,,,,,,,,,,,,,,,,,,,,,,,,2019_Jan_23_1734,60.079681522149386,Cloud_Experiment_FR_REAL,001,10,
images/fcloud_D1.1_5.tif,1.1,0,,,,,,,,,0,106,106,10,,,,,,,,,,,,,,,2,space,1,0.652,1.29294345283,,,,,,,,,,,,,,,,,,,,,,,,,,,2019_Jan_23_1734,60.079681522149386,Cloud_Experiment_FR_REAL,001,10,
images/fcloud80-20_D1_4.tif,1.0,2,,,,,,,,,0,107,107,78,,,,,,,,,,,,,,,2,space,2,1.352,3.48328084822,,,,,,,,,,,,,,,,,,,,,,,,,,,2019_Jan_23_1734,60.079681522149386,Cloud_Experiment_FR_REAL,001,10,
,,,,,,,,,,,,,,,,,,,,,,,,,,,,,,,,,,,,space,2.06692081585,,,,,,,,,,,,,,,,,,,,,,,2019_Jan_23_1734,60.079681522149386,Cloud_Experiment_FR_REAL,001,10,
,,,,,,,,,,,,,,,,,,,,,,,,,7,6.67,,,,,,,,,,,,,,,,,,,,,,,,,,,,,,,,,,2019_Jan_23_1734,60.079681522149386,Cloud_Experiment_FR_REAL,001,10,
,,,,,,,,,,,,,,,,,,,,,,,,,,,,,,,,,,,,,,5,8.769,,,,,,,,,,,,,,,,,,,,,2019_Jan_23_1734,60.079681522149386,Cloud_Experiment_FR_REAL,001,10,
,,,,,,,,,,,,,,,,,,,,,,,,,,,,,,,,,,,,,,,,6,7.115,,,,,,,,,,,,,,,,,,,2019_Jan_23_1734,60.079681522149386,Cloud_Experiment_FR_REAL,001,10,
,,,,,,,,,,,,,,,,,,,,,,,,,,,,,,,,,,,,,,,,,,4,4.765,,,,,,,,,,,,,,,,,2019_Jan_23_1734,60.079681522149386,Cloud_Experiment_FR_REAL,001,10,
,,,,,,,,,,,,,,,,,,,,,,,,,,,,,,,,,,,,,,,,,,,,6,8.997,,,,,,,,,,,,,,,2019_Jan_23_1734,60.079681522149386,Cloud_Experiment_FR_REAL,001,10,
,,,,,,,,,,,,,,,,,,,,,,,,,,,,,,,,,,,,,,,,,,,,,,6,7.63,,,,,,,,,,,,,2019_Jan_23_1734,60.079681522149386,Cloud_Experiment_FR_REAL,001,10,
,,,,,,,,,,,,,,,,,,,,,,,,,,,,,,,,,,,,,,,,,,,,,,,,5,6.349,,,,,,,,,,,2019_Jan_23_1734,60.079681522149386,Cloud_Experiment_FR_REAL,001,10,
,,,,,,,,,,,,,,,,,,,,,,,,,,,,,,,,,,,,,,,,,,,,,,,,,,4,14.791,,,,,,,,,2019_Jan_23_1734,60.079681522149386,Cloud_Experiment_FR_REAL,001,10,
,,,,,,,,,,,,,,,,,,,,,,,,,,,,,,,,,,,,,,,,,,,,,,,,,,,,7,3.584,,,,,,,2019_Jan_23_1734,60.079681522149386,Cloud_Experiment_FR_REAL,001,10,
,,,,,,,,,,,,,,,,,,,,,,,,,,,,,,,,,,,,,,,,,,,,,,,,,,,,,,6,2.684,,,,,2019_Jan_23_1734,60.079681522149386,Cloud_Experiment_FR_REAL,001,10,
,,,,,,,,,,,,,,,,,,,,,,,,,,,,,,,,,,,,,,,,,,,,,,,,,,,,,,,,1,2.735,,,2019_Jan_23_1734,60.079681522149386,Cloud_Experiment_FR_REAL,001,10,
,,,,,,,,,,,,,,,,,,,,,,,,,,,,,,,,,,,,,,,,,,,,,,,,,,,,,,,,,,space,432.907532666,2019_Jan_23_1734,60.079681522149386,Cloud_Experiment_FR_REAL,001,10,
images/fcloud65-35_D1.3_9.tif,1.3,1,,,,,,,,,,,,,0,0,0,70,,,,,,,,,,,1,space,1,1.819,5.51112313999,,,,,,,,,,,,,,,,,,,,,,,,,,,2019_Jan_23_1734,60.079681522149386,Cloud_Experiment_FR_REAL,001,10,
images/fcloud80-20_D1_10.tif,1.0,2,,,,,,,,,,,,,0,1,1,107,,,,,,,,,,,2,space,2,1.318,2.55022582473,,,,,,,,,,,,,,,,,,,,,,,,,,,2019_Jan_23_1734,60.079681522149386,Cloud_Experiment_FR_REAL,001,10,
images/fcloud65-35_D1.7_10.tif,1.7,1,,,,,,,,,,,,,0,2,2,87,,,,,,,,,,,1,None,1,1.002,,,,,,,,,,,,,,,,,,,,,,,,,,,,2019_Jan_23_1734,60.079681522149386,Cloud_Experiment_FR_REAL,001,10,
images/fcloud65-35_D1.1_10.tif,1.1,1,,,,,,,,,,,,,0,3,3,63,,,,,,,,,,,None,None,None,12.226,,,,,,,,,,,,,,,,,,,,,,,,,,,,2019_Jan_23_1734,60.079681522149386,Cloud_Experiment_FR_REAL,001,10,
images/fcloud65-35_D1.6_9.tif,1.6,1,,,,,,,,,,,,,0,4,4,82,,,,,,,,,,,None,None,None,21.384,,,,,,,,,,,,,,,,,,,,,,,,,,,,2019_Jan_23_1734,60.079681522149386,Cloud_Experiment_FR_REAL,001,10,
images/fcloud_D1.4_8.tif,1.4,0,,,,,,,,,,,,,0,5,5,25,,,,,,,,,,,2,space,2,1.818,2.797245072,,,,,,,,,,,,,,,,,,,,,,,,,,,2019_Jan_23_1734,60.079681522149386,Cloud_Experiment_FR_REAL,001,10,
images/fcloud80-20_D1.1_9.tif,1.1,2,,,,,,,,,,,,,0,6,6,110,,,,,,,,,,,None,None,None,11.657,,,,,,,,,,,,,,,,,,,,,,,,,,,,2019_Jan_23_1734,60.079681522149386,Cloud_Experiment_FR_REAL,001,10,
images/fcloud65-35_D1_10.tif,1.0,1,,,,,,,,,,,,,0,7,7,59,,,,,,,,,,,1,space,1,0.935,1.53976119022,,,,,,,,,,,,,,,,,,,,,,,,,,,2019_Jan_23_1734,60.079681522149386,Cloud_Experiment_FR_REAL,001,10,
images/fcloud65-35_D1.5_9.tif,1.5,1,,,,,,,,,,,,,0,8,8,78,,,,,,,,,,,3,space,1,1.585,1.92258936088,,,,,,,,,,,,,,,,,,,,,,,,,,,2019_Jan_23_1734,60.079681522149386,Cloud_Experiment_FR_REAL,001,10,
images/fcloud80-20_D1.1_8.tif,1.1,2,,,,,,,,,,,,,0,9,9,109,,,,,,,,,,,1,space,1,1.219,7.90964080865,,,,,,,,,,,,,,,,,,,,,,,,,,,2019_Jan_23_1734,60.079681522149386,Cloud_Experiment_FR_REAL,001,10,
images/fcloud_D1.6_8.tif,1.6,0,,,,,,,,,,,,,0,10,10,33,,,,,,,,,,,1,space,1,1.635,3.03776870982,,,,,,,,,,,,,,,,,,,,,,,,,,,2019_Jan_23_1734,60.079681522149386,Cloud_Experiment_FR_REAL,001,10,
images/fcloud65-35_D0.8_10.tif,0.8,1,,,,,,,,,,,,,0,11,11,51,,,,,,,,,,,1,space,1,0.769,6.10853620546,,,,,,,,,,,,,,,,,,,,,,,,,,,2019_Jan_23_1734,60.079681522149386,Cloud_Experiment_FR_REAL,001,10,
images/fcloud65-35_D1.2_10.tif,1.2,1,,,,,,,,,,,,,0,12,12,67,,,,,,,,,,,2,space,3,2.135,2.8912304132,,,,,,,,,,,,,,,,,,,,,,,,,,,2019_Jan_23_1734,60.079681522149386,Cloud_Experiment_FR_REAL,001,10,
images/fcloud_D1.6_7.tif,1.6,0,,,,,,,,,,,,,0,13,13,32,,,,,,,,,,,1,space,1,1.435,7.27960884463,,,,,,,,,,,,,,,,,,,,,,,,,,,2019_Jan_23_1734,60.079681522149386,Cloud_Experiment_FR_REAL,001,10,
images/fcloud80-20_D1_7.tif,1.0,2,,,,,,,,,,,,,0,14,14,104,,,,,,,,,,,2,space,2,1.167,5.55212474696,,,,,,,,,,,,,,,,,,,,,,,,,,,2019_Jan_23_1734,60.079681522149386,Cloud_Experiment_FR_REAL,001,10,
images/fcloud_D0.8_8.tif,0.8,0,,,,,,,,,,,,,0,15,15,1,,,,,,,,,,,3,space,2,2.334,3.21470312763,,,,,,,,,,,,,,,,,,,,,,,,,,,2019_Jan_23_1734,60.079681522149386,Cloud_Experiment_FR_REAL,001,10,
images/fcloud_D1_10.tif,1.0,0,,,,,,,,,,,,,0,16,16,11,,,,,,,,,,,3,space,3,1.135,1.55915908693,,,,,,,,,,,,,,,,,,,,,,,,,,,2019_Jan_23_1734,60.079681522149386,Cloud_Experiment_FR_REAL,001,10,
images/fcloud80-20_D1.2_7.tif,1.2,2,,,,,,,,,,,,,0,17,17,112,,,,,,,,,,,1,None,1,0.669,,,,,,,,,,,,,,,,,,,,,,,,,,,,2019_Jan_23_1734,60.079681522149386,Cloud_Experiment_FR_REAL,001,10,
images/fcloud80-20_D1.8_7.tif,1.8,2,,,,,,,,,,,,,0,18,18,136,,,,,,,,,,,None,None,None,10.012,,,,,,,,,,,,,,,,,,,,,,,,,,,,2019_Jan_23_1734,60.079681522149386,Cloud_Experiment_FR_REAL,001,10,
images/fcloud_D0.8_10.tif,0.8,0,,,,,,,,,,,,,0,19,19,3,,,,,,,,,,,2,space,2,1.436,3.98542034859,,,,,,,,,,,,,,,,,,,,,,,,,,,2019_Jan_23_1734,60.079681522149386,Cloud_Experiment_FR_REAL,001,10,
images/fcloud80-20_D1.6_9.tif,1.6,2,,,,,,,,,,,,,0,20,20,130,,,,,,,,,,,None,None,None,13.59,,,,,,,,,,,,,,,,,,,,,,,,,,,,2019_Jan_23_1734,60.079681522149386,Cloud_Experiment_FR_REAL,001,10,
images/fcloud80-20_D1.7_9.tif,1.7,2,,,,,,,,,,,,,0,21,21,134,,,,,,,,,,,1,space,2,1.667,2.25287948374,,,,,,,,,,,,,,,,,,,,,,,,,,,2019_Jan_23_1734,60.079681522149386,Cloud_Experiment_FR_REAL,001,10,
images/fcloud65-35_D1.1_7.tif,1.1,1,,,,,,,,,,,,,0,22,22,60,,,,,,,,,,,1,space,1,0.786,5.83974875006,,,,,,,,,,,,,,,,,,,,,,,,,,,2019_Jan_23_1734,60.079681522149386,Cloud_Experiment_FR_REAL,001,10,
images/fcloud65-35_D1.1_9.tif,1.1,1,,,,,,,,,,,,,0,23,23,62,,,,,,,,,,,1,space,1,0.852,6.69091056765,,,,,,,,,,,,,,,,,,,,,,,,,,,2019_Jan_23_1734,60.079681522149386,Cloud_Experiment_FR_REAL,001,10,
images/fcloud80-20_D1.5_10.tif,1.5,2,,,,,,,,,,,,,0,24,24,127,,,,,,,,,,,None,None,None,10.46,,,,,,,,,,,,,,,,,,,,,,,,,,,,2019_Jan_23_1734,60.079681522149386,Cloud_Experiment_FR_REAL,001,10,
images/fcloud80-20_D1.4_10.tif,1.4,2,,,,,,,,,,,,,0,25,25,123,,,,,,,,,,,1,space,1,2.451,6.78550712121,,,,,,,,,,,,,,,,,,,,,,,,,,,2019_Jan_23_1734,60.079681522149386,Cloud_Experiment_FR_REAL,001,10,
images/fcloud65-35_D1.3_7.tif,1.3,1,,,,,,,,,,,,,0,26,26,68,,,,,,,,,,,None,None,None,11.909,,,,,,,,,,,,,,,,,,,,,,,,,,,,2019_Jan_23_1734,60.079681522149386,Cloud_Experiment_FR_REAL,001,10,
images/fcloud_D1.4_7.tif,1.4,0,,,,,,,,,,,,,0,27,27,24,,,,,,,,,,,2,space,1,1.036,2.2106497974,,,,,,,,,,,,,,,,,,,,,,,,,,,2019_Jan_23_1734,60.079681522149386,Cloud_Experiment_FR_REAL,001,10,
images/fcloud_D1.4_10.tif,1.4,0,,,,,,,,,,,,,0,28,28,27,,,,,,,,,,,3,space,3,1.302,2.36143830765,,,,,,,,,,,,,,,,,,,,,,,,,,,2019_Jan_23_1734,60.079681522149386,Cloud_Experiment_FR_REAL,001,10,
images/fcloud_D1.8_10.tif,1.8,0,,,,,,,,,,,,,0,29,29,43,,,,,,,,,,,None,None,None,10.575,,,,,,,,,,,,,,,,,,,,,,,,,,,,2019_Jan_23_1734,60.079681522149386,Cloud_Experiment_FR_REAL,001,10,
images/fcloud80-20_D1.1_10.tif,1.1,2,,,,,,,,,,,,,0,30,30,111,,,,,,,,,,,1,space,3,2.051,6.85233849136,,,,,,,,,,,,,,,,,,,,,,,,,,,2019_Jan_23_1734,60.079681522149386,Cloud_Experiment_FR_REAL,001,10,
images/fcloud_D1.7_7.tif,1.7,0,,,,,,,,,,,,,0,31,31,36,,,,,,,,,,,1,space,1,0.819,6.85710635918,,,,,,,,,,,,,,,,,,,,,,,,,,,2019_Jan_23_1734,60.079681522149386,Cloud_Experiment_FR_REAL,001,10,
images/fcloud80-20_D0.8_7.tif,0.8,2,,,,,,,,,,,,,0,32,32,96,,,,,,,,,,,2,None,4,0.986,,,,,,,,,,,,,,,,,,,,,,,,,,,,2019_Jan_23_1734,60.079681522149386,Cloud_Experiment_FR_REAL,001,10,
images/fcloud_D0.8_7.tif,0.8,0,,,,,,,,,,,,,0,33,33,0,,,,,,,,,,,3,space,3,0.836,3.4667919935,,,,,,,,,,,,,,,,,,,,,,,,,,,2019_Jan_23_1734,60.079681522149386,Cloud_Experiment_FR_REAL,001,10,
images/fcloud_D1.1_9.tif,1.1,0,,,,,,,,,,,,,0,34,34,14,,,,,,,,,,,2,space,3,1.085,2.60632113891,,,,,,,,,,,,,,,,,,,,,,,,,,,2019_Jan_23_1734,60.079681522149386,Cloud_Experiment_FR_REAL,001,10,
images/fcloud_D0.8_9.tif,0.8,0,,,,,,,,,,,,,0,35,35,2,,,,,,,,,,,3,space,3,0.901,5.37237176107,,,,,,,,,,,,,,,,,,,,,,,,,,,2019_Jan_23_1734,60.079681522149386,Cloud_Experiment_FR_REAL,001,10,
images/fcloud80-20_D0.9_9.tif,0.9,2,,,,,,,,,,,,,0,36,36,102,,,,,,,,,,,1,space,1,0.569,3.718564715,,,,,,,,,,,,,,,,,,,,,,,,,,,2019_Jan_23_1734,60.079681522149386,Cloud_Experiment_FR_REAL,001,10,
images/fcloud65-35_D1.7_7.tif,1.7,1,,,,,,,,,,,,,0,37,37,84,,,,,,,,,,,None,space,None,10.525,7.70698200905,,,,,,,,,,,,,,,,,,,,,,,,,,,2019_Jan_23_1734,60.079681522149386,Cloud_Experiment_FR_REAL,001,10,
images/fcloud_D0.9_7.tif,0.9,0,,,,,,,,,,,,,0,38,38,4,,,,,,,,,,,3,space,3,6.995,1.73921228139,,,,,,,,,,,,,,,,,,,,,,,,,,,2019_Jan_23_1734,60.079681522149386,Cloud_Experiment_FR_REAL,001,10,
images/fcloud_D1.2_7.tif,1.2,0,,,,,,,,,,,,,0,39,39,16,,,,,,,,,,,2,space,3,1.186,3.9904210837,,,,,,,,,,,,,,,,,,,,,,,,,,,2019_Jan_23_1734,60.079681522149386,Cloud_Experiment_FR_REAL,001,10,
images/fcloud65-35_D0.8_8.tif,0.8,1,,,,,,,,,,,,,0,40,40,49,,,,,,,,,,,2,space,2,1.453,3.08095608215,,,,,,,,,,,,,,,,,,,,,,,,,,,2019_Jan_23_1734,60.079681522149386,Cloud_Experiment_FR_REAL,001,10,
images/fcloud80-20_D1.5_7.tif,1.5,2,,,,,,,,,,,,,0,41,41,124,,,,,,,,,,,None,None,None,10.659,,,,,,,,,,,,,,,,,,,,,,,,,,,,2019_Jan_23_1734,60.079681522149386,Cloud_Experiment_FR_REAL,001,10,
images/fcloud_D1.1_10.tif,1.1,0,,,,,,,,,,,,,0,42,42,15,,,,,,,,,,,3,space,3,0.854,1.92883154083,,,,,,,,,,,,,,,,,,,,,,,,,,,2019_Jan_23_1734,60.079681522149386,Cloud_Experiment_FR_REAL,001,10,
images/fcloud65-35_D1.7_9.tif,1.7,1,,,,,,,,,,,,,0,43,43,86,,,,,,,,,,,None,None,None,9.926,,,,,,,,,,,,,,,,,,,,,,,,,,,,2019_Jan_23_1734,60.079681522149386,Cloud_Experiment_FR_REAL,001,10,
images/fcloud80-20_D0.8_9.tif,0.8,2,,,,,,,,,,,,,0,44,44,98,,,,,,,,,,,None,None,None,19.768,,,,,,,,,,,,,,,,,,,,,,,,,,,,2019_Jan_23_1734,60.079681522149386,Cloud_Experiment_FR_REAL,001,10,
images/fcloud_D1.3_10.tif,1.3,0,,,,,,,,,,,,,0,45,45,23,,,,,,,,,,,3,space,4,2.117,2.45857635321,,,,,,,,,,,,,,,,,,,,,,,,,,,2019_Jan_23_1734,60.079681522149386,Cloud_Experiment_FR_REAL,001,10,
images/fcloud_D1_8.tif,1.0,0,,,,,,,,,,,,,0,46,46,9,,,,,,,,,,,3,space,3,1.102,2.67964297795,,,,,,,,,,,,,,,,,,,,,,,,,,,2019_Jan_23_1734,60.079681522149386,Cloud_Experiment_FR_REAL,001,10,
images/fcloud80-20_D0.9_8.tif,0.9,2,,,,,,,,,,,,,0,47,47,101,,,,,,,,,,,2,space,1,0.836,7.88471012906,,,,,,,,,,,,,,,,,,,,,,,,,,,2019_Jan_23_1734,60.079681522149386,Cloud_Experiment_FR_REAL,001,10,
images/fcloud80-20_D0.8_10.tif,0.8,2,,,,,,,,,,,,,0,48,48,99,,,,,,,,,,,None,None,None,9.641,,,,,,,,,,,,,,,,,,,,,,,,,,,,2019_Jan_23_1734,60.079681522149386,Cloud_Experiment_FR_REAL,001,10,
images/fcloud65-35_D1.5_7.tif,1.5,1,,,,,,,,,,,,,0,49,49,76,,,,,,,,,,,2,space,1,0.702,2.44819448172,,,,,,,,,,,,,,,,,,,,,,,,,,,2019_Jan_23_1734,60.079681522149386,Cloud_Experiment_FR_REAL,001,10,
images/fcloud_D0.9_9.tif,0.9,0,,,,,,,,,,,,,0,50,50,6,,,,,,,,,,,3,space,2,1.552,2.01715250083,,,,,,,,,,,,,,,,,,,,,,,,,,,2019_Jan_23_1734,60.079681522149386,Cloud_Experiment_FR_REAL,001,10,
images/fcloud65-35_D1.8_10.tif,1.8,1,,,,,,,,,,,,,0,51,51,91,,,,,,,,,,,2,space,3,1.385,5.71706110169,,,,,,,,,,,,,,,,,,,,,,,,,,,2019_Jan_23_1734,60.079681522149386,Cloud_Experiment_FR_REAL,001,10,
images/fcloud80-20_D1.1_7.tif,1.1,2,,,,,,,,,,,,,0,52,52,108,,,,,,,,,,,1,None,2,2.102,,,,,,,,,,,,,,,,,,,,,,,,,,,,2019_Jan_23_1734,60.079681522149386,Cloud_Experiment_FR_REAL,001,10,
images/fcloud65-35_D0.9_9.tif,0.9,1,,,,,,,,,,,,,0,53,53,54,,,,,,,,,,,2,space,2,0.652,4.16826743653,,,,,,,,,,,,,,,,,,,,,,,,,,,2019_Jan_23_1734,60.079681522149386,Cloud_Experiment_FR_REAL,001,10,
images/fcloud80-20_D1.4_7.tif,1.4,2,,,,,,,,,,,,,0,54,54,120,,,,,,,,,,,1,space,2,1.252,5.34011321567,,,,,,,,,,,,,,,,,,,,,,,,,,,2019_Jan_23_1734,60.079681522149386,Cloud_Experiment_FR_REAL,001,10,
images/fcloud80-20_D1.2_10.tif,1.2,2,,,,,,,,,,,,,0,55,55,115,,,,,,,,,,,None,None,None,10.141,,,,,,,,,,,,,,,,,,,,,,,,,,,,2019_Jan_23_1734,60.079681522149386,Cloud_Experiment_FR_REAL,001,10,
images/fcloud65-35_D1_9.tif,1.0,1,,,,,,,,,,,,,0,56,56,58,,,,,,,,,,,1,space,3,1.868,1.84168982488,,,,,,,,,,,,,,,,,,,,,,,,,,,2019_Jan_23_1734,60.079681522149386,Cloud_Experiment_FR_REAL,001,10,
images/fcloud80-20_D1_9.tif,1.0,2,,,,,,,,,,,,,0,57,57,106,,,,,,,,,,,3,space,2,0.852,2.22240214175,,,,,,,,,,,,,,,,,,,,,,,,,,,2019_Jan_23_1734,60.079681522149386,Cloud_Experiment_FR_REAL,001,10,
images/fcloud80-20_D1.8_9.tif,1.8,2,,,,,,,,,,,,,0,58,58,138,,,,,,,,,,,1,space,2,1.152,7.64883304187,,,,,,,,,,,,,,,,,,,,,,,,,,,2019_Jan_23_1734,60.079681522149386,Cloud_Experiment_FR_REAL,001,10,
images/fcloud65-35_D1_7.tif,1.0,1,,,,,,,,,,,,,0,59,59,56,,,,,,,,,,,1,space,1,0.603,3.96285895232,,,,,,,,,,,,,,,,,,,,,,,,,,,2019_Jan_23_1734,60.079681522149386,Cloud_Experiment_FR_REAL,001,10,
images/fcloud_D1.5_9.tif,1.5,0,,,,,,,,,,,,,0,60,60,30,,,,,,,,,,,2,space,2,0.97,2.04698624491,,,,,,,,,,,,,,,,,,,,,,,,,,,2019_Jan_23_1734,60.079681522149386,Cloud_Experiment_FR_REAL,001,10,
images/fcloud_D0.9_8.tif,0.9,0,,,,,,,,,,,,,0,61,61,5,,,,,,,,,,,2,space,3,1.169,1.14083793157,,,,,,,,,,,,,,,,,,,,,,,,,,,2019_Jan_23_1734,60.079681522149386,Cloud_Experiment_FR_REAL,001,10,
images/fcloud_D1.3_7.tif,1.3,0,,,,,,,,,,,,,0,62,62,20,,,,,,,,,,,3,space,4,0.886,1.73408663075,,,,,,,,,,,,,,,,,,,,,,,,,,,2019_Jan_23_1734,60.079681522149386,Cloud_Experiment_FR_REAL,001,10,
images/fcloud_D1.7_10.tif,1.7,0,,,,,,,,,,,,,0,63,63,39,,,,,,,,,,,1,space,3,0.969,3.07830715246,,,,,,,,,,,,,,,,,,,,,,,,,,,2019_Jan_23_1734,60.079681522149386,Cloud_Experiment_FR_REAL,001,10,
images/fcloud80-20_D1.8_8.tif,1.8,2,,,,,,,,,,,,,0,64,64,137,,,,,,,,,,,2,space,1,0.636,7.2290447712,,,,,,,,,,,,,,,,,,,,,,,,,,,2019_Jan_23_1734,60.079681522149386,Cloud_Experiment_FR_REAL,001,10,
images/fcloud80-20_D1.7_10.tif,1.7,2,,,,,,,,,,,,,0,65,65,135,,,,,,,,,,,1,space,1,1.652,4.77343452009,,,,,,,,,,,,,,,,,,,,,,,,,,,2019_Jan_23_1734,60.079681522149386,Cloud_Experiment_FR_REAL,001,10,
images/fcloud65-35_D1.9_7.tif,1.9,1,,,,,,,,,,,,,0,66,66,92,,,,,,,,,,,2,space,4,1.487,1.60959310425,,,,,,,,,,,,,,,,,,,,,,,,,,,2019_Jan_23_1734,60.079681522149386,Cloud_Experiment_FR_REAL,001,10,
images/fcloud65-35_D1.5_8.tif,1.5,1,,,,,,,,,,,,,0,67,67,77,,,,,,,,,,,1,space,1,1.135,7.51509576346,,,,,,,,,,,,,,,,,,,,,,,,,,,2019_Jan_23_1734,60.079681522149386,Cloud_Experiment_FR_REAL,001,10,
images/fcloud80-20_D1.2_9.tif,1.2,2,,,,,,,,,,,,,0,68,68,114,,,,,,,,,,,None,None,None,10.477,,,,,,,,,,,,,,,,,,,,,,,,,,,,2019_Jan_23_1734,60.079681522149386,Cloud_Experiment_FR_REAL,001,10,
images/fcloud_D1_7.tif,1.0,0,,,,,,,,,,,,,0,69,69,8,,,,,,,,,,,3,space,2,1.185,1.58130718229,,,,,,,,,,,,,,,,,,,,,,,,,,,2019_Jan_23_1734,60.079681522149386,Cloud_Experiment_FR_REAL,001,10,
images/fcloud80-20_D1.4_8.tif,1.4,2,,,,,,,,,,,,,0,70,70,121,,,,,,,,,,,1,space,3,1.102,2.42953168484,,,,,,,,,,,,,,,,,,,,,,,,,,,2019_Jan_23_1734,60.079681522149386,Cloud_Experiment_FR_REAL,001,10,
images/fcloud65-35_D1.8_9.tif,1.8,1,,,,,,,,,,,,,0,71,71,90,,,,,,,,,,,1,space,1,0.836,7.59643327503,,,,,,,,,,,,,,,,,,,,,,,,,,,2019_Jan_23_1734,60.079681522149386,Cloud_Experiment_FR_REAL,001,10,
images/fcloud_D1.8_7.tif,1.8,0,,,,,,,,,,,,,0,72,72,40,,,,,,,,,,,None,space,None,9.643,5.21087701007,,,,,,,,,,,,,,,,,,,,,,,,,,,2019_Jan_23_1734,60.079681522149386,Cloud_Experiment_FR_REAL,001,10,
images/fcloud65-35_D0.9_8.tif,0.9,1,,,,,,,,,,,,,0,73,73,53,,,,,,,,,,,2,space,2,1.435,2.39739445664,,,,,,,,,,,,,,,,,,,,,,,,,,,2019_Jan_23_1734,60.079681522149386,Cloud_Experiment_FR_REAL,001,10,
images/fcloud80-20_D1.7_7.tif,1.7,2,,,,,,,,,,,,,0,74,74,132,,,,,,,,,,,None,None,None,12.076,,,,,,,,,,,,,,,,,,,,,,,,,,,,2019_Jan_23_1734,60.079681522149386,Cloud_Experiment_FR_REAL,001,10,
images/fcloud80-20_D1.7_8.tif,1.7,2,,,,,,,,,,,,,0,75,75,133,,,,,,,,,,,1,space,3,3.849,7.15721986271,,,,,,,,,,,,,,,,,,,,,,,,,,,2019_Jan_23_1734,60.079681522149386,Cloud_Experiment_FR_REAL,001,10,
images/fcloud65-35_D1.2_9.tif,1.2,1,,,,,,,,,,,,,0,76,76,66,,,,,,,,,,,1,space,1,0.952,5.93959586986,,,,,,,,,,,,,,,,,,,,,,,,,,,2019_Jan_23_1734,60.079681522149386,Cloud_Experiment_FR_REAL,001,10,
images/fcloud65-35_D1.8_7.tif,1.8,1,,,,,,,,,,,,,0,77,77,88,,,,,,,,,,,1,space,1,0.785,2.42358508703,,,,,,,,,,,,,,,,,,,,,,,,,,,2019_Jan_23_1734,60.079681522149386,Cloud_Experiment_FR_REAL,001,10,
images/fcloud80-20_D0.9_7.tif,0.9,2,,,,,,,,,,,,,0,78,78,100,,,,,,,,,,,2,space,1,1.368,2.60359150247,,,,,,,,,,,,,,,,,,,,,,,,,,,2019_Jan_23_1734,60.079681522149386,Cloud_Experiment_FR_REAL,001,10,
images/fcloud80-20_D1.9_10.tif,1.9,2,,,,,,,,,,,,,0,79,79,143,,,,,,,,,,,2,space,1,0.803,1.73578455715,,,,,,,,,,,,,,,,,,,,,,,,,,,2019_Jan_23_1734,60.079681522149386,Cloud_Experiment_FR_REAL,001,10,
images/fcloud80-20_D1.4_9.tif,1.4,2,,,,,,,,,,,,,0,80,80,122,,,,,,,,,,,None,None,None,10.275,,,,,,,,,,,,,,,,,,,,,,,,,,,,2019_Jan_23_1734,60.079681522149386,Cloud_Experiment_FR_REAL,001,10,
images/fcloud65-35_D1.9_10.tif,1.9,1,,,,,,,,,,,,,0,81,81,95,,,,,,,,,,,1,space,1,0.653,2.63507228138,,,,,,,,,,,,,,,,,,,,,,,,,,,2019_Jan_23_1734,60.079681522149386,Cloud_Experiment_FR_REAL,001,10,
images/fcloud65-35_D1.4_10.tif,1.4,1,,,,,,,,,,,,,0,82,82,75,,,,,,,,,,,1,space,4,1.219,2.57343184698,,,,,,,,,,,,,,,,,,,,,,,,,,,2019_Jan_23_1734,60.079681522149386,Cloud_Experiment_FR_REAL,001,10,
images/fcloud65-35_D1.4_9.tif,1.4,1,,,,,,,,,,,,,0,83,83,74,,,,,,,,,,,None,None,None,10.393,,,,,,,,,,,,,,,,,,,,,,,,,,,,2019_Jan_23_1734,60.079681522149386,Cloud_Experiment_FR_REAL,001,10,
images/fcloud80-20_D1.5_9.tif,1.5,2,,,,,,,,,,,,,0,84,84,126,,,,,,,,,,,1,space,2,0.851,5.66329548854,,,,,,,,,,,,,,,,,,,,,,,,,,,2019_Jan_23_1734,60.079681522149386,Cloud_Experiment_FR_REAL,001,10,
images/fcloud_D1.7_9.tif,1.7,0,,,,,,,,,,,,,0,85,85,38,,,,,,,,,,,2,space,2,0.769,4.96850945399,,,,,,,,,,,,,,,,,,,,,,,,,,,2019_Jan_23_1734,60.079681522149386,Cloud_Experiment_FR_REAL,001,10,
images/fcloud80-20_D1.8_10.tif,1.8,2,,,,,,,,,,,,,0,86,86,139,,,,,,,,,,,1,space,3,5.648,1.07707958715,,,,,,,,,,,,,,,,,,,,,,,,,,,2019_Jan_23_1734,60.079681522149386,Cloud_Experiment_FR_REAL,001,10,
images/fcloud80-20_D1.6_10.tif,1.6,2,,,,,,,,,,,,,0,87,87,131,,,,,,,,,,,1,space,2,1.635,2.83080931922,,,,,,,,,,,,,,,,,,,,,,,,,,,2019_Jan_23_1734,60.079681522149386,Cloud_Experiment_FR_REAL,001,10,
images/fcloud_D1.9_10.tif,1.9,0,,,,,,,,,,,,,0,88,88,47,,,,,,,,,,,2,space,3,1.086,1.12041860595,,,,,,,,,,,,,,,,,,,,,,,,,,,2019_Jan_23_1734,60.079681522149386,Cloud_Experiment_FR_REAL,001,10,
images/fcloud65-35_D1.3_10.tif,1.3,1,,,,,,,,,,,,,0,89,89,71,,,,,,,,,,,1,space,3,0.852,4.04948095782,,,,,,,,,,,,,,,,,,,,,,,,,,,2019_Jan_23_1734,60.079681522149386,Cloud_Experiment_FR_REAL,001,10,
images/fcloud65-35_D0.9_10.tif,0.9,1,,,,,,,,,,,,,0,90,90,55,,,,,,,,,,,3,space,2,1.069,2.22907150208,,,,,,,,,,,,,,,,,,,,,,,,,,,2019_Jan_23_1734,60.079681522149386,Cloud_Experiment_FR_REAL,001,10,
images/fcloud65-35_D1.6_7.tif,1.6,1,,,,,,,,,,,,,0,91,91,80,,,,,,,,,,,1,space,2,1.001,4.29364616715,,,,,,,,,,,,,,,,,,,,,,,,,,,2019_Jan_23_1734,60.079681522149386,Cloud_Experiment_FR_REAL,001,10,
images/fcloud65-35_D1.9_9.tif,1.9,1,,,,,,,,,,,,,0,92,92,94,,,,,,,,,,,2,space,1,0.588,3.12516488341,,,,,,,,,,,,,,,,,,,,,,,,,,,2019_Jan_23_1734,60.079681522149386,Cloud_Experiment_FR_REAL,001,10,
images/fcloud65-35_D1.1_8.tif,1.1,1,,,,,,,,,,,,,0,93,93,61,,,,,,,,,,,1,space,3,0.919,2.67657046625,,,,,,,,,,,,,,,,,,,,,,,,,,,2019_Jan_23_1734,60.079681522149386,Cloud_Experiment_FR_REAL,001,10,
images/fcloud_D1.1_7.tif,1.1,0,,,,,,,,,,,,,0,94,94,12,,,,,,,,,,,4,space,4,2.101,2.15169684688,,,,,,,,,,,,,,,,,,,,,,,,,,,2019_Jan_23_1734,60.079681522149386,Cloud_Experiment_FR_REAL,001,10,
images/fcloud80-20_D0.9_10.tif,0.9,2,,,,,,,,,,,,,0,95,95,103,,,,,,,,,,,1,space,1,1.402,6.85700303395,,,,,,,,,,,,,,,,,,,,,,,,,,,2019_Jan_23_1734,60.079681522149386,Cloud_Experiment_FR_REAL,001,10,
images/fcloud65-35_D1.3_8.tif,1.3,1,,,,,,,,,,,,,0,96,96,69,,,,,,,,,,,1,space,2,0.818,6.01995153481,,,,,,,,,,,,,,,,,,,,,,,,,,,2019_Jan_23_1734,60.079681522149386,Cloud_Experiment_FR_REAL,001,10,
images/fcloud_D1.6_9.tif,1.6,0,,,,,,,,,,,,,0,97,97,34,,,,,,,,,,,2,space,1,0.868,3.71312703245,,,,,,,,,,,,,,,,,,,,,,,,,,,2019_Jan_23_1734,60.079681522149386,Cloud_Experiment_FR_REAL,001,10,
images/fcloud65-35_D1.5_10.tif,1.5,1,,,,,,,,,,,,,0,98,98,79,,,,,,,,,,,None,None,None,10.26,,,,,,,,,,,,,,,,,,,,,,,,,,,,2019_Jan_23_1734,60.079681522149386,Cloud_Experiment_FR_REAL,001,10,
images/fcloud65-35_D1.9_8.tif,1.9,1,,,,,,,,,,,,,0,99,99,93,,,,,,,,,,,None,None,None,18.703,,,,,,,,,,,,,,,,,,,,,,,,,,,,2019_Jan_23_1734,60.079681522149386,Cloud_Experiment_FR_REAL,001,10,
images/fcloud80-20_D1.5_8.tif,1.5,2,,,,,,,,,,,,,0,100,100,125,,,,,,,,,,,4,space,4,1.401,2.68387160121,,,,,,,,,,,,,,,,,,,,,,,,,,,2019_Jan_23_1734,60.079681522149386,Cloud_Experiment_FR_REAL,001,10,
images/fcloud_D1.1_8.tif,1.1,0,,,,,,,,,,,,,0,101,101,13,,,,,,,,,,,2,space,4,1.569,4.1505515305,,,,,,,,,,,,,,,,,,,,,,,,,,,2019_Jan_23_1734,60.079681522149386,Cloud_Experiment_FR_REAL,001,10,
images/fcloud_D1.3_9.tif,1.3,0,,,,,,,,,,,,,0,102,102,22,,,,,,,,,,,2,space,2,1.735,2.30096632213,,,,,,,,,,,,,,,,,,,,,,,,,,,2019_Jan_23_1734,60.079681522149386,Cloud_Experiment_FR_REAL,001,10,
images/fcloud80-20_D1.9_7.tif,1.9,2,,,,,,,,,,,,,0,103,103,140,,,,,,,,,,,None,None,None,10.943,,,,,,,,,,,,,,,,,,,,,,,,,,,,2019_Jan_23_1734,60.079681522149386,Cloud_Experiment_FR_REAL,001,10,
images/fcloud_D1.6_10.tif,1.6,0,,,,,,,,,,,,,0,104,104,35,,,,,,,,,,,3,space,2,3.166,5.79120337387,,,,,,,,,,,,,,,,,,,,,,,,,,,2019_Jan_23_1734,60.079681522149386,Cloud_Experiment_FR_REAL,001,10,
images/fcloud_D1.5_10.tif,1.5,0,,,,,,,,,,,,,0,105,105,31,,,,,,,,,,,4,space,4,0.952,1.04713172271,,,,,,,,,,,,,,,,,,,,,,,,,,,2019_Jan_23_1734,60.079681522149386,Cloud_Experiment_FR_REAL,001,10,
images/fcloud80-20_D1.3_10.tif,1.3,2,,,,,,,,,,,,,0,106,106,119,,,,,,,,,,,None,None,None,10.027,,,,,,,,,,,,,,,,,,,,,,,,,,,,2019_Jan_23_1734,60.079681522149386,Cloud_Experiment_FR_REAL,001,10,
images/fcloud65-35_D1.6_8.tif,1.6,1,,,,,,,,,,,,,0,107,107,81,,,,,,,,,,,2,space,1,1.468,1.8902398276,,,,,,,,,,,,,,,,,,,,,,,,,,,2019_Jan_23_1734,60.079681522149386,Cloud_Experiment_FR_REAL,001,10,
images/fcloud_D1.3_8.tif,1.3,0,,,,,,,,,,,,,0,108,108,21,,,,,,,,,,,3,space,3,2.003,1.35125846008,,,,,,,,,,,,,,,,,,,,,,,,,,,2019_Jan_23_1734,60.079681522149386,Cloud_Experiment_FR_REAL,001,10,
images/fcloud80-20_D0.8_8.tif,0.8,2,,,,,,,,,,,,,0,109,109,97,,,,,,,,,,,1,space,2,1.517,6.01123314796,,,,,,,,,,,,,,,,,,,,,,,,,,,2019_Jan_23_1734,60.079681522149386,Cloud_Experiment_FR_REAL,001,10,
images/fcloud_D1.5_8.tif,1.5,0,,,,,,,,,,,,,0,110,110,29,,,,,,,,,,,2,space,3,0.769,1.26349730685,,,,,,,,,,,,,,,,,,,,,,,,,,,2019_Jan_23_1734,60.079681522149386,Cloud_Experiment_FR_REAL,001,10,
images/fcloud_D1_9.tif,1.0,0,,,,,,,,,,,,,0,111,111,10,,,,,,,,,,,4,space,4,1.069,2.07227008083,,,,,,,,,,,,,,,,,,,,,,,,,,,2019_Jan_23_1734,60.079681522149386,Cloud_Experiment_FR_REAL,001,10,
images/fcloud65-35_D1.8_8.tif,1.8,1,,,,,,,,,,,,,0,112,112,89,,,,,,,,,,,1,None,1,0.67,,,,,,,,,,,,,,,,,,,,,,,,,,,,2019_Jan_23_1734,60.079681522149386,Cloud_Experiment_FR_REAL,001,10,
images/fcloud_D1.2_9.tif,1.2,0,,,,,,,,,,,,,0,113,113,18,,,,,,,,,,,1,space,1,0.604,7.01645955356,,,,,,,,,,,,,,,,,,,,,,,,,,,2019_Jan_23_1734,60.079681522149386,Cloud_Experiment_FR_REAL,001,10,
images/fcloud_D0.9_10.tif,0.9,0,,,,,,,,,,,,,0,114,114,7,,,,,,,,,,,2,space,3,2.67,2.41859514712,,,,,,,,,,,,,,,,,,,,,,,,,,,2019_Jan_23_1734,60.079681522149386,Cloud_Experiment_FR_REAL,001,10,
images/fcloud65-35_D0.8_7.tif,0.8,1,,,,,,,,,,,,,0,115,115,48,,,,,,,,,,,2,space,1,1.153,2.73605700672,,,,,,,,,,,,,,,,,,,,,,,,,,,2019_Jan_23_1734,60.079681522149386,Cloud_Experiment_FR_REAL,001,10,
images/fcloud80-20_D1.6_7.tif,1.6,2,,,,,,,,,,,,,0,116,116,128,,,,,,,,,,,3,space,1,0.619,2.4047788686,,,,,,,,,,,,,,,,,,,,,,,,,,,2019_Jan_23_1734,60.079681522149386,Cloud_Experiment_FR_REAL,001,10,
images/fcloud65-35_D1.2_7.tif,1.2,1,,,,,,,,,,,,,0,117,117,64,,,,,,,,,,,2,space,3,0.935,5.85983959402,,,,,,,,,,,,,,,,,,,,,,,,,,,2019_Jan_23_1734,60.079681522149386,Cloud_Experiment_FR_REAL,001,10,
images/fcloud_D1.9_7.tif,1.9,0,,,,,,,,,,,,,0,118,118,44,,,,,,,,,,,1,space,2,0.752,4.62412649064,,,,,,,,,,,,,,,,,,,,,,,,,,,2019_Jan_23_1734,60.079681522149386,Cloud_Experiment_FR_REAL,001,10,
images/fcloud80-20_D1.2_8.tif,1.2,2,,,,,,,,,,,,,0,119,119,113,,,,,,,,,,,1,space,2,1.617,7.48115985389,,,,,,,,,,,,,,,,,,,,,,,,,,,2019_Jan_23_1734,60.079681522149386,Cloud_Experiment_FR_REAL,001,10,
images/fcloud80-20_D1_8.tif,1.0,2,,,,,,,,,,,,,0,120,120,105,,,,,,,,,,,1,space,1,0.685,7.50556979488,,,,,,,,,,,,,,,,,,,,,,,,,,,2019_Jan_23_1734,60.079681522149386,Cloud_Experiment_FR_REAL,001,10,
images/fcloud65-35_D0.9_7.tif,0.9,1,,,,,,,,,,,,,0,121,121,52,,,,,,,,,,,2,space,2,2.835,1.78284893854,,,,,,,,,,,,,,,,,,,,,,,,,,,2019_Jan_23_1734,60.079681522149386,Cloud_Experiment_FR_REAL,001,10,
images/fcloud65-35_D1.4_8.tif,1.4,1,,,,,,,,,,,,,0,122,122,73,,,,,,,,,,,1,space,2,1.302,3.70242593228,,,,,,,,,,,,,,,,,,,,,,,,,,,2019_Jan_23_1734,60.079681522149386,Cloud_Experiment_FR_REAL,001,10,
images/fcloud80-20_D1.9_9.tif,1.9,2,,,,,,,,,,,,,0,123,123,142,,,,,,,,,,,None,None,None,11.559,,,,,,,,,,,,,,,,,,,,,,,,,,,,2019_Jan_23_1734,60.079681522149386,Cloud_Experiment_FR_REAL,001,10,
images/fcloud80-20_D1.3_7.tif,1.3,2,,,,,,,,,,,,,0,124,124,116,,,,,,,,,,,1,None,2,1.202,,,,,,,,,,,,,,,,,,,,,,,,,,,,2019_Jan_23_1734,60.079681522149386,Cloud_Experiment_FR_REAL,001,10,
images/fcloud80-20_D1.3_9.tif,1.3,2,,,,,,,,,,,,,0,125,125,118,,,,,,,,,,,None,None,None,11.41,,,,,,,,,,,,,,,,,,,,,,,,,,,,2019_Jan_23_1734,60.079681522149386,Cloud_Experiment_FR_REAL,001,10,
images/fcloud80-20_D1.9_8.tif,1.9,2,,,,,,,,,,,,,0,126,126,141,,,,,,,,,,,None,None,None,20.368,,,,,,,,,,,,,,,,,,,,,,,,,,,,2019_Jan_23_1734,60.079681522149386,Cloud_Experiment_FR_REAL,001,10,
images/fcloud_D1.5_7.tif,1.5,0,,,,,,,,,,,,,0,127,127,28,,,,,,,,,,,2,space,2,0.653,3.38117496713,,,,,,,,,,,,,,,,,,,,,,,,,,,2019_Jan_23_1734,60.079681522149386,Cloud_Experiment_FR_REAL,001,10,
images/fcloud80-20_D1.3_8.tif,1.3,2,,,,,,,,,,,,,0,128,128,117,,,,,,,,,,,None,None,None,10.009,,,,,,,,,,,,,,,,,,,,,,,,,,,,2019_Jan_23_1734,60.079681522149386,Cloud_Experiment_FR_REAL,001,10,
images/fcloud65-35_D1_8.tif,1.0,1,,,,,,,,,,,,,0,129,129,57,,,,,,,,,,,1,space,2,0.885,2.98318986036,,,,,,,,,,,,,,,,,,,,,,,,,,,2019_Jan_23_1734,60.079681522149386,Cloud_Experiment_FR_REAL,001,10,
images/fcloud_D1.9_8.tif,1.9,0,,,,,,,,,,,,,0,130,130,45,,,,,,,,,,,None,None,None,10.142,,,,,,,,,,,,,,,,,,,,,,,,,,,,2019_Jan_23_1734,60.079681522149386,Cloud_Experiment_FR_REAL,001,10,
images/fcloud65-35_D1.7_8.tif,1.7,1,,,,,,,,,,,,,0,131,131,85,,,,,,,,,,,2,space,2,3.119,4.02591304024,,,,,,,,,,,,,,,,,,,,,,,,,,,2019_Jan_23_1734,60.079681522149386,Cloud_Experiment_FR_REAL,001,10,
images/fcloud_D1.2_8.tif,1.2,0,,,,,,,,,,,,,0,132,132,17,,,,,,,,,,,3,space,3,1.183,1.80006569633,,,,,,,,,,,,,,,,,,,,,,,,,,,2019_Jan_23_1734,60.079681522149386,Cloud_Experiment_FR_REAL,001,10,
images/fcloud65-35_D0.8_9.tif,0.8,1,,,,,,,,,,,,,0,133,133,50,,,,,,,,,,,2,space,1,0.486,6.59264879604,,,,,,,,,,,,,,,,,,,,,,,,,,,2019_Jan_23_1734,60.079681522149386,Cloud_Experiment_FR_REAL,001,10,
images/fcloud_D1.8_9.tif,1.8,0,,,,,,,,,,,,,0,134,134,42,,,,,,,,,,,2,space,2,1.835,4.2757292653,,,,,,,,,,,,,,,,,,,,,,,,,,,2019_Jan_23_1734,60.079681522149386,Cloud_Experiment_FR_REAL,001,10,
images/fcloud65-35_D1.2_8.tif,1.2,1,,,,,,,,,,,,,0,135,135,65,,,,,,,,,,,1,space,1,2.135,5.2619839265,,,,,,,,,,,,,,,,,,,,,,,,,,,2019_Jan_23_1734,60.079681522149386,Cloud_Experiment_FR_REAL,001,10,
images/fcloud_D1.8_8.tif,1.8,0,,,,,,,,,,,,,0,136,136,41,,,,,,,,,,,2,space,1,1.102,2.04591752283,,,,,,,,,,,,,,,,,,,,,,,,,,,2019_Jan_23_1734,60.079681522149386,Cloud_Experiment_FR_REAL,001,10,
images/fcloud80-20_D1.6_8.tif,1.6,2,,,,,,,,,,,,,0,137,137,129,,,,,,,,,,,None,None,None,11.026,,,,,,,,,,,,,,,,,,,,,,,,,,,,2019_Jan_23_1734,60.079681522149386,Cloud_Experiment_FR_REAL,001,10,
images/fcloud_D1.2_10.tif,1.2,0,,,,,,,,,,,,,0,138,138,19,,,,,,,,,,,2,space,3,1.002,2.03866882159,,,,,,,,,,,,,,,,,,,,,,,,,,,2019_Jan_23_1734,60.079681522149386,Cloud_Experiment_FR_REAL,001,10,
images/fcloud_D1.9_9.tif,1.9,0,,,,,,,,,,,,,0,139,139,46,,,,,,,,,,,None,None,None,9.911,,,,,,,,,,,,,,,,,,,,,,,,,,,,2019_Jan_23_1734,60.079681522149386,Cloud_Experiment_FR_REAL,001,10,
images/fcloud_D1.7_8.tif,1.7,0,,,,,,,,,,,,,0,140,140,37,,,,,,,,,,,None,None,None,18.734,,,,,,,,,,,,,,,,,,,,,,,,,,,,2019_Jan_23_1734,60.079681522149386,Cloud_Experiment_FR_REAL,001,10,
images/fcloud65-35_D1.4_7.tif,1.4,1,,,,,,,,,,,,,0,141,141,72,,,,,,,,,,,1,space,1,0.603,4.05598427812,,,,,,,,,,,,,,,,,,,,,,,,,,,2019_Jan_23_1734,60.079681522149386,Cloud_Experiment_FR_REAL,001,10,
images/fcloud_D1.4_9.tif,1.4,0,,,,,,,,,,,,,0,142,142,26,,,,,,,,,,,2,space,2,1.619,1.53053748648,,,,,,,,,,,,,,,,,,,,,,,,,,,2019_Jan_23_1734,60.079681522149386,Cloud_Experiment_FR_REAL,001,10,
images/fcloud65-35_D1.6_10.tif,1.6,1,,,,,,,,,,,,,0,143,143,83,,,,,,,,,,,1,None,1,0.635,,,,,,,,,,,,,,,,,,,,,,,,,,,,2019_Jan_23_1734,60.079681522149386,Cloud_Experiment_FR_REAL,001,10,
,,,,,,,,,,,,,,,,,,,,,,,,,6,7.253,,,,,,,,,,,,,,,,,,,,,,,,,,,,,,,,,,2019_Jan_23_1734,60.079681522149386,Cloud_Experiment_FR_REAL,001,10,
