ImageFile,FD,Contrast,trials_4.thisRepN,trials_4.thisTrialN,trials_4.thisN,trials_4.thisIndex,trials.thisRepN,trials.thisTrialN,trials.thisN,trials.thisIndex,trials_2.thisRepN,trials_2.thisTrialN,trials_2.thisN,trials_2.thisIndex,trials_3.thisRepN,trials_3.thisTrialN,trials_3.thisN,trials_3.thisIndex,end_instructions.keys,end_instructions.rt,key_resp_4.keys,key_resp_4.rt,key_resp_6.keys,key_resp_6.rt,Fatigue.response,Fatigue.rt,key_resp_5.keys,key_resp_5.rt,n_objets.response,reaction_time.keys,vividness.response,vividness.rt,reaction_time.rt,Flow01.response,Flow02.response,Flow03.response,Flow04.response,Flow05.response,Flow06.response,Flow07.response,Flow08.response,Flow09.response,Flow10.response,key_resp_2.keys,key_resp_2.rt,key_resp_8.keys,key_resp_8.rt,key_resp_3.keys,key_resp_3.rt,Redondance_question.response,date,frameRate,expName,session,participant,
,,,,,,,,,,,,,,,,,,,space,12.0408720859,,,,,,,,,,,,,,,,,,,,,,,,,,,,,,,2019_Jan_28_1537,60.474673111204794,Cloud_Experiment_FR_REAL,001,11,
,,,,,,,,,,,,,,,,,,,,,space,52.8203985682,,,,,,,,,,,,,,,,,,,,,,,,,,,,,2019_Jan_28_1537,60.474673111204794,Cloud_Experiment_FR_REAL,001,11,
,,,,,,,,,,,,,,,,,,,,,,,space,48.0253182907,,,,,,,,,,,,,,,,,,,,,,,,,,,2019_Jan_28_1537,60.474673111204794,Cloud_Experiment_FR_REAL,001,11,
,,,,,,,,,,,,,,,,,,,,,,,,,8,167.805,,,,,,,,,,,,,,,,,,,,,,,,,2019_Jan_28_1537,60.474673111204794,Cloud_Experiment_FR_REAL,001,11,
,,,,,,,,,,,,,,,,,,,,,,,,,,,space,5.01233271972,,,,,,,,,,,,,,,,,,,,,,,2019_Jan_28_1537,60.474673111204794,Cloud_Experiment_FR_REAL,001,11,
pratique/fcloud65-35_D1.6_30,1.6,1,0,0,0,2,,,,,,,,,,,,,,,,,,,,,,,None,None,None,303.341,,,,,,,,,,,,,,,,,,,2019_Jan_28_1537,60.474673111204794,Cloud_Experiment_FR_REAL,001,11,
pratique/fcloud65-35_D1.9_29,1.9,1,0,1,1,7,,,,,,,,,,,,,,,,,,,,,,,None,None,None,312.715,,,,,,,,,,,,,,,,,,,2019_Jan_28_1537,60.474673111204794,Cloud_Experiment_FR_REAL,001,11,
pratique/fcloud_D1.4_30,1.4,0,0,2,2,1,,,,,,,,,,,,,,,,,,,,,,,1,None,2,6.879,,,,,,,,,,,,,,,,,,,2019_Jan_28_1537,60.474673111204794,Cloud_Experiment_FR_REAL,001,11,
pratique/fcloud80-20_D1.8_30,1.8,2,0,3,3,4,,,,,,,,,,,,,,,,,,,,,,,None,None,None,16.253,,,,,,,,,,,,,,,,,,,2019_Jan_28_1537,60.474673111204794,Cloud_Experiment_FR_REAL,001,11,
pratique/fcloud80-20_D1_30,1.0,2,0,4,4,9,,,,,,,,,,,,,,,,,,,,,,,1,None,3,26.229,,,,,,,,,,,,,,,,,,,2019_Jan_28_1537,60.474673111204794,Cloud_Experiment_FR_REAL,001,11,
pratique/fcloud65-35_D1.2_30,1.2,1,0,5,5,3,,,,,,,,,,,,,,,,,,,,,,,None,None,None,35.154,,,,,,,,,,,,,,,,,,,2019_Jan_28_1537,60.474673111204794,Cloud_Experiment_FR_REAL,001,11,
pratique/fcloud_D1.6_28,1.6,0,0,6,6,5,,,,,,,,,,,,,,,,,,,,,,,None,None,None,45.578,,,,,,,,,,,,,,,,,,,2019_Jan_28_1537,60.474673111204794,Cloud_Experiment_FR_REAL,001,11,
pratique/fcloud80-20_D1.5_30,1.5,2,0,7,7,8,,,,,,,,,,,,,,,,,,,,,,,1,space,2,3.299,5.06404779077,,,,,,,,,,,,,,,,,,2019_Jan_28_1537,60.474673111204794,Cloud_Experiment_FR_REAL,001,11,
pratique/fcloud_D0.8_30,0.8,0,0,8,8,0,,,,,,,,,,,,,,,,,,,,,,,2,None,3,4.415,,,,,,,,,,,,,,,,,,,2019_Jan_28_1537,60.474673111204794,Cloud_Experiment_FR_REAL,001,11,
pratique/fcloud65-35_D1.3_30,1.3,1,0,9,9,6,,,,,,,,,,,,,,,,,,,,,,,None,None,None,13.539,,,,,,,,,,,,,,,,,,,2019_Jan_28_1537,60.474673111204794,Cloud_Experiment_FR_REAL,001,11,
,,,,,,,,,,,,,,,,,,,,,,,,,,,,,,,,,,4,,,,,,,,,,,,,,,,,2019_Jan_28_1537,60.474673111204794,Cloud_Experiment_FR_REAL,001,11,
,,,,,,,,,,,,,,,,,,,,,,,,,,,,,,,,,,,4,,,,,,,,,,,,,,,,2019_Jan_28_1537,60.474673111204794,Cloud_Experiment_FR_REAL,001,11,
,,,,,,,,,,,,,,,,,,,,,,,,,,,,,,,,,,,,5,,,,,,,,,,,,,,,2019_Jan_28_1537,60.474673111204794,Cloud_Experiment_FR_REAL,001,11,
,,,,,,,,,,,,,,,,,,,,,,,,,,,,,,,,,,,,,5,,,,,,,,,,,,,,2019_Jan_28_1537,60.474673111204794,Cloud_Experiment_FR_REAL,001,11,
,,,,,,,,,,,,,,,,,,,,,,,,,,,,,,,,,,,,,,4,,,,,,,,,,,,,2019_Jan_28_1537,60.474673111204794,Cloud_Experiment_FR_REAL,001,11,
,,,,,,,,,,,,,,,,,,,,,,,,,,,,,,,,,,,,,,,4,,,,,,,,,,,,2019_Jan_28_1537,60.474673111204794,Cloud_Experiment_FR_REAL,001,11,
,,,,,,,,,,,,,,,,,,,,,,,,,,,,,,,,,,,,,,,,3,,,,,,,,,,,2019_Jan_28_1537,60.474673111204794,Cloud_Experiment_FR_REAL,001,11,
,,,,,,,,,,,,,,,,,,,,,,,,,,,,,,,,,,,,,,,,,5,,,,,,,,,,2019_Jan_28_1537,60.474673111204794,Cloud_Experiment_FR_REAL,001,11,
,,,,,,,,,,,,,,,,,,,,,,,,,,,,,,,,,,,,,,,,,,3,,,,,,,,,2019_Jan_28_1537,60.474673111204794,Cloud_Experiment_FR_REAL,001,11,
,,,,,,,,,,,,,,,,,,,,,,,,,,,,,,,,,,,,,,,,,,,3,,,,,,,,2019_Jan_28_1537,60.474673111204794,Cloud_Experiment_FR_REAL,001,11,
,,,,,,,,,,,,,,,,,,,,,,,,,,,,,,,,,,,,,,,,,,,,space,2.28195102792,,,,,,2019_Jan_28_1537,60.474673111204794,Cloud_Experiment_FR_REAL,001,11,
images/fcloud80-20_D1_2.tif,1.0,2,,,,,0,0,0,79,,,,,,,,,,,,,,,,,,,1,space,2,51.923,5.90305210525,,,,,,,,,,,,,,,,,,2019_Jan_28_1537,60.474673111204794,Cloud_Experiment_FR_REAL,001,11,
images/fcloud_D1.8_1.tif,1.8,0,,,,,0,1,1,30,,,,,,,,,,,,,,,,,,,None,None,None,61.264,,,,,,,,,,,,,,,,,,,2019_Jan_28_1537,60.474673111204794,Cloud_Experiment_FR_REAL,001,11,
images/fcloud65-35_D0.9_1.tif,0.9,1,,,,,0,2,2,39,,,,,,,,,,,,,,,,,,,1,space,4,3.116,7.00061892354,,,,,,,,,,,,,,,,,,2019_Jan_28_1537,60.474673111204794,Cloud_Experiment_FR_REAL,001,11,
images/fcloud_D1.5_2.tif,1.5,0,,,,,0,3,3,22,,,,,,,,,,,,,,,,,,,None,None,None,12.023,,,,,,,,,,,,,,,,,,,2019_Jan_28_1537,60.474673111204794,Cloud_Experiment_FR_REAL,001,11,
images/fcloud65-35_D1.1_3.tif,1.1,1,,,,,0,4,4,47,,,,,,,,,,,,,,,,,,,None,None,None,20.899,,,,,,,,,,,,,,,,,,,2019_Jan_28_1537,60.474673111204794,Cloud_Experiment_FR_REAL,001,11,
images/fcloud65-35_D0.8_2.tif,0.8,1,,,,,0,5,5,37,,,,,,,,,,,,,,,,,,,None,None,None,30.107,,,,,,,,,,,,,,,,,,,2019_Jan_28_1537,60.474673111204794,Cloud_Experiment_FR_REAL,001,11,
images/fcloud80-20_D1.5_1.tif,1.5,2,,,,,0,6,6,93,,,,,,,,,,,,,,,,,,,1,space,2,4.782,6.99428575247,,,,,,,,,,,,,,,,,,2019_Jan_28_1537,60.474673111204794,Cloud_Experiment_FR_REAL,001,11,
images/fcloud65-35_D1.2_2.tif,1.2,1,,,,,0,7,7,49,,,,,,,,,,,,,,,,,,,None,None,None,13.789,,,,,,,,,,,,,,,,,,,2019_Jan_28_1537,60.474673111204794,Cloud_Experiment_FR_REAL,001,11,
images/fcloud65-35_D1.7_2.tif,1.7,1,,,,,0,8,8,64,,,,,,,,,,,,,,,,,,,1,None,4,2.917,,,,,,,,,,,,,,,,,,,2019_Jan_28_1537,60.474673111204794,Cloud_Experiment_FR_REAL,001,11,
images/fcloud_D1.4_1.tif,1.4,0,,,,,0,9,9,18,,,,,,,,,,,,,,,,,,,3,None,3,1.601,,,,,,,,,,,,,,,,,,,2019_Jan_28_1537,60.474673111204794,Cloud_Experiment_FR_REAL,001,11,
images/fcloud80-20_D1.2_1.tif,1.2,2,,,,,0,10,10,84,,,,,,,,,,,,,,,,,,,1,space,4,2.167,4.64911405003,,,,,,,,,,,,,,,,,,2019_Jan_28_1537,60.474673111204794,Cloud_Experiment_FR_REAL,001,11,
images/fcloud65-35_D1.7_1.tif,1.7,1,,,,,0,11,11,63,,,,,,,,,,,,,,,,,,,None,None,None,11.59,,,,,,,,,,,,,,,,,,,2019_Jan_28_1537,60.474673111204794,Cloud_Experiment_FR_REAL,001,11,
images/fcloud_D0.9_1.tif,0.9,0,,,,,0,12,12,3,,,,,,,,,,,,,,,,,,,None,None,None,20.465,,,,,,,,,,,,,,,,,,,2019_Jan_28_1537,60.474673111204794,Cloud_Experiment_FR_REAL,001,11,
images/fcloud_D1.1_1.tif,1.1,0,,,,,0,13,13,9,,,,,,,,,,,,,,,,,,,None,None,None,33.121,,,,,,,,,,,,,,,,,,,2019_Jan_28_1537,60.474673111204794,Cloud_Experiment_FR_REAL,001,11,
images/fcloud65-35_D0.8_3.tif,0.8,1,,,,,0,14,14,38,,,,,,,,,,,,,,,,,,,None,None,None,41.797,,,,,,,,,,,,,,,,,,,2019_Jan_28_1537,60.474673111204794,Cloud_Experiment_FR_REAL,001,11,
images/fcloud_D0.8_2.tif,0.8,0,,,,,0,15,15,1,,,,,,,,,,,,,,,,,,,1,None,4,3.482,,,,,,,,,,,,,,,,,,,2019_Jan_28_1537,60.474673111204794,Cloud_Experiment_FR_REAL,001,11,
images/fcloud65-35_D1.9_1.tif,1.9,1,,,,,0,16,16,69,,,,,,,,,,,,,,,,,,,None,None,None,12.906,,,,,,,,,,,,,,,,,,,2019_Jan_28_1537,60.474673111204794,Cloud_Experiment_FR_REAL,001,11,
images/fcloud_D1.7_1.tif,1.7,0,,,,,0,17,17,27,,,,,,,,,,,,,,,,,,,None,None,None,21.898,,,,,,,,,,,,,,,,,,,2019_Jan_28_1537,60.474673111204794,Cloud_Experiment_FR_REAL,001,11,
images/fcloud80-20_D1.4_3.tif,1.4,2,,,,,0,18,18,92,,,,,,,,,,,,,,,,,,,1,space,4,1.884,7.00786608632,,,,,,,,,,,,,,,,,,2019_Jan_28_1537,60.474673111204794,Cloud_Experiment_FR_REAL,001,11,
images/fcloud65-35_D1.8_3.tif,1.8,1,,,,,0,19,19,68,,,,,,,,,,,,,,,,,,,1,space,2,3.066,6.4134928415,,,,,,,,,,,,,,,,,,2019_Jan_28_1537,60.474673111204794,Cloud_Experiment_FR_REAL,001,11,
images/fcloud65-35_D1.4_2.tif,1.4,1,,,,,0,20,20,55,,,,,,,,,,,,,,,,,,,1,space,3,2.633,6.55374996207,,,,,,,,,,,,,,,,,,2019_Jan_28_1537,60.474673111204794,Cloud_Experiment_FR_REAL,001,11,
images/fcloud65-35_D1.8_1.tif,1.8,1,,,,,0,21,21,66,,,,,,,,,,,,,,,,,,,None,None,None,11.49,,,,,,,,,,,,,,,,,,,2019_Jan_28_1537,60.474673111204794,Cloud_Experiment_FR_REAL,001,11,
images/fcloud_D1.8_2.tif,1.8,0,,,,,0,22,22,31,,,,,,,,,,,,,,,,,,,None,None,None,21.015,,,,,,,,,,,,,,,,,,,2019_Jan_28_1537,60.474673111204794,Cloud_Experiment_FR_REAL,001,11,
images/fcloud80-20_D1.9_3.tif,1.9,2,,,,,0,23,23,107,,,,,,,,,,,,,,,,,,,None,None,None,29.641,,,,,,,,,,,,,,,,,,,2019_Jan_28_1537,60.474673111204794,Cloud_Experiment_FR_REAL,001,11,
images/fcloud65-35_D1.1_1.tif,1.1,1,,,,,0,24,24,45,,,,,,,,,,,,,,,,,,,1,space,3,1.401,6.01114679233,,,,,,,,,,,,,,,,,,2019_Jan_28_1537,60.474673111204794,Cloud_Experiment_FR_REAL,001,11,
images/fcloud80-20_D1.6_1.tif,1.6,2,,,,,0,25,25,96,,,,,,,,,,,,,,,,,,,None,None,None,11.841,,,,,,,,,,,,,,,,,,,2019_Jan_28_1537,60.474673111204794,Cloud_Experiment_FR_REAL,001,11,
images/fcloud_D1.1_2.tif,1.1,0,,,,,0,26,26,10,,,,,,,,,,,,,,,,,,,2,space,4,4.149,7.30242845239,,,,,,,,,,,,,,,,,,2019_Jan_28_1537,60.474673111204794,Cloud_Experiment_FR_REAL,001,11,
images/fcloud_D1.3_2.tif,1.3,0,,,,,0,27,27,16,,,,,,,,,,,,,,,,,,,None,None,None,13.289,,,,,,,,,,,,,,,,,,,2019_Jan_28_1537,60.474673111204794,Cloud_Experiment_FR_REAL,001,11,
images/fcloud_D0.8_3.tif,0.8,0,,,,,0,28,28,2,,,,,,,,,,,,,,,,,,,None,None,None,22.081,,,,,,,,,,,,,,,,,,,2019_Jan_28_1537,60.474673111204794,Cloud_Experiment_FR_REAL,001,11,
images/fcloud65-35_D1_3.tif,1.0,1,,,,,0,29,29,44,,,,,,,,,,,,,,,,,,,None,None,None,31.139,,,,,,,,,,,,,,,,,,,2019_Jan_28_1537,60.474673111204794,Cloud_Experiment_FR_REAL,001,11,
images/fcloud65-35_D0.9_3.tif,0.9,1,,,,,0,30,30,41,,,,,,,,,,,,,,,,,,,None,None,None,39.699,,,,,,,,,,,,,,,,,,,2019_Jan_28_1537,60.474673111204794,Cloud_Experiment_FR_REAL,001,11,
images/fcloud65-35_D1.3_2.tif,1.3,1,,,,,0,31,31,52,,,,,,,,,,,,,,,,,,,None,None,None,48.541,,,,,,,,,,,,,,,,,,,2019_Jan_28_1537,60.474673111204794,Cloud_Experiment_FR_REAL,001,11,
images/fcloud80-20_D1.1_1.tif,1.1,2,,,,,0,32,32,81,,,,,,,,,,,,,,,,,,,1,None,5,2.283,,,,,,,,,,,,,,,,,,,2019_Jan_28_1537,60.474673111204794,Cloud_Experiment_FR_REAL,001,11,
images/fcloud65-35_D1.2_3.tif,1.2,1,,,,,0,33,33,50,,,,,,,,,,,,,,,,,,,None,None,None,11.407,,,,,,,,,,,,,,,,,,,2019_Jan_28_1537,60.474673111204794,Cloud_Experiment_FR_REAL,001,11,
images/fcloud_D1.5_3.tif,1.5,0,,,,,0,34,34,23,,,,,,,,,,,,,,,,,,,None,None,None,20.549,,,,,,,,,,,,,,,,,,,2019_Jan_28_1537,60.474673111204794,Cloud_Experiment_FR_REAL,001,11,
images/fcloud65-35_D1.6_1.tif,1.6,1,,,,,0,35,35,60,,,,,,,,,,,,,,,,,,,None,None,None,29.708,,,,,,,,,,,,,,,,,,,2019_Jan_28_1537,60.474673111204794,Cloud_Experiment_FR_REAL,001,11,
images/fcloud_D1.9_2.tif,1.9,0,,,,,0,36,36,34,,,,,,,,,,,,,,,,,,,None,None,None,39.651,,,,,,,,,,,,,,,,,,,2019_Jan_28_1537,60.474673111204794,Cloud_Experiment_FR_REAL,001,11,
images/fcloud_D0.8_1.tif,0.8,0,,,,,0,37,37,0,,,,,,,,,,,,,,,,,,,1,space,3,1.2,6.10647026982,,,,,,,,,,,,,,,,,,2019_Jan_28_1537,60.474673111204794,Cloud_Experiment_FR_REAL,001,11,
images/fcloud_D1.9_1.tif,1.9,0,,,,,0,38,38,33,,,,,,,,,,,,,,,,,,,None,None,None,10.441,,,,,,,,,,,,,,,,,,,2019_Jan_28_1537,60.474673111204794,Cloud_Experiment_FR_REAL,001,11,
images/fcloud_D1.8_3.tif,1.8,0,,,,,0,39,39,32,,,,,,,,,,,,,,,,,,,None,None,None,19.732,,,,,,,,,,,,,,,,,,,2019_Jan_28_1537,60.474673111204794,Cloud_Experiment_FR_REAL,001,11,
images/fcloud80-20_D1.3_1.tif,1.3,2,,,,,0,40,40,87,,,,,,,,,,,,,,,,,,,None,None,None,28.907,,,,,,,,,,,,,,,,,,,2019_Jan_28_1537,60.474673111204794,Cloud_Experiment_FR_REAL,001,11,
images/fcloud_D1.2_1.tif,1.2,0,,,,,0,41,41,12,,,,,,,,,,,,,,,,,,,None,None,None,37.284,,,,,,,,,,,,,,,,,,,2019_Jan_28_1537,60.474673111204794,Cloud_Experiment_FR_REAL,001,11,
images/fcloud65-35_D1.1_2.tif,1.1,1,,,,,0,42,42,46,,,,,,,,,,,,,,,,,,,None,None,None,46.196,,,,,,,,,,,,,,,,,,,2019_Jan_28_1537,60.474673111204794,Cloud_Experiment_FR_REAL,001,11,
images/fcloud_D1.7_2.tif,1.7,0,,,,,0,43,43,28,,,,,,,,,,,,,,,,,,,None,None,None,54.653,,,,,,,,,,,,,,,,,,,2019_Jan_28_1537,60.474673111204794,Cloud_Experiment_FR_REAL,001,11,
images/fcloud80-20_D1.8_1.tif,1.8,2,,,,,0,44,44,102,,,,,,,,,,,,,,,,,,,None,None,None,63.211,,,,,,,,,,,,,,,,,,,2019_Jan_28_1537,60.474673111204794,Cloud_Experiment_FR_REAL,001,11,
images/fcloud80-20_D1.2_2.tif,1.2,2,,,,,0,45,45,85,,,,,,,,,,,,,,,,,,,1,None,3,2.732,,,,,,,,,,,,,,,,,,,2019_Jan_28_1537,60.474673111204794,Cloud_Experiment_FR_REAL,001,11,
images/fcloud65-35_D1.5_2.tif,1.5,1,,,,,0,46,46,58,,,,,,,,,,,,,,,,,,,1,space,4,3.199,5.16685438281,,,,,,,,,,,,,,,,,,2019_Jan_28_1537,60.474673111204794,Cloud_Experiment_FR_REAL,001,11,
images/fcloud65-35_D1.9_2.tif,1.9,1,,,,,0,47,47,70,,,,,,,,,,,,,,,,,,,1,None,2,2.183,,,,,,,,,,,,,,,,,,,2019_Jan_28_1537,60.474673111204794,Cloud_Experiment_FR_REAL,001,11,
images/fcloud80-20_D1.5_2.tif,1.5,2,,,,,0,48,48,94,,,,,,,,,,,,,,,,,,,None,None,None,11.707,,,,,,,,,,,,,,,,,,,2019_Jan_28_1537,60.474673111204794,Cloud_Experiment_FR_REAL,001,11,
images/fcloud65-35_D1.5_1.tif,1.5,1,,,,,0,49,49,57,,,,,,,,,,,,,,,,,,,None,None,None,20.349,,,,,,,,,,,,,,,,,,,2019_Jan_28_1537,60.474673111204794,Cloud_Experiment_FR_REAL,001,11,
images/fcloud65-35_D1.8_2.tif,1.8,1,,,,,0,50,50,67,,,,,,,,,,,,,,,,,,,2,space,3,3.482,3.66173207088,,,,,,,,,,,,,,,,,,2019_Jan_28_1537,60.474673111204794,Cloud_Experiment_FR_REAL,001,11,
images/fcloud65-35_D1.9_3.tif,1.9,1,,,,,0,51,51,71,,,,,,,,,,,,,,,,,,,None,None,None,12.339,,,,,,,,,,,,,,,,,,,2019_Jan_28_1537,60.474673111204794,Cloud_Experiment_FR_REAL,001,11,
images/fcloud_D1.2_3.tif,1.2,0,,,,,0,52,52,14,,,,,,,,,,,,,,,,,,,None,None,None,21.266,,,,,,,,,,,,,,,,,,,2019_Jan_28_1537,60.474673111204794,Cloud_Experiment_FR_REAL,001,11,
images/fcloud80-20_D1.3_2.tif,1.3,2,,,,,0,53,53,88,,,,,,,,,,,,,,,,,,,None,None,None,30.191,,,,,,,,,,,,,,,,,,,2019_Jan_28_1537,60.474673111204794,Cloud_Experiment_FR_REAL,001,11,
images/fcloud65-35_D1.2_1.tif,1.2,1,,,,,0,54,54,48,,,,,,,,,,,,,,,,,,,None,None,None,39.199,,,,,,,,,,,,,,,,,,,2019_Jan_28_1537,60.474673111204794,Cloud_Experiment_FR_REAL,001,11,
images/fcloud65-35_D0.8_1.tif,0.8,1,,,,,0,55,55,36,,,,,,,,,,,,,,,,,,,None,None,None,47.643,,,,,,,,,,,,,,,,,,,2019_Jan_28_1537,60.474673111204794,Cloud_Experiment_FR_REAL,001,11,
images/fcloud_D1.7_3.tif,1.7,0,,,,,0,56,56,29,,,,,,,,,,,,,,,,,,,None,None,None,56.284,,,,,,,,,,,,,,,,,,,2019_Jan_28_1537,60.474673111204794,Cloud_Experiment_FR_REAL,001,11,
images/fcloud80-20_D1.5_3.tif,1.5,2,,,,,0,57,57,95,,,,,,,,,,,,,,,,,,,None,None,None,64.745,,,,,,,,,,,,,,,,,,,2019_Jan_28_1537,60.474673111204794,Cloud_Experiment_FR_REAL,001,11,
images/fcloud_D1.3_3.tif,1.3,0,,,,,0,58,58,17,,,,,,,,,,,,,,,,,,,None,None,None,73.47,,,,,,,,,,,,,,,,,,,2019_Jan_28_1537,60.474673111204794,Cloud_Experiment_FR_REAL,001,11,
images/fcloud80-20_D1.7_3.tif,1.7,2,,,,,0,59,59,101,,,,,,,,,,,,,,,,,,,None,None,None,81.929,,,,,,,,,,,,,,,,,,,2019_Jan_28_1537,60.474673111204794,Cloud_Experiment_FR_REAL,001,11,
images/fcloud80-20_D0.9_1.tif,0.9,2,,,,,0,60,60,75,,,,,,,,,,,,,,,,,,,1,None,3,3.25,,,,,,,,,,,,,,,,,,,2019_Jan_28_1537,60.474673111204794,Cloud_Experiment_FR_REAL,001,11,
images/fcloud80-20_D1_3.tif,1.0,2,,,,,0,61,61,80,,,,,,,,,,,,,,,,,,,None,None,None,12.406,,,,,,,,,,,,,,,,,,,2019_Jan_28_1537,60.474673111204794,Cloud_Experiment_FR_REAL,001,11,
images/fcloud80-20_D1.1_2.tif,1.1,2,,,,,0,62,62,82,,,,,,,,,,,,,,,,,,,None,None,None,21.533,,,,,,,,,,,,,,,,,,,2019_Jan_28_1537,60.474673111204794,Cloud_Experiment_FR_REAL,001,11,
images/fcloud65-35_D1.4_3.tif,1.4,1,,,,,0,63,63,56,,,,,,,,,,,,,,,,,,,1,None,1,1.151,,,,,,,,,,,,,,,,,,,2019_Jan_28_1537,60.474673111204794,Cloud_Experiment_FR_REAL,001,11,
images/fcloud65-35_D1_1.tif,1.0,1,,,,,0,64,64,42,,,,,,,,,,,,,,,,,,,1,space,3,0.951,3.96495833833,,,,,,,,,,,,,,,,,,2019_Jan_28_1537,60.474673111204794,Cloud_Experiment_FR_REAL,001,11,
images/fcloud_D0.9_3.tif,0.9,0,,,,,0,65,65,5,,,,,,,,,,,,,,,,,,,1,space,2,1.084,6.5569391661,,,,,,,,,,,,,,,,,,2019_Jan_28_1537,60.474673111204794,Cloud_Experiment_FR_REAL,001,11,
images/fcloud80-20_D1.7_1.tif,1.7,2,,,,,0,66,66,99,,,,,,,,,,,,,,,,,,,None,None,None,9.725,,,,,,,,,,,,,,,,,,,2019_Jan_28_1537,60.474673111204794,Cloud_Experiment_FR_REAL,001,11,
images/fcloud65-35_D1_2.tif,1.0,1,,,,,0,67,67,43,,,,,,,,,,,,,,,,,,,1,space,3,2.167,4.21503480416,,,,,,,,,,,,,,,,,,2019_Jan_28_1537,60.474673111204794,Cloud_Experiment_FR_REAL,001,11,
images/fcloud80-20_D0.8_1.tif,0.8,2,,,,,0,68,68,72,,,,,,,,,,,,,,,,,,,1,None,1,0.651,,,,,,,,,,,,,,,,,,,2019_Jan_28_1537,60.474673111204794,Cloud_Experiment_FR_REAL,001,11,
images/fcloud80-20_D1.9_2.tif,1.9,2,,,,,0,69,69,106,,,,,,,,,,,,,,,,,,,None,None,None,9.076,,,,,,,,,,,,,,,,,,,2019_Jan_28_1537,60.474673111204794,Cloud_Experiment_FR_REAL,001,11,
images/fcloud65-35_D1.3_1.tif,1.3,1,,,,,0,70,70,51,,,,,,,,,,,,,,,,,,,None,None,None,17.569,,,,,,,,,,,,,,,,,,,2019_Jan_28_1537,60.474673111204794,Cloud_Experiment_FR_REAL,001,11,
images/fcloud65-35_D1.4_1.tif,1.4,1,,,,,0,71,71,54,,,,,,,,,,,,,,,,,,,None,None,None,26.296,,,,,,,,,,,,,,,,,,,2019_Jan_28_1537,60.474673111204794,Cloud_Experiment_FR_REAL,001,11,
images/fcloud65-35_D1.5_3.tif,1.5,1,,,,,0,72,72,59,,,,,,,,,,,,,,,,,,,1,space,3,1.334,5.00975164407,,,,,,,,,,,,,,,,,,2019_Jan_28_1537,60.474673111204794,Cloud_Experiment_FR_REAL,001,11,
images/fcloud_D1_2.tif,1.0,0,,,,,0,73,73,7,,,,,,,,,,,,,,,,,,,None,None,None,9.808,,,,,,,,,,,,,,,,,,,2019_Jan_28_1537,60.474673111204794,Cloud_Experiment_FR_REAL,001,11,
images/fcloud80-20_D1.7_2.tif,1.7,2,,,,,0,74,74,100,,,,,,,,,,,,,,,,,,,None,None,None,18.401,,,,,,,,,,,,,,,,,,,2019_Jan_28_1537,60.474673111204794,Cloud_Experiment_FR_REAL,001,11,
images/fcloud80-20_D1.3_3.tif,1.3,2,,,,,0,75,75,89,,,,,,,,,,,,,,,,,,,None,None,None,26.827,,,,,,,,,,,,,,,,,,,2019_Jan_28_1537,60.474673111204794,Cloud_Experiment_FR_REAL,001,11,
images/fcloud_D0.9_2.tif,0.9,0,,,,,0,76,76,4,,,,,,,,,,,,,,,,,,,None,None,None,35.736,,,,,,,,,,,,,,,,,,,2019_Jan_28_1537,60.474673111204794,Cloud_Experiment_FR_REAL,001,11,
images/fcloud80-20_D1.8_2.tif,1.8,2,,,,,0,77,77,103,,,,,,,,,,,,,,,,,,,None,None,None,45.46,,,,,,,,,,,,,,,,,,,2019_Jan_28_1537,60.474673111204794,Cloud_Experiment_FR_REAL,001,11,
images/fcloud_D1.6_2.tif,1.6,0,,,,,0,78,78,25,,,,,,,,,,,,,,,,,,,None,None,None,54.17,,,,,,,,,,,,,,,,,,,2019_Jan_28_1537,60.474673111204794,Cloud_Experiment_FR_REAL,001,11,
images/fcloud65-35_D1.6_3.tif,1.6,1,,,,,0,79,79,62,,,,,,,,,,,,,,,,,,,None,None,None,62.913,,,,,,,,,,,,,,,,,,,2019_Jan_28_1537,60.474673111204794,Cloud_Experiment_FR_REAL,001,11,
images/fcloud80-20_D1.6_2.tif,1.6,2,,,,,0,80,80,97,,,,,,,,,,,,,,,,,,,1,space,1,1.001,7.42318999564,,,,,,,,,,,,,,,,,,2019_Jan_28_1537,60.474673111204794,Cloud_Experiment_FR_REAL,001,11,
images/fcloud80-20_D1.9_1.tif,1.9,2,,,,,0,81,81,105,,,,,,,,,,,,,,,,,,,None,None,None,9.792,,,,,,,,,,,,,,,,,,,2019_Jan_28_1537,60.474673111204794,Cloud_Experiment_FR_REAL,001,11,
images/fcloud65-35_D1.7_3.tif,1.7,1,,,,,0,82,82,65,,,,,,,,,,,,,,,,,,,None,None,None,18.352,,,,,,,,,,,,,,,,,,,2019_Jan_28_1537,60.474673111204794,Cloud_Experiment_FR_REAL,001,11,
images/fcloud80-20_D1.4_1.tif,1.4,2,,,,,0,83,83,90,,,,,,,,,,,,,,,,,,,None,None,None,26.744,,,,,,,,,,,,,,,,,,,2019_Jan_28_1537,60.474673111204794,Cloud_Experiment_FR_REAL,001,11,
images/fcloud80-20_D0.8_3.tif,0.8,2,,,,,0,84,84,74,,,,,,,,,,,,,,,,,,,None,None,None,35.536,,,,,,,,,,,,,,,,,,,2019_Jan_28_1537,60.474673111204794,Cloud_Experiment_FR_REAL,001,11,
images/fcloud65-35_D1.3_3.tif,1.3,1,,,,,0,85,85,53,,,,,,,,,,,,,,,,,,,None,None,None,44.628,,,,,,,,,,,,,,,,,,,2019_Jan_28_1537,60.474673111204794,Cloud_Experiment_FR_REAL,001,11,
images/fcloud65-35_D1.6_2.tif,1.6,1,,,,,0,86,86,61,,,,,,,,,,,,,,,,,,,1,space,4,2.034,3.87808028836,,,,,,,,,,,,,,,,,,2019_Jan_28_1537,60.474673111204794,Cloud_Experiment_FR_REAL,001,11,
images/fcloud80-20_D0.9_2.tif,0.9,2,,,,,0,87,87,76,,,,,,,,,,,,,,,,,,,None,None,None,13.773,,,,,,,,,,,,,,,,,,,2019_Jan_28_1537,60.474673111204794,Cloud_Experiment_FR_REAL,001,11,
images/fcloud_D1.9_3.tif,1.9,0,,,,,0,88,88,35,,,,,,,,,,,,,,,,,,,None,None,None,22.581,,,,,,,,,,,,,,,,,,,2019_Jan_28_1537,60.474673111204794,Cloud_Experiment_FR_REAL,001,11,
images/fcloud_D1_3.tif,1.0,0,,,,,0,89,89,8,,,,,,,,,,,,,,,,,,,None,None,None,31.207,,,,,,,,,,,,,,,,,,,2019_Jan_28_1537,60.474673111204794,Cloud_Experiment_FR_REAL,001,11,
images/fcloud_D1.6_1.tif,1.6,0,,,,,0,90,90,24,,,,,,,,,,,,,,,,,,,None,None,None,39.833,,,,,,,,,,,,,,,,,,,2019_Jan_28_1537,60.474673111204794,Cloud_Experiment_FR_REAL,001,11,
images/fcloud80-20_D1.2_3.tif,1.2,2,,,,,0,91,91,86,,,,,,,,,,,,,,,,,,,1,space,4,2.1,2.53515501105,,,,,,,,,,,,,,,,,,2019_Jan_28_1537,60.474673111204794,Cloud_Experiment_FR_REAL,001,11,
images/fcloud80-20_D1.1_3.tif,1.1,2,,,,,0,92,92,83,,,,,,,,,,,,,,,,,,,1,space,2,1.434,6.29952043705,,,,,,,,,,,,,,,,,,2019_Jan_28_1537,60.474673111204794,Cloud_Experiment_FR_REAL,001,11,
images/fcloud_D1_1.tif,1.0,0,,,,,0,93,93,6,,,,,,,,,,,,,,,,,,,1,space,1,1.034,4.22816533895,,,,,,,,,,,,,,,,,,2019_Jan_28_1537,60.474673111204794,Cloud_Experiment_FR_REAL,001,11,
images/fcloud80-20_D1_1.tif,1.0,2,,,,,0,94,94,78,,,,,,,,,,,,,,,,,,,None,None,None,10.058,,,,,,,,,,,,,,,,,,,2019_Jan_28_1537,60.474673111204794,Cloud_Experiment_FR_REAL,001,11,
images/fcloud_D1.6_3.tif,1.6,0,,,,,0,95,95,26,,,,,,,,,,,,,,,,,,,None,None,None,18.552,,,,,,,,,,,,,,,,,,,2019_Jan_28_1537,60.474673111204794,Cloud_Experiment_FR_REAL,001,11,
images/fcloud80-20_D1.6_3.tif,1.6,2,,,,,0,96,96,98,,,,,,,,,,,,,,,,,,,2,space,4,3.081,4.31511638485,,,,,,,,,,,,,,,,,,2019_Jan_28_1537,60.474673111204794,Cloud_Experiment_FR_REAL,001,11,
images/fcloud80-20_D1.8_3.tif,1.8,2,,,,,0,97,97,104,,,,,,,,,,,,,,,,,,,None,None,None,11.539,,,,,,,,,,,,,,,,,,,2019_Jan_28_1537,60.474673111204794,Cloud_Experiment_FR_REAL,001,11,
images/fcloud80-20_D0.8_2.tif,0.8,2,,,,,0,98,98,73,,,,,,,,,,,,,,,,,,,1,None,2,1.267,,,,,,,,,,,,,,,,,,,2019_Jan_28_1537,60.474673111204794,Cloud_Experiment_FR_REAL,001,11,
images/fcloud_D1.5_1.tif,1.5,0,,,,,0,99,99,21,,,,,,,,,,,,,,,,,,,None,None,None,10.709,,,,,,,,,,,,,,,,,,,2019_Jan_28_1537,60.474673111204794,Cloud_Experiment_FR_REAL,001,11,
images/fcloud_D1.2_2.tif,1.2,0,,,,,0,100,100,13,,,,,,,,,,,,,,,,,,,None,None,None,19.651,,,,,,,,,,,,,,,,,,,2019_Jan_28_1537,60.474673111204794,Cloud_Experiment_FR_REAL,001,11,
images/fcloud80-20_D1.4_2.tif,1.4,2,,,,,0,101,101,91,,,,,,,,,,,,,,,,,,,None,None,None,28.042,,,,,,,,,,,,,,,,,,,2019_Jan_28_1537,60.474673111204794,Cloud_Experiment_FR_REAL,001,11,
images/fcloud80-20_D0.9_3.tif,0.9,2,,,,,0,102,102,77,,,,,,,,,,,,,,,,,,,2,None,1,1.366,,,,,,,,,,,,,,,,,,,2019_Jan_28_1537,60.474673111204794,Cloud_Experiment_FR_REAL,001,11,
images/fcloud_D1.3_1.tif,1.3,0,,,,,0,103,103,15,,,,,,,,,,,,,,,,,,,1,space,5,2.949,4.03831619897,,,,,,,,,,,,,,,,,,2019_Jan_28_1537,60.474673111204794,Cloud_Experiment_FR_REAL,001,11,
images/fcloud_D1.4_2.tif,1.4,0,,,,,0,104,104,19,,,,,,,,,,,,,,,,,,,None,None,None,12.19,,,,,,,,,,,,,,,,,,,2019_Jan_28_1537,60.474673111204794,Cloud_Experiment_FR_REAL,001,11,
images/fcloud_D1.1_3.tif,1.1,0,,,,,0,105,105,11,,,,,,,,,,,,,,,,,,,1,None,1,0.718,,,,,,,,,,,,,,,,,,,2019_Jan_28_1537,60.474673111204794,Cloud_Experiment_FR_REAL,001,11,
images/fcloud_D1.4_3.tif,1.4,0,,,,,0,106,106,20,,,,,,,,,,,,,,,,,,,None,None,None,9.259,,,,,,,,,,,,,,,,,,,2019_Jan_28_1537,60.474673111204794,Cloud_Experiment_FR_REAL,001,11,
images/fcloud65-35_D0.9_2.tif,0.9,1,,,,,0,107,107,40,,,,,,,,,,,,,,,,,,,1,space,3,1.302,4.07021646388,,,,,,,,,,,,,,,,,,2019_Jan_28_1537,60.474673111204794,Cloud_Experiment_FR_REAL,001,11,
,,,,,,,,,,,,,,,,,,,,,,,,,,,,,,,,,,,,,,,,,,,,,,space,3.61424459712,,,,2019_Jan_28_1537,60.474673111204794,Cloud_Experiment_FR_REAL,001,11,
,,,,,,,,,,,,,,,,,,,,,,,,,8,9.753,,,,,,,,,,,,,,,,,,,,,,,,,2019_Jan_28_1537,60.474673111204794,Cloud_Experiment_FR_REAL,001,11,
,,,,,,,,,,,,,,,,,,,,,,,,,,,,,,,,,,6,,,,,,,,,,,,,,,,,2019_Jan_28_1537,60.474673111204794,Cloud_Experiment_FR_REAL,001,11,
,,,,,,,,,,,,,,,,,,,,,,,,,,,,,,,,,,,5,,,,,,,,,,,,,,,,2019_Jan_28_1537,60.474673111204794,Cloud_Experiment_FR_REAL,001,11,
,,,,,,,,,,,,,,,,,,,,,,,,,,,,,,,,,,,,5,,,,,,,,,,,,,,,2019_Jan_28_1537,60.474673111204794,Cloud_Experiment_FR_REAL,001,11,
,,,,,,,,,,,,,,,,,,,,,,,,,,,,,,,,,,,,,6,,,,,,,,,,,,,,2019_Jan_28_1537,60.474673111204794,Cloud_Experiment_FR_REAL,001,11,
,,,,,,,,,,,,,,,,,,,,,,,,,,,,,,,,,,,,,,6,,,,,,,,,,,,,2019_Jan_28_1537,60.474673111204794,Cloud_Experiment_FR_REAL,001,11,
,,,,,,,,,,,,,,,,,,,,,,,,,,,,,,,,,,,,,,,5,,,,,,,,,,,,2019_Jan_28_1537,60.474673111204794,Cloud_Experiment_FR_REAL,001,11,
,,,,,,,,,,,,,,,,,,,,,,,,,,,,,,,,,,,,,,,,3,,,,,,,,,,,2019_Jan_28_1537,60.474673111204794,Cloud_Experiment_FR_REAL,001,11,
,,,,,,,,,,,,,,,,,,,,,,,,,,,,,,,,,,,,,,,,,7,,,,,,,,,,2019_Jan_28_1537,60.474673111204794,Cloud_Experiment_FR_REAL,001,11,
,,,,,,,,,,,,,,,,,,,,,,,,,,,,,,,,,,,,,,,,,,6,,,,,,,,,2019_Jan_28_1537,60.474673111204794,Cloud_Experiment_FR_REAL,001,11,
,,,,,,,,,,,,,,,,,,,,,,,,,,,,,,,,,,,,,,,,,,,3,,,,,,,,2019_Jan_28_1537,60.474673111204794,Cloud_Experiment_FR_REAL,001,11,
,,,,,,,,,,,,,,,,,,,,,,,,,,,,,,,,,,,,,,,,,,,,,,,,space,61.2306687921,,2019_Jan_28_1537,60.474673111204794,Cloud_Experiment_FR_REAL,001,11,
images/fcloud80-20_D1.1_5.tif,1.1,2,,,,,,,,,0,0,0,82,,,,,,,,,,,,,,,None,None,None,161.027,,,,,,,,,,,,,,,,,,,2019_Jan_28_1537,60.474673111204794,Cloud_Experiment_FR_REAL,001,11,
images/fcloud80-20_D1.4_4.tif,1.4,2,,,,,,,,,0,1,1,90,,,,,,,,,,,,,,,1,space,3,1.749,4.8393996236,,,,,,,,,,,,,,,,,,2019_Jan_28_1537,60.474673111204794,Cloud_Experiment_FR_REAL,001,11,
images/fcloud80-20_D1.5_5.tif,1.5,2,,,,,,,,,0,2,2,94,,,,,,,,,,,,,,,None,None,None,10.841,,,,,,,,,,,,,,,,,,,2019_Jan_28_1537,60.474673111204794,Cloud_Experiment_FR_REAL,001,11,
images/fcloud65-35_D1.5_4.tif,1.5,1,,,,,,,,,0,3,3,57,,,,,,,,,,,,,,,None,None,None,19.534,,,,,,,,,,,,,,,,,,,2019_Jan_28_1537,60.474673111204794,Cloud_Experiment_FR_REAL,001,11,
images/fcloud80-20_D1_5.tif,1.0,2,,,,,,,,,0,4,4,79,,,,,,,,,,,,,,,1,space,2,1.017,6.26970004314,,,,,,,,,,,,,,,,,,2019_Jan_28_1537,60.474673111204794,Cloud_Experiment_FR_REAL,001,11,
images/fcloud_D1.8_6.tif,1.8,0,,,,,,,,,0,5,5,32,,,,,,,,,,,,,,,1,None,2,0.985,,,,,,,,,,,,,,,,,,,2019_Jan_28_1537,60.474673111204794,Cloud_Experiment_FR_REAL,001,11,
images/fcloud80-20_D1.9_4.tif,1.9,2,,,,,,,,,0,6,6,105,,,,,,,,,,,,,,,None,None,None,9.442,,,,,,,,,,,,,,,,,,,2019_Jan_28_1537,60.474673111204794,Cloud_Experiment_FR_REAL,001,11,
images/fcloud80-20_D1.9_6.tif,1.9,2,,,,,,,,,0,7,7,107,,,,,,,,,,,,,,,None,None,None,17.952,,,,,,,,,,,,,,,,,,,2019_Jan_28_1537,60.474673111204794,Cloud_Experiment_FR_REAL,001,11,
images/fcloud_D1_4.tif,1.0,0,,,,,,,,,0,8,8,6,,,,,,,,,,,,,,,1,space,3,2.932,2.25345792682,,,,,,,,,,,,,,,,,,2019_Jan_28_1537,60.474673111204794,Cloud_Experiment_FR_REAL,001,11,
images/fcloud80-20_D1.3_4.tif,1.3,2,,,,,,,,,0,9,9,87,,,,,,,,,,,,,,,1,space,2,2.067,5.05920332615,,,,,,,,,,,,,,,,,,2019_Jan_28_1537,60.474673111204794,Cloud_Experiment_FR_REAL,001,11,
images/fcloud80-20_D0.8_6.tif,0.8,2,,,,,,,,,0,10,10,74,,,,,,,,,,,,,,,None,None,None,14.156,,,,,,,,,,,,,,,,,,,2019_Jan_28_1537,60.474673111204794,Cloud_Experiment_FR_REAL,001,11,
images/fcloud80-20_D0.8_5.tif,0.8,2,,,,,,,,,0,11,11,73,,,,,,,,,,,,,,,None,None,None,22.615,,,,,,,,,,,,,,,,,,,2019_Jan_28_1537,60.474673111204794,Cloud_Experiment_FR_REAL,001,11,
images/fcloud_D1_5.tif,1.0,0,,,,,,,,,0,12,12,7,,,,,,,,,,,,,,,1,None,2,0.852,,,,,,,,,,,,,,,,,,,2019_Jan_28_1537,60.474673111204794,Cloud_Experiment_FR_REAL,001,11,
images/fcloud65-35_D1.5_5.tif,1.5,1,,,,,,,,,0,13,13,58,,,,,,,,,,,,,,,None,None,None,10.491,,,,,,,,,,,,,,,,,,,2019_Jan_28_1537,60.474673111204794,Cloud_Experiment_FR_REAL,001,11,
images/fcloud65-35_D0.8_4.tif,0.8,1,,,,,,,,,0,14,14,36,,,,,,,,,,,,,,,None,None,None,19.001,,,,,,,,,,,,,,,,,,,2019_Jan_28_1537,60.474673111204794,Cloud_Experiment_FR_REAL,001,11,
images/fcloud65-35_D1.2_4.tif,1.2,1,,,,,,,,,0,15,15,48,,,,,,,,,,,,,,,1,space,3,0.751,6.49077757666,,,,,,,,,,,,,,,,,,2019_Jan_28_1537,60.474673111204794,Cloud_Experiment_FR_REAL,001,11,
images/fcloud80-20_D1.2_5.tif,1.2,2,,,,,,,,,0,16,16,85,,,,,,,,,,,,,,,None,None,None,10.325,,,,,,,,,,,,,,,,,,,2019_Jan_28_1537,60.474673111204794,Cloud_Experiment_FR_REAL,001,11,
images/fcloud80-20_D1.1_4.tif,1.1,2,,,,,,,,,0,17,17,81,,,,,,,,,,,,,,,None,None,None,19.652,,,,,,,,,,,,,,,,,,,2019_Jan_28_1537,60.474673111204794,Cloud_Experiment_FR_REAL,001,11,
images/fcloud65-35_D1.3_4.tif,1.3,1,,,,,,,,,0,18,18,51,,,,,,,,,,,,,,,1,None,3,3.2,,,,,,,,,,,,,,,,,,,2019_Jan_28_1537,60.474673111204794,Cloud_Experiment_FR_REAL,001,11,
images/fcloud_D0.9_5.tif,0.9,0,,,,,,,,,0,19,19,4,,,,,,,,,,,,,,,None,None,None,12.54,,,,,,,,,,,,,,,,,,,2019_Jan_28_1537,60.474673111204794,Cloud_Experiment_FR_REAL,001,11,
images/fcloud80-20_D1.6_6.tif,1.6,2,,,,,,,,,0,20,20,98,,,,,,,,,,,,,,,None,None,None,21.116,,,,,,,,,,,,,,,,,,,2019_Jan_28_1537,60.474673111204794,Cloud_Experiment_FR_REAL,001,11,
images/fcloud65-35_D1.7_4.tif,1.7,1,,,,,,,,,0,21,21,63,,,,,,,,,,,,,,,2,space,3,4.365,2.9637107242,,,,,,,,,,,,,,,,,,2019_Jan_28_1537,60.474673111204794,Cloud_Experiment_FR_REAL,001,11,
images/fcloud65-35_D1.7_6.tif,1.7,1,,,,,,,,,0,22,22,65,,,,,,,,,,,,,,,None,None,None,12.839,,,,,,,,,,,,,,,,,,,2019_Jan_28_1537,60.474673111204794,Cloud_Experiment_FR_REAL,001,11,
images/fcloud_D0.8_6.tif,0.8,0,,,,,,,,,0,23,23,2,,,,,,,,,,,,,,,2,space,4,2.483,2.9697226102,,,,,,,,,,,,,,,,,,2019_Jan_28_1537,60.474673111204794,Cloud_Experiment_FR_REAL,001,11,
images/fcloud65-35_D1.8_4.tif,1.8,1,,,,,,,,,0,24,24,66,,,,,,,,,,,,,,,None,None,None,11.508,,,,,,,,,,,,,,,,,,,2019_Jan_28_1537,60.474673111204794,Cloud_Experiment_FR_REAL,001,11,
images/fcloud80-20_D1.4_6.tif,1.4,2,,,,,,,,,0,25,25,92,,,,,,,,,,,,,,,None,None,None,20.467,,,,,,,,,,,,,,,,,,,2019_Jan_28_1537,60.474673111204794,Cloud_Experiment_FR_REAL,001,11,
images/fcloud65-35_D1_4.tif,1.0,1,,,,,,,,,0,26,26,42,,,,,,,,,,,,,,,None,None,None,29.158,,,,,,,,,,,,,,,,,,,2019_Jan_28_1537,60.474673111204794,Cloud_Experiment_FR_REAL,001,11,
images/fcloud_D1.6_5.tif,1.6,0,,,,,,,,,0,27,27,25,,,,,,,,,,,,,,,None,None,None,37.968,,,,,,,,,,,,,,,,,,,2019_Jan_28_1537,60.474673111204794,Cloud_Experiment_FR_REAL,001,11,
images/fcloud80-20_D1.8_6.tif,1.8,2,,,,,,,,,0,28,28,104,,,,,,,,,,,,,,,None,None,None,46.479,,,,,,,,,,,,,,,,,,,2019_Jan_28_1537,60.474673111204794,Cloud_Experiment_FR_REAL,001,11,
images/fcloud80-20_D1.7_4.tif,1.7,2,,,,,,,,,0,29,29,99,,,,,,,,,,,,,,,None,None,None,55.32,,,,,,,,,,,,,,,,,,,2019_Jan_28_1537,60.474673111204794,Cloud_Experiment_FR_REAL,001,11,
images/fcloud_D1.1_5.tif,1.1,0,,,,,,,,,0,30,30,10,,,,,,,,,,,,,,,None,None,None,63.812,,,,,,,,,,,,,,,,,,,2019_Jan_28_1537,60.474673111204794,Cloud_Experiment_FR_REAL,001,11,
images/fcloud_D1.3_6.tif,1.3,0,,,,,,,,,0,31,31,17,,,,,,,,,,,,,,,1,None,3,3.2,,,,,,,,,,,,,,,,,,,2019_Jan_28_1537,60.474673111204794,Cloud_Experiment_FR_REAL,001,11,
images/fcloud65-35_D0.9_6.tif,0.9,1,,,,,,,,,0,32,32,41,,,,,,,,,,,,,,,None,None,None,11.641,,,,,,,,,,,,,,,,,,,2019_Jan_28_1537,60.474673111204794,Cloud_Experiment_FR_REAL,001,11,
images/fcloud80-20_D1.2_4.tif,1.2,2,,,,,,,,,0,33,33,84,,,,,,,,,,,,,,,None,None,None,20.683,,,,,,,,,,,,,,,,,,,2019_Jan_28_1537,60.474673111204794,Cloud_Experiment_FR_REAL,001,11,
images/fcloud65-35_D1.1_6.tif,1.1,1,,,,,,,,,0,34,34,47,,,,,,,,,,,,,,,2,space,2,4.235,6.9574875611,,,,,,,,,,,,,,,,,,2019_Jan_28_1537,60.474673111204794,Cloud_Experiment_FR_REAL,001,11,
images/fcloud65-35_D1.2_6.tif,1.2,1,,,,,,,,,0,35,35,50,,,,,,,,,,,,,,,None,None,None,13.156,,,,,,,,,,,,,,,,,,,2019_Jan_28_1537,60.474673111204794,Cloud_Experiment_FR_REAL,001,11,
images/fcloud_D1.9_4.tif,1.9,0,,,,,,,,,0,36,36,33,,,,,,,,,,,,,,,None,None,None,21.898,,,,,,,,,,,,,,,,,,,2019_Jan_28_1537,60.474673111204794,Cloud_Experiment_FR_REAL,001,11,
images/fcloud_D1.2_5.tif,1.2,0,,,,,,,,,0,37,37,13,,,,,,,,,,,,,,,None,None,None,30.508,,,,,,,,,,,,,,,,,,,2019_Jan_28_1537,60.474673111204794,Cloud_Experiment_FR_REAL,001,11,
images/fcloud_D1.2_6.tif,1.2,0,,,,,,,,,0,38,38,14,,,,,,,,,,,,,,,None,None,None,39.05,,,,,,,,,,,,,,,,,,,2019_Jan_28_1537,60.474673111204794,Cloud_Experiment_FR_REAL,001,11,
images/fcloud_D1.4_5.tif,1.4,0,,,,,,,,,0,39,39,19,,,,,,,,,,,,,,,None,None,None,47.726,,,,,,,,,,,,,,,,,,,2019_Jan_28_1537,60.474673111204794,Cloud_Experiment_FR_REAL,001,11,
images/fcloud80-20_D1.3_5.tif,1.3,2,,,,,,,,,0,40,40,88,,,,,,,,,,,,,,,None,None,None,58.134,,,,,,,,,,,,,,,,,,,2019_Jan_28_1537,60.474673111204794,Cloud_Experiment_FR_REAL,001,11,
images/fcloud_D1.1_4.tif,1.1,0,,,,,,,,,0,41,41,9,,,,,,,,,,,,,,,2,space,3,1.667,5.94348467316,,,,,,,,,,,,,,,,,,2019_Jan_28_1537,60.474673111204794,Cloud_Experiment_FR_REAL,001,11,
images/fcloud_D1.7_5.tif,1.7,0,,,,,,,,,0,42,42,28,,,,,,,,,,,,,,,1,None,2,0.985,,,,,,,,,,,,,,,,,,,2019_Jan_28_1537,60.474673111204794,Cloud_Experiment_FR_REAL,001,11,
images/fcloud80-20_D0.9_4.tif,0.9,2,,,,,,,,,0,43,43,75,,,,,,,,,,,,,,,2,space,3,1.619,4.35287380489,,,,,,,,,,,,,,,,,,2019_Jan_28_1537,60.474673111204794,Cloud_Experiment_FR_REAL,001,11,
images/fcloud_D1.2_4.tif,1.2,0,,,,,,,,,0,44,44,12,,,,,,,,,,,,,,,None,None,None,11.175,,,,,,,,,,,,,,,,,,,2019_Jan_28_1537,60.474673111204794,Cloud_Experiment_FR_REAL,001,11,
images/fcloud_D1.3_5.tif,1.3,0,,,,,,,,,0,45,45,16,,,,,,,,,,,,,,,1,space,2,0.867,3.45596107157,,,,,,,,,,,,,,,,,,2019_Jan_28_1537,60.474673111204794,Cloud_Experiment_FR_REAL,001,11,
images/fcloud65-35_D1.8_6.tif,1.8,1,,,,,,,,,0,46,46,68,,,,,,,,,,,,,,,None,None,None,9.609,,,,,,,,,,,,,,,,,,,2019_Jan_28_1537,60.474673111204794,Cloud_Experiment_FR_REAL,001,11,
images/fcloud80-20_D0.9_5.tif,0.9,2,,,,,,,,,0,47,47,76,,,,,,,,,,,,,,,1,space,4,4.798,5.37413722111,,,,,,,,,,,,,,,,,,2019_Jan_28_1537,60.474673111204794,Cloud_Experiment_FR_REAL,001,11,
images/fcloud_D1.5_4.tif,1.5,0,,,,,,,,,0,48,48,21,,,,,,,,,,,,,,,None,None,None,13.972,,,,,,,,,,,,,,,,,,,2019_Jan_28_1537,60.474673111204794,Cloud_Experiment_FR_REAL,001,11,
images/fcloud65-35_D1.6_4.tif,1.6,1,,,,,,,,,0,49,49,60,,,,,,,,,,,,,,,None,None,None,22.481,,,,,,,,,,,,,,,,,,,2019_Jan_28_1537,60.474673111204794,Cloud_Experiment_FR_REAL,001,11,
images/fcloud65-35_D1_6.tif,1.0,1,,,,,,,,,0,50,50,44,,,,,,,,,,,,,,,None,None,None,30.974,,,,,,,,,,,,,,,,,,,2019_Jan_28_1537,60.474673111204794,Cloud_Experiment_FR_REAL,001,11,
images/fcloud80-20_D0.8_4.tif,0.8,2,,,,,,,,,0,51,51,72,,,,,,,,,,,,,,,None,None,None,39.301,,,,,,,,,,,,,,,,,,,2019_Jan_28_1537,60.474673111204794,Cloud_Experiment_FR_REAL,001,11,
images/fcloud80-20_D1.6_5.tif,1.6,2,,,,,,,,,0,52,52,97,,,,,,,,,,,,,,,None,None,None,48.259,,,,,,,,,,,,,,,,,,,2019_Jan_28_1537,60.474673111204794,Cloud_Experiment_FR_REAL,001,11,
images/fcloud80-20_D1.7_6.tif,1.7,2,,,,,,,,,0,53,53,101,,,,,,,,,,,,,,,None,None,None,56.951,,,,,,,,,,,,,,,,,,,2019_Jan_28_1537,60.474673111204794,Cloud_Experiment_FR_REAL,001,11,
images/fcloud65-35_D1.4_6.tif,1.4,1,,,,,,,,,0,54,54,56,,,,,,,,,,,,,,,None,None,None,65.66,,,,,,,,,,,,,,,,,,,2019_Jan_28_1537,60.474673111204794,Cloud_Experiment_FR_REAL,001,11,
images/fcloud80-20_D0.9_6.tif,0.9,2,,,,,,,,,0,55,55,77,,,,,,,,,,,,,,,None,None,None,74.619,,,,,,,,,,,,,,,,,,,2019_Jan_28_1537,60.474673111204794,Cloud_Experiment_FR_REAL,001,11,
images/fcloud65-35_D1.1_4.tif,1.1,1,,,,,,,,,0,56,56,45,,,,,,,,,,,,,,,None,None,None,83.095,,,,,,,,,,,,,,,,,,,2019_Jan_28_1537,60.474673111204794,Cloud_Experiment_FR_REAL,001,11,
images/fcloud80-20_D1.8_5.tif,1.8,2,,,,,,,,,0,57,57,103,,,,,,,,,,,,,,,None,None,None,91.588,,,,,,,,,,,,,,,,,,,2019_Jan_28_1537,60.474673111204794,Cloud_Experiment_FR_REAL,001,11,
images/fcloud_D1.4_6.tif,1.4,0,,,,,,,,,0,58,58,20,,,,,,,,,,,,,,,1,space,2,1.316,5.52143279772,,,,,,,,,,,,,,,,,,2019_Jan_28_1537,60.474673111204794,Cloud_Experiment_FR_REAL,001,11,
images/fcloud65-35_D1.5_6.tif,1.5,1,,,,,,,,,0,59,59,59,,,,,,,,,,,,,,,None,None,None,9.825,,,,,,,,,,,,,,,,,,,2019_Jan_28_1537,60.474673111204794,Cloud_Experiment_FR_REAL,001,11,
images/fcloud_D0.9_6.tif,0.9,0,,,,,,,,,0,60,60,5,,,,,,,,,,,,,,,None,None,None,18.933,,,,,,,,,,,,,,,,,,,2019_Jan_28_1537,60.474673111204794,Cloud_Experiment_FR_REAL,001,11,
images/fcloud80-20_D1.1_6.tif,1.1,2,,,,,,,,,0,61,61,83,,,,,,,,,,,,,,,None,None,None,27.442,,,,,,,,,,,,,,,,,,,2019_Jan_28_1537,60.474673111204794,Cloud_Experiment_FR_REAL,001,11,
images/fcloud65-35_D1.6_5.tif,1.6,1,,,,,,,,,0,62,62,61,,,,,,,,,,,,,,,None,None,None,35.951,,,,,,,,,,,,,,,,,,,2019_Jan_28_1537,60.474673111204794,Cloud_Experiment_FR_REAL,001,11,
images/fcloud80-20_D1_6.tif,1.0,2,,,,,,,,,0,63,63,80,,,,,,,,,,,,,,,None,None,None,44.677,,,,,,,,,,,,,,,,,,,2019_Jan_28_1537,60.474673111204794,Cloud_Experiment_FR_REAL,001,11,
images/fcloud_D0.9_4.tif,0.9,0,,,,,,,,,0,64,64,3,,,,,,,,,,,,,,,None,None,None,53.204,,,,,,,,,,,,,,,,,,,2019_Jan_28_1537,60.474673111204794,Cloud_Experiment_FR_REAL,001,11,
images/fcloud_D1.8_4.tif,1.8,0,,,,,,,,,0,65,65,30,,,,,,,,,,,,,,,None,None,None,61.746,,,,,,,,,,,,,,,,,,,2019_Jan_28_1537,60.474673111204794,Cloud_Experiment_FR_REAL,001,11,
images/fcloud80-20_D1.6_4.tif,1.6,2,,,,,,,,,0,66,66,96,,,,,,,,,,,,,,,1,space,1,1.701,7.41600092119,,,,,,,,,,,,,,,,,,2019_Jan_28_1537,60.474673111204794,Cloud_Experiment_FR_REAL,001,11,
images/fcloud65-35_D1.9_5.tif,1.9,1,,,,,,,,,0,67,67,70,,,,,,,,,,,,,,,None,None,None,10.876,,,,,,,,,,,,,,,,,,,2019_Jan_28_1537,60.474673111204794,Cloud_Experiment_FR_REAL,001,11,
images/fcloud_D1.1_6.tif,1.1,0,,,,,,,,,0,68,68,11,,,,,,,,,,,,,,,None,None,None,20.467,,,,,,,,,,,,,,,,,,,2019_Jan_28_1537,60.474673111204794,Cloud_Experiment_FR_REAL,001,11,
images/fcloud65-35_D1.7_5.tif,1.7,1,,,,,,,,,0,69,69,64,,,,,,,,,,,,,,,1,space,1,0.801,6.63141201442,,,,,,,,,,,,,,,,,,2019_Jan_28_1537,60.474673111204794,Cloud_Experiment_FR_REAL,001,11,
images/fcloud65-35_D1.3_6.tif,1.3,1,,,,,,,,,0,70,70,53,,,,,,,,,,,,,,,None,None,None,9.959,,,,,,,,,,,,,,,,,,,2019_Jan_28_1537,60.474673111204794,Cloud_Experiment_FR_REAL,001,11,
images/fcloud65-35_D1.9_4.tif,1.9,1,,,,,,,,,0,71,71,69,,,,,,,,,,,,,,,None,None,None,18.534,,,,,,,,,,,,,,,,,,,2019_Jan_28_1537,60.474673111204794,Cloud_Experiment_FR_REAL,001,11,
images/fcloud65-35_D1.4_5.tif,1.4,1,,,,,,,,,0,72,72,55,,,,,,,,,,,,,,,None,None,None,26.977,,,,,,,,,,,,,,,,,,,2019_Jan_28_1537,60.474673111204794,Cloud_Experiment_FR_REAL,001,11,
images/fcloud80-20_D1.5_6.tif,1.5,2,,,,,,,,,0,73,73,95,,,,,,,,,,,,,,,None,None,None,35.386,,,,,,,,,,,,,,,,,,,2019_Jan_28_1537,60.474673111204794,Cloud_Experiment_FR_REAL,001,11,
images/fcloud65-35_D1.6_6.tif,1.6,1,,,,,,,,,0,74,74,62,,,,,,,,,,,,,,,None,None,None,44.03,,,,,,,,,,,,,,,,,,,2019_Jan_28_1537,60.474673111204794,Cloud_Experiment_FR_REAL,001,11,
images/fcloud65-35_D1.2_5.tif,1.2,1,,,,,,,,,0,75,75,49,,,,,,,,,,,,,,,None,None,None,52.621,,,,,,,,,,,,,,,,,,,2019_Jan_28_1537,60.474673111204794,Cloud_Experiment_FR_REAL,001,11,
images/fcloud_D1.7_6.tif,1.7,0,,,,,,,,,0,76,76,29,,,,,,,,,,,,,,,1,space,2,1.484,7.51976005919,,,,,,,,,,,,,,,,,,2019_Jan_28_1537,60.474673111204794,Cloud_Experiment_FR_REAL,001,11,
images/fcloud80-20_D1.2_6.tif,1.2,2,,,,,,,,,0,77,77,86,,,,,,,,,,,,,,,2,space,1,3.648,3.51921361755,,,,,,,,,,,,,,,,,,2019_Jan_28_1537,60.474673111204794,Cloud_Experiment_FR_REAL,001,11,
images/fcloud_D1.4_4.tif,1.4,0,,,,,,,,,0,78,78,18,,,,,,,,,,,,,,,None,None,None,12.24,,,,,,,,,,,,,,,,,,,2019_Jan_28_1537,60.474673111204794,Cloud_Experiment_FR_REAL,001,11,
images/fcloud80-20_D1.5_4.tif,1.5,2,,,,,,,,,0,79,79,93,,,,,,,,,,,,,,,None,None,None,20.933,,,,,,,,,,,,,,,,,,,2019_Jan_28_1537,60.474673111204794,Cloud_Experiment_FR_REAL,001,11,
images/fcloud_D1.8_5.tif,1.8,0,,,,,,,,,0,80,80,31,,,,,,,,,,,,,,,None,None,None,29.441,,,,,,,,,,,,,,,,,,,2019_Jan_28_1537,60.474673111204794,Cloud_Experiment_FR_REAL,001,11,
images/fcloud80-20_D1.8_4.tif,1.8,2,,,,,,,,,0,81,81,102,,,,,,,,,,,,,,,None,None,None,38.051,,,,,,,,,,,,,,,,,,,2019_Jan_28_1537,60.474673111204794,Cloud_Experiment_FR_REAL,001,11,
images/fcloud65-35_D0.9_5.tif,0.9,1,,,,,,,,,0,82,82,40,,,,,,,,,,,,,,,None,None,None,46.628,,,,,,,,,,,,,,,,,,,2019_Jan_28_1537,60.474673111204794,Cloud_Experiment_FR_REAL,001,11,
images/fcloud_D1.9_5.tif,1.9,0,,,,,,,,,0,83,83,34,,,,,,,,,,,,,,,1,None,2,1.101,,,,,,,,,,,,,,,,,,,2019_Jan_28_1537,60.474673111204794,Cloud_Experiment_FR_REAL,001,11,
images/fcloud_D0.8_5.tif,0.8,0,,,,,,,,,0,84,84,1,,,,,,,,,,,,,,,2,space,3,3.065,6.4138696446,,,,,,,,,,,,,,,,,,2019_Jan_28_1537,60.474673111204794,Cloud_Experiment_FR_REAL,001,11,
images/fcloud80-20_D1.3_6.tif,1.3,2,,,,,,,,,0,85,85,89,,,,,,,,,,,,,,,None,None,None,11.523,,,,,,,,,,,,,,,,,,,2019_Jan_28_1537,60.474673111204794,Cloud_Experiment_FR_REAL,001,11,
images/fcloud_D1.6_6.tif,1.6,0,,,,,,,,,0,86,86,26,,,,,,,,,,,,,,,None,None,None,20.232,,,,,,,,,,,,,,,,,,,2019_Jan_28_1537,60.474673111204794,Cloud_Experiment_FR_REAL,001,11,
images/fcloud_D1.7_4.tif,1.7,0,,,,,,,,,0,87,87,27,,,,,,,,,,,,,,,None,None,None,28.792,,,,,,,,,,,,,,,,,,,2019_Jan_28_1537,60.474673111204794,Cloud_Experiment_FR_REAL,001,11,
images/fcloud65-35_D1_5.tif,1.0,1,,,,,,,,,0,88,88,43,,,,,,,,,,,,,,,3,space,4,1.617,2.86772719867,,,,,,,,,,,,,,,,,,2019_Jan_28_1537,60.474673111204794,Cloud_Experiment_FR_REAL,001,11,
images/fcloud_D1_6.tif,1.0,0,,,,,,,,,0,89,89,8,,,,,,,,,,,,,,,None,None,None,11.058,,,,,,,,,,,,,,,,,,,2019_Jan_28_1537,60.474673111204794,Cloud_Experiment_FR_REAL,001,11,
images/fcloud65-35_D1.1_5.tif,1.1,1,,,,,,,,,0,90,90,46,,,,,,,,,,,,,,,None,None,None,20.017,,,,,,,,,,,,,,,,,,,2019_Jan_28_1537,60.474673111204794,Cloud_Experiment_FR_REAL,001,11,
images/fcloud65-35_D0.9_4.tif,0.9,1,,,,,,,,,0,91,91,39,,,,,,,,,,,,,,,None,None,None,28.395,,,,,,,,,,,,,,,,,,,2019_Jan_28_1537,60.474673111204794,Cloud_Experiment_FR_REAL,001,11,
images/fcloud65-35_D1.9_6.tif,1.9,1,,,,,,,,,0,92,92,71,,,,,,,,,,,,,,,None,None,None,36.753,,,,,,,,,,,,,,,,,,,2019_Jan_28_1537,60.474673111204794,Cloud_Experiment_FR_REAL,001,11,
images/fcloud65-35_D1.8_5.tif,1.8,1,,,,,,,,,0,93,93,67,,,,,,,,,,,,,,,None,None,None,45.911,,,,,,,,,,,,,,,,,,,2019_Jan_28_1537,60.474673111204794,Cloud_Experiment_FR_REAL,001,11,
images/fcloud65-35_D0.8_6.tif,0.8,1,,,,,,,,,0,94,94,38,,,,,,,,,,,,,,,None,None,None,55.036,,,,,,,,,,,,,,,,,,,2019_Jan_28_1537,60.474673111204794,Cloud_Experiment_FR_REAL,001,11,
images/fcloud_D1.6_4.tif,1.6,0,,,,,,,,,0,95,95,24,,,,,,,,,,,,,,,None,None,None,64.179,,,,,,,,,,,,,,,,,,,2019_Jan_28_1537,60.474673111204794,Cloud_Experiment_FR_REAL,001,11,
images/fcloud80-20_D1.9_5.tif,1.9,2,,,,,,,,,0,96,96,106,,,,,,,,,,,,,,,None,None,None,73.403,,,,,,,,,,,,,,,,,,,2019_Jan_28_1537,60.474673111204794,Cloud_Experiment_FR_REAL,001,11,
images/fcloud80-20_D1_4.tif,1.0,2,,,,,,,,,0,97,97,78,,,,,,,,,,,,,,,None,None,None,82.662,,,,,,,,,,,,,,,,,,,2019_Jan_28_1537,60.474673111204794,Cloud_Experiment_FR_REAL,001,11,
images/fcloud65-35_D1.3_5.tif,1.3,1,,,,,,,,,0,98,98,52,,,,,,,,,,,,,,,None,None,None,91.805,,,,,,,,,,,,,,,,,,,2019_Jan_28_1537,60.474673111204794,Cloud_Experiment_FR_REAL,001,11,
images/fcloud80-20_D1.7_5.tif,1.7,2,,,,,,,,,0,99,99,100,,,,,,,,,,,,,,,1,space,2,2.267,6.09515846553,,,,,,,,,,,,,,,,,,2019_Jan_28_1537,60.474673111204794,Cloud_Experiment_FR_REAL,001,11,
images/fcloud_D1.3_4.tif,1.3,0,,,,,,,,,0,100,100,15,,,,,,,,,,,,,,,None,None,None,11.441,,,,,,,,,,,,,,,,,,,2019_Jan_28_1537,60.474673111204794,Cloud_Experiment_FR_REAL,001,11,
images/fcloud65-35_D1.4_4.tif,1.4,1,,,,,,,,,0,101,101,54,,,,,,,,,,,,,,,None,None,None,19.883,,,,,,,,,,,,,,,,,,,2019_Jan_28_1537,60.474673111204794,Cloud_Experiment_FR_REAL,001,11,
images/fcloud_D0.8_4.tif,0.8,0,,,,,,,,,0,102,102,0,,,,,,,,,,,,,,,1,space,3,1.467,3.83936312562,,,,,,,,,,,,,,,,,,2019_Jan_28_1537,60.474673111204794,Cloud_Experiment_FR_REAL,001,11,
images/fcloud65-35_D0.8_5.tif,0.8,1,,,,,,,,,0,103,103,37,,,,,,,,,,,,,,,None,None,None,9.927,,,,,,,,,,,,,,,,,,,2019_Jan_28_1537,60.474673111204794,Cloud_Experiment_FR_REAL,001,11,
images/fcloud80-20_D1.4_5.tif,1.4,2,,,,,,,,,0,104,104,91,,,,,,,,,,,,,,,None,None,None,18.601,,,,,,,,,,,,,,,,,,,2019_Jan_28_1537,60.474673111204794,Cloud_Experiment_FR_REAL,001,11,
images/fcloud_D1.5_6.tif,1.5,0,,,,,,,,,0,105,105,23,,,,,,,,,,,,,,,None,None,None,27.343,,,,,,,,,,,,,,,,,,,2019_Jan_28_1537,60.474673111204794,Cloud_Experiment_FR_REAL,001,11,
images/fcloud_D1.9_6.tif,1.9,0,,,,,,,,,0,106,106,35,,,,,,,,,,,,,,,None,None,None,35.969,,,,,,,,,,,,,,,,,,,2019_Jan_28_1537,60.474673111204794,Cloud_Experiment_FR_REAL,001,11,
images/fcloud_D1.5_5.tif,1.5,0,,,,,,,,,0,107,107,22,,,,,,,,,,,,,,,None,None,None,44.711,,,,,,,,,,,,,,,,,,,2019_Jan_28_1537,60.474673111204794,Cloud_Experiment_FR_REAL,001,11,
,,,,,,,,,,,,,,,,,,,,,,,,,,,,,,,,,,,,,,,,,,,,,,space,2.39777094999,,,,2019_Jan_28_1537,60.474673111204794,Cloud_Experiment_FR_REAL,001,11,
,,,,,,,,,,,,,,,,,,,,,,,,,8,9.602,,,,,,,,,,,,,,,,,,,,,,,,,2019_Jan_28_1537,60.474673111204794,Cloud_Experiment_FR_REAL,001,11,
,,,,,,,,,,,,,,,,,,,,,,,,,,,,,,,,,,5,,,,,,,,,,,,,,,,,2019_Jan_28_1537,60.474673111204794,Cloud_Experiment_FR_REAL,001,11,
,,,,,,,,,,,,,,,,,,,,,,,,,,,,,,,,,,,5,,,,,,,,,,,,,,,,2019_Jan_28_1537,60.474673111204794,Cloud_Experiment_FR_REAL,001,11,
,,,,,,,,,,,,,,,,,,,,,,,,,,,,,,,,,,,,4,,,,,,,,,,,,,,,2019_Jan_28_1537,60.474673111204794,Cloud_Experiment_FR_REAL,001,11,
,,,,,,,,,,,,,,,,,,,,,,,,,,,,,,,,,,,,,5,,,,,,,,,,,,,,2019_Jan_28_1537,60.474673111204794,Cloud_Experiment_FR_REAL,001,11,
,,,,,,,,,,,,,,,,,,,,,,,,,,,,,,,,,,,,,,5,,,,,,,,,,,,,2019_Jan_28_1537,60.474673111204794,Cloud_Experiment_FR_REAL,001,11,
,,,,,,,,,,,,,,,,,,,,,,,,,,,,,,,,,,,,,,,6,,,,,,,,,,,,2019_Jan_28_1537,60.474673111204794,Cloud_Experiment_FR_REAL,001,11,
,,,,,,,,,,,,,,,,,,,,,,,,,,,,,,,,,,,,,,,,5,,,,,,,,,,,2019_Jan_28_1537,60.474673111204794,Cloud_Experiment_FR_REAL,001,11,
,,,,,,,,,,,,,,,,,,,,,,,,,,,,,,,,,,,,,,,,,7,,,,,,,,,,2019_Jan_28_1537,60.474673111204794,Cloud_Experiment_FR_REAL,001,11,
,,,,,,,,,,,,,,,,,,,,,,,,,,,,,,,,,,,,,,,,,,7,,,,,,,,,2019_Jan_28_1537,60.474673111204794,Cloud_Experiment_FR_REAL,001,11,
,,,,,,,,,,,,,,,,,,,,,,,,,,,,,,,,,,,,,,,,,,,3,,,,,,,,2019_Jan_28_1537,60.474673111204794,Cloud_Experiment_FR_REAL,001,11,
,,,,,,,,,,,,,,,,,,,,,,,,,,,,,,,,,,,,,,,,,,,,,,,,space,117.699468415,,2019_Jan_28_1537,60.474673111204794,Cloud_Experiment_FR_REAL,001,11,
images/fcloud65-35_D1.3_10.tif,1.3,1,,,,,,,,,,,,,0,0,0,71,,,,,,,,,,,None,None,None,235.179,,,,,,,,,,,,,,,,,,,2019_Jan_28_1537,60.474673111204794,Cloud_Experiment_FR_REAL,001,11,
images/fcloud_D1.6_8.tif,1.6,0,,,,,,,,,,,,,0,1,1,33,,,,,,,,,,,1,space,2,4.281,5.77310386553,,,,,,,,,,,,,,,,,,2019_Jan_28_1537,60.474673111204794,Cloud_Experiment_FR_REAL,001,11,
images/fcloud_D1.7_7.tif,1.7,0,,,,,,,,,,,,,0,2,2,36,,,,,,,,,,,None,None,None,13.588,,,,,,,,,,,,,,,,,,,2019_Jan_28_1537,60.474673111204794,Cloud_Experiment_FR_REAL,001,11,
images/fcloud65-35_D1.5_8.tif,1.5,1,,,,,,,,,,,,,0,3,3,77,,,,,,,,,,,None,None,None,22.764,,,,,,,,,,,,,,,,,,,2019_Jan_28_1537,60.474673111204794,Cloud_Experiment_FR_REAL,001,11,
images/fcloud80-20_D0.9_8.tif,0.9,2,,,,,,,,,,,,,0,4,4,101,,,,,,,,,,,None,None,None,32.139,,,,,,,,,,,,,,,,,,,2019_Jan_28_1537,60.474673111204794,Cloud_Experiment_FR_REAL,001,11,
images/fcloud_D1.9_7.tif,1.9,0,,,,,,,,,,,,,0,5,5,44,,,,,,,,,,,None,None,None,40.816,,,,,,,,,,,,,,,,,,,2019_Jan_28_1537,60.474673111204794,Cloud_Experiment_FR_REAL,001,11,
images/fcloud_D0.8_9.tif,0.8,0,,,,,,,,,,,,,0,6,6,2,,,,,,,,,,,None,None,None,49.758,,,,,,,,,,,,,,,,,,,2019_Jan_28_1537,60.474673111204794,Cloud_Experiment_FR_REAL,001,11,
images/fcloud80-20_D1_8.tif,1.0,2,,,,,,,,,,,,,0,7,7,105,,,,,,,,,,,None,None,None,58.366,,,,,,,,,,,,,,,,,,,2019_Jan_28_1537,60.474673111204794,Cloud_Experiment_FR_REAL,001,11,
images/fcloud_D1.1_8.tif,1.1,0,,,,,,,,,,,,,0,8,8,13,,,,,,,,,,,None,None,None,66.992,,,,,,,,,,,,,,,,,,,2019_Jan_28_1537,60.474673111204794,Cloud_Experiment_FR_REAL,001,11,
images/fcloud_D1.4_9.tif,1.4,0,,,,,,,,,,,,,0,9,9,26,,,,,,,,,,,None,None,None,75.601,,,,,,,,,,,,,,,,,,,2019_Jan_28_1537,60.474673111204794,Cloud_Experiment_FR_REAL,001,11,
images/fcloud_D1.6_7.tif,1.6,0,,,,,,,,,,,,,0,10,10,32,,,,,,,,,,,None,None,None,84.127,,,,,,,,,,,,,,,,,,,2019_Jan_28_1537,60.474673111204794,Cloud_Experiment_FR_REAL,001,11,
images/fcloud_D1.3_10.tif,1.3,0,,,,,,,,,,,,,0,11,11,23,,,,,,,,,,,None,None,None,92.686,,,,,,,,,,,,,,,,,,,2019_Jan_28_1537,60.474673111204794,Cloud_Experiment_FR_REAL,001,11,
images/fcloud80-20_D1.3_10.tif,1.3,2,,,,,,,,,,,,,0,12,12,119,,,,,,,,,,,None,None,None,101.413,,,,,,,,,,,,,,,,,,,2019_Jan_28_1537,60.474673111204794,Cloud_Experiment_FR_REAL,001,11,
images/fcloud_D1.1_7.tif,1.1,0,,,,,,,,,,,,,0,13,13,12,,,,,,,,,,,None,None,None,110.188,,,,,,,,,,,,,,,,,,,2019_Jan_28_1537,60.474673111204794,Cloud_Experiment_FR_REAL,001,11,
images/fcloud65-35_D1.1_10.tif,1.1,1,,,,,,,,,,,,,0,14,14,63,,,,,,,,,,,None,None,None,118.78,,,,,,,,,,,,,,,,,,,2019_Jan_28_1537,60.474673111204794,Cloud_Experiment_FR_REAL,001,11,
images/fcloud65-35_D1.7_10.tif,1.7,1,,,,,,,,,,,,,0,15,15,87,,,,,,,,,,,None,None,None,127.206,,,,,,,,,,,,,,,,,,,2019_Jan_28_1537,60.474673111204794,Cloud_Experiment_FR_REAL,001,11,
images/fcloud80-20_D1.6_7.tif,1.6,2,,,,,,,,,,,,,0,16,16,128,,,,,,,,,,,None,None,None,135.749,,,,,,,,,,,,,,,,,,,2019_Jan_28_1537,60.474673111204794,Cloud_Experiment_FR_REAL,001,11,
images/fcloud65-35_D1_8.tif,1.0,1,,,,,,,,,,,,,0,17,17,57,,,,,,,,,,,None,None,None,144.341,,,,,,,,,,,,,,,,,,,2019_Jan_28_1537,60.474673111204794,Cloud_Experiment_FR_REAL,001,11,
images/fcloud_D1.4_8.tif,1.4,0,,,,,,,,,,,,,0,18,18,25,,,,,,,,,,,None,None,None,153.085,,,,,,,,,,,,,,,,,,,2019_Jan_28_1537,60.474673111204794,Cloud_Experiment_FR_REAL,001,11,
images/fcloud80-20_D1.6_10.tif,1.6,2,,,,,,,,,,,,,0,19,19,131,,,,,,,,,,,None,None,None,161.509,,,,,,,,,,,,,,,,,,,2019_Jan_28_1537,60.474673111204794,Cloud_Experiment_FR_REAL,001,11,
images/fcloud65-35_D1.4_8.tif,1.4,1,,,,,,,,,,,,,0,20,20,73,,,,,,,,,,,None,None,None,170.069,,,,,,,,,,,,,,,,,,,2019_Jan_28_1537,60.474673111204794,Cloud_Experiment_FR_REAL,001,11,
images/fcloud80-20_D1_7.tif,1.0,2,,,,,,,,,,,,,0,21,21,104,,,,,,,,,,,None,None,None,178.511,,,,,,,,,,,,,,,,,,,2019_Jan_28_1537,60.474673111204794,Cloud_Experiment_FR_REAL,001,11,
images/fcloud80-20_D1.4_7.tif,1.4,2,,,,,,,,,,,,,0,22,22,120,,,,,,,,,,,None,None,None,186.937,,,,,,,,,,,,,,,,,,,2019_Jan_28_1537,60.474673111204794,Cloud_Experiment_FR_REAL,001,11,
images/fcloud65-35_D1.4_7.tif,1.4,1,,,,,,,,,,,,,0,23,23,72,,,,,,,,,,,None,None,None,195.43,,,,,,,,,,,,,,,,,,,2019_Jan_28_1537,60.474673111204794,Cloud_Experiment_FR_REAL,001,11,
images/fcloud_D1.2_8.tif,1.2,0,,,,,,,,,,,,,0,24,24,17,,,,,,,,,,,2,space,2,3.549,6.42674880597,,,,,,,,,,,,,,,,,,2019_Jan_28_1537,60.474673111204794,Cloud_Experiment_FR_REAL,001,11,
images/fcloud_D1.4_10.tif,1.4,0,,,,,,,,,,,,,0,25,25,27,,,,,,,,,,,None,None,None,12.773,,,,,,,,,,,,,,,,,,,2019_Jan_28_1537,60.474673111204794,Cloud_Experiment_FR_REAL,001,11,
images/fcloud80-20_D1.1_8.tif,1.1,2,,,,,,,,,,,,,0,26,26,109,,,,,,,,,,,None,None,None,22.714,,,,,,,,,,,,,,,,,,,2019_Jan_28_1537,60.474673111204794,Cloud_Experiment_FR_REAL,001,11,
images/fcloud_D1.1_9.tif,1.1,0,,,,,,,,,,,,,0,27,27,14,,,,,,,,,,,None,None,None,32.157,,,,,,,,,,,,,,,,,,,2019_Jan_28_1537,60.474673111204794,Cloud_Experiment_FR_REAL,001,11,
images/fcloud_D0.9_8.tif,0.9,0,,,,,,,,,,,,,0,28,28,5,,,,,,,,,,,1,space,4,2.3,3.51448789987,,,,,,,,,,,,,,,,,,2019_Jan_28_1537,60.474673111204794,Cloud_Experiment_FR_REAL,001,11,
images/fcloud_D1.5_10.tif,1.5,0,,,,,,,,,,,,,0,29,29,31,,,,,,,,,,,None,None,None,11.907,,,,,,,,,,,,,,,,,,,2019_Jan_28_1537,60.474673111204794,Cloud_Experiment_FR_REAL,001,11,
images/fcloud65-35_D1.6_9.tif,1.6,1,,,,,,,,,,,,,0,30,30,82,,,,,,,,,,,None,None,None,21.316,,,,,,,,,,,,,,,,,,,2019_Jan_28_1537,60.474673111204794,Cloud_Experiment_FR_REAL,001,11,
images/fcloud_D1.7_8.tif,1.7,0,,,,,,,,,,,,,0,31,31,37,,,,,,,,,,,None,None,None,30.524,,,,,,,,,,,,,,,,,,,2019_Jan_28_1537,60.474673111204794,Cloud_Experiment_FR_REAL,001,11,
images/fcloud_D1.5_7.tif,1.5,0,,,,,,,,,,,,,0,32,32,28,,,,,,,,,,,None,None,None,39.817,,,,,,,,,,,,,,,,,,,2019_Jan_28_1537,60.474673111204794,Cloud_Experiment_FR_REAL,001,11,
images/fcloud80-20_D1.8_10.tif,1.8,2,,,,,,,,,,,,,0,33,33,139,,,,,,,,,,,None,None,None,49.391,,,,,,,,,,,,,,,,,,,2019_Jan_28_1537,60.474673111204794,Cloud_Experiment_FR_REAL,001,11,
images/fcloud65-35_D0.9_9.tif,0.9,1,,,,,,,,,,,,,0,34,34,54,,,,,,,,,,,None,None,None,58.517,,,,,,,,,,,,,,,,,,,2019_Jan_28_1537,60.474673111204794,Cloud_Experiment_FR_REAL,001,11,
images/fcloud80-20_D1.4_8.tif,1.4,2,,,,,,,,,,,,,0,35,35,121,,,,,,,,,,,1,None,2,1.468,,,,,,,,,,,,,,,,,,,2019_Jan_28_1537,60.474673111204794,Cloud_Experiment_FR_REAL,001,11,
images/fcloud80-20_D1.7_8.tif,1.7,2,,,,,,,,,,,,,0,36,36,133,,,,,,,,,,,None,None,None,11.059,,,,,,,,,,,,,,,,,,,2019_Jan_28_1537,60.474673111204794,Cloud_Experiment_FR_REAL,001,11,
images/fcloud80-20_D1.5_9.tif,1.5,2,,,,,,,,,,,,,0,37,37,126,,,,,,,,,,,None,None,None,19.733,,,,,,,,,,,,,,,,,,,2019_Jan_28_1537,60.474673111204794,Cloud_Experiment_FR_REAL,001,11,
images/fcloud65-35_D1.1_9.tif,1.1,1,,,,,,,,,,,,,0,38,38,62,,,,,,,,,,,None,None,None,28.859,,,,,,,,,,,,,,,,,,,2019_Jan_28_1537,60.474673111204794,Cloud_Experiment_FR_REAL,001,11,
images/fcloud65-35_D0.8_9.tif,0.8,1,,,,,,,,,,,,,0,39,39,50,,,,,,,,,,,None,None,None,37.319,,,,,,,,,,,,,,,,,,,2019_Jan_28_1537,60.474673111204794,Cloud_Experiment_FR_REAL,001,11,
images/fcloud65-35_D0.9_7.tif,0.9,1,,,,,,,,,,,,,0,40,40,52,,,,,,,,,,,None,None,None,46.627,,,,,,,,,,,,,,,,,,,2019_Jan_28_1537,60.474673111204794,Cloud_Experiment_FR_REAL,001,11,
images/fcloud_D1.3_9.tif,1.3,0,,,,,,,,,,,,,0,41,41,22,,,,,,,,,,,None,None,None,55.719,,,,,,,,,,,,,,,,,,,2019_Jan_28_1537,60.474673111204794,Cloud_Experiment_FR_REAL,001,11,
images/fcloud_D1.5_8.tif,1.5,0,,,,,,,,,,,,,0,42,42,29,,,,,,,,,,,1,space,4,1.517,4.37833294694,,,,,,,,,,,,,,,,,,2019_Jan_28_1537,60.474673111204794,Cloud_Experiment_FR_REAL,001,11,
images/fcloud80-20_D1.6_9.tif,1.6,2,,,,,,,,,,,,,0,43,43,130,,,,,,,,,,,None,None,None,10.99,,,,,,,,,,,,,,,,,,,2019_Jan_28_1537,60.474673111204794,Cloud_Experiment_FR_REAL,001,11,
images/fcloud65-35_D1.5_7.tif,1.5,1,,,,,,,,,,,,,0,44,44,76,,,,,,,,,,,None,None,None,20.415,,,,,,,,,,,,,,,,,,,2019_Jan_28_1537,60.474673111204794,Cloud_Experiment_FR_REAL,001,11,
images/fcloud_D1.7_9.tif,1.7,0,,,,,,,,,,,,,0,45,45,38,,,,,,,,,,,None,None,None,29.559,,,,,,,,,,,,,,,,,,,2019_Jan_28_1537,60.474673111204794,Cloud_Experiment_FR_REAL,001,11,
images/fcloud65-35_D1.9_9.tif,1.9,1,,,,,,,,,,,,,0,46,46,94,,,,,,,,,,,None,None,None,38.884,,,,,,,,,,,,,,,,,,,2019_Jan_28_1537,60.474673111204794,Cloud_Experiment_FR_REAL,001,11,
images/fcloud65-35_D1.9_7.tif,1.9,1,,,,,,,,,,,,,0,47,47,92,,,,,,,,,,,None,None,None,47.893,,,,,,,,,,,,,,,,,,,2019_Jan_28_1537,60.474673111204794,Cloud_Experiment_FR_REAL,001,11,
images/fcloud80-20_D1.7_9.tif,1.7,2,,,,,,,,,,,,,0,48,48,134,,,,,,,,,,,1,None,1,1.967,,,,,,,,,,,,,,,,,,,2019_Jan_28_1537,60.474673111204794,Cloud_Experiment_FR_REAL,001,11,
images/fcloud65-35_D0.8_10.tif,0.8,1,,,,,,,,,,,,,0,49,49,51,,,,,,,,,,,None,None,None,11.141,,,,,,,,,,,,,,,,,,,2019_Jan_28_1537,60.474673111204794,Cloud_Experiment_FR_REAL,001,11,
images/fcloud65-35_D1.6_8.tif,1.6,1,,,,,,,,,,,,,0,50,50,81,,,,,,,,,,,None,None,None,19.6,,,,,,,,,,,,,,,,,,,2019_Jan_28_1537,60.474673111204794,Cloud_Experiment_FR_REAL,001,11,
images/fcloud65-35_D1.5_9.tif,1.5,1,,,,,,,,,,,,,0,51,51,78,,,,,,,,,,,None,None,None,28.109,,,,,,,,,,,,,,,,,,,2019_Jan_28_1537,60.474673111204794,Cloud_Experiment_FR_REAL,001,11,
images/fcloud65-35_D0.9_10.tif,0.9,1,,,,,,,,,,,,,0,52,52,55,,,,,,,,,,,None,None,None,36.686,,,,,,,,,,,,,,,,,,,2019_Jan_28_1537,60.474673111204794,Cloud_Experiment_FR_REAL,001,11,
images/fcloud_D1.8_7.tif,1.8,0,,,,,,,,,,,,,0,53,53,40,,,,,,,,,,,None,None,None,45.295,,,,,,,,,,,,,,,,,,,2019_Jan_28_1537,60.474673111204794,Cloud_Experiment_FR_REAL,001,11,
images/fcloud65-35_D0.9_8.tif,0.9,1,,,,,,,,,,,,,0,54,54,53,,,,,,,,,,,None,None,None,53.787,,,,,,,,,,,,,,,,,,,2019_Jan_28_1537,60.474673111204794,Cloud_Experiment_FR_REAL,001,11,
images/fcloud_D1_8.tif,1.0,0,,,,,,,,,,,,,0,55,55,9,,,,,,,,,,,1,space,3,2.266,6.11249911966,,,,,,,,,,,,,,,,,,2019_Jan_28_1537,60.474673111204794,Cloud_Experiment_FR_REAL,001,11,
images/fcloud65-35_D1.2_10.tif,1.2,1,,,,,,,,,,,,,0,56,56,67,,,,,,,,,,,None,None,None,12.057,,,,,,,,,,,,,,,,,,,2019_Jan_28_1537,60.474673111204794,Cloud_Experiment_FR_REAL,001,11,
images/fcloud_D1.8_10.tif,1.8,0,,,,,,,,,,,,,0,57,57,43,,,,,,,,,,,None,None,None,20.999,,,,,,,,,,,,,,,,,,,2019_Jan_28_1537,60.474673111204794,Cloud_Experiment_FR_REAL,001,11,
images/fcloud65-35_D0.8_7.tif,0.8,1,,,,,,,,,,,,,0,58,58,48,,,,,,,,,,,1,space,2,1.55,7.29392339435,,,,,,,,,,,,,,,,,,2019_Jan_28_1537,60.474673111204794,Cloud_Experiment_FR_REAL,001,11,
images/fcloud65-35_D1.4_9.tif,1.4,1,,,,,,,,,,,,,0,59,59,74,,,,,,,,,,,None,None,None,10.692,,,,,,,,,,,,,,,,,,,2019_Jan_28_1537,60.474673111204794,Cloud_Experiment_FR_REAL,001,11,
images/fcloud80-20_D1.3_7.tif,1.3,2,,,,,,,,,,,,,0,60,60,116,,,,,,,,,,,None,None,None,19.232,,,,,,,,,,,,,,,,,,,2019_Jan_28_1537,60.474673111204794,Cloud_Experiment_FR_REAL,001,11,
images/fcloud65-35_D1.4_10.tif,1.4,1,,,,,,,,,,,,,0,61,61,75,,,,,,,,,,,None,None,None,27.912,,,,,,,,,,,,,,,,,,,2019_Jan_28_1537,60.474673111204794,Cloud_Experiment_FR_REAL,001,11,
images/fcloud80-20_D0.9_9.tif,0.9,2,,,,,,,,,,,,,0,62,62,102,,,,,,,,,,,None,None,None,36.35,,,,,,,,,,,,,,,,,,,2019_Jan_28_1537,60.474673111204794,Cloud_Experiment_FR_REAL,001,11,
images/fcloud_D1.2_7.tif,1.2,0,,,,,,,,,,,,,0,63,63,16,,,,,,,,,,,None,None,None,44.91,,,,,,,,,,,,,,,,,,,2019_Jan_28_1537,60.474673111204794,Cloud_Experiment_FR_REAL,001,11,
images/fcloud_D1_9.tif,1.0,0,,,,,,,,,,,,,0,64,64,10,,,,,,,,,,,None,None,None,53.419,,,,,,,,,,,,,,,,,,,2019_Jan_28_1537,60.474673111204794,Cloud_Experiment_FR_REAL,001,11,
images/fcloud_D0.9_10.tif,0.9,0,,,,,,,,,,,,,0,65,65,7,,,,,,,,,,,1,space,2,1.666,6.3049277931,,,,,,,,,,,,,,,,,,2019_Jan_28_1537,60.474673111204794,Cloud_Experiment_FR_REAL,001,11,
images/fcloud_D1.3_8.tif,1.3,0,,,,,,,,,,,,,0,66,66,21,,,,,,,,,,,None,None,None,10.623,,,,,,,,,,,,,,,,,,,2019_Jan_28_1537,60.474673111204794,Cloud_Experiment_FR_REAL,001,11,
images/fcloud65-35_D1.2_7.tif,1.2,1,,,,,,,,,,,,,0,67,67,64,,,,,,,,,,,None,None,None,19.082,,,,,,,,,,,,,,,,,,,2019_Jan_28_1537,60.474673111204794,Cloud_Experiment_FR_REAL,001,11,
images/fcloud_D0.8_10.tif,0.8,0,,,,,,,,,,,,,0,68,68,3,,,,,,,,,,,1,None,3,1.501,,,,,,,,,,,,,,,,,,,2019_Jan_28_1537,60.474673111204794,Cloud_Experiment_FR_REAL,001,11,
images/fcloud80-20_D1.8_7.tif,1.8,2,,,,,,,,,,,,,0,69,69,136,,,,,,,,,,,None,None,None,9.959,,,,,,,,,,,,,,,,,,,2019_Jan_28_1537,60.474673111204794,Cloud_Experiment_FR_REAL,001,11,
images/fcloud_D1.2_10.tif,1.2,0,,,,,,,,,,,,,0,70,70,19,,,,,,,,,,,None,None,None,18.601,,,,,,,,,,,,,,,,,,,2019_Jan_28_1537,60.474673111204794,Cloud_Experiment_FR_REAL,001,11,
images/fcloud65-35_D1.3_7.tif,1.3,1,,,,,,,,,,,,,0,71,71,68,,,,,,,,,,,None,None,None,27.161,,,,,,,,,,,,,,,,,,,2019_Jan_28_1537,60.474673111204794,Cloud_Experiment_FR_REAL,001,11,
images/fcloud_D1.6_9.tif,1.6,0,,,,,,,,,,,,,0,72,72,34,,,,,,,,,,,None,None,None,35.737,,,,,,,,,,,,,,,,,,,2019_Jan_28_1537,60.474673111204794,Cloud_Experiment_FR_REAL,001,11,
images/fcloud65-35_D1.6_10.tif,1.6,1,,,,,,,,,,,,,0,73,73,83,,,,,,,,,,,None,None,None,44.313,,,,,,,,,,,,,,,,,,,2019_Jan_28_1537,60.474673111204794,Cloud_Experiment_FR_REAL,001,11,
images/fcloud80-20_D0.8_10.tif,0.8,2,,,,,,,,,,,,,0,74,74,99,,,,,,,,,,,None,None,None,52.838,,,,,,,,,,,,,,,,,,,2019_Jan_28_1537,60.474673111204794,Cloud_Experiment_FR_REAL,001,11,
images/fcloud65-35_D1.8_10.tif,1.8,1,,,,,,,,,,,,,0,75,75,91,,,,,,,,,,,None,None,None,61.338,,,,,,,,,,,,,,,,,,,2019_Jan_28_1537,60.474673111204794,Cloud_Experiment_FR_REAL,001,11,
images/fcloud_D1.9_9.tif,1.9,0,,,,,,,,,,,,,0,76,76,46,,,,,,,,,,,None,None,None,70.207,,,,,,,,,,,,,,,,,,,2019_Jan_28_1537,60.474673111204794,Cloud_Experiment_FR_REAL,001,11,
images/fcloud80-20_D0.9_10.tif,0.9,2,,,,,,,,,,,,,0,77,77,103,,,,,,,,,,,None,None,None,78.783,,,,,,,,,,,,,,,,,,,2019_Jan_28_1537,60.474673111204794,Cloud_Experiment_FR_REAL,001,11,
images/fcloud80-20_D1.9_10.tif,1.9,2,,,,,,,,,,,,,0,78,78,143,,,,,,,,,,,None,None,None,87.374,,,,,,,,,,,,,,,,,,,2019_Jan_28_1537,60.474673111204794,Cloud_Experiment_FR_REAL,001,11,
images/fcloud65-35_D1.3_9.tif,1.3,1,,,,,,,,,,,,,0,79,79,70,,,,,,,,,,,None,None,None,95.95,,,,,,,,,,,,,,,,,,,2019_Jan_28_1537,60.474673111204794,Cloud_Experiment_FR_REAL,001,11,
images/fcloud_D0.9_7.tif,0.9,0,,,,,,,,,,,,,0,80,80,4,,,,,,,,,,,None,None,None,104.396,,,,,,,,,,,,,,,,,,,2019_Jan_28_1537,60.474673111204794,Cloud_Experiment_FR_REAL,001,11,
images/fcloud_D1.2_9.tif,1.2,0,,,,,,,,,,,,,0,81,81,18,,,,,,,,,,,1,space,4,1.487,4.12621053786,,,,,,,,,,,,,,,,,,2019_Jan_28_1537,60.474673111204794,Cloud_Experiment_FR_REAL,001,11,
images/fcloud80-20_D1.7_7.tif,1.7,2,,,,,,,,,,,,,0,82,82,132,,,,,,,,,,,None,None,None,10.207,,,,,,,,,,,,,,,,,,,2019_Jan_28_1537,60.474673111204794,Cloud_Experiment_FR_REAL,001,11,
images/fcloud_D1.8_8.tif,1.8,0,,,,,,,,,,,,,0,83,83,41,,,,,,,,,,,None,None,None,18.85,,,,,,,,,,,,,,,,,,,2019_Jan_28_1537,60.474673111204794,Cloud_Experiment_FR_REAL,001,11,
images/fcloud65-35_D1.8_7.tif,1.8,1,,,,,,,,,,,,,0,84,84,88,,,,,,,,,,,None,None,None,27.275,,,,,,,,,,,,,,,,,,,2019_Jan_28_1537,60.474673111204794,Cloud_Experiment_FR_REAL,001,11,
images/fcloud80-20_D1.8_9.tif,1.8,2,,,,,,,,,,,,,0,85,85,138,,,,,,,,,,,None,None,None,35.669,,,,,,,,,,,,,,,,,,,2019_Jan_28_1537,60.474673111204794,Cloud_Experiment_FR_REAL,001,11,
images/fcloud80-20_D1.8_8.tif,1.8,2,,,,,,,,,,,,,0,86,86,137,,,,,,,,,,,None,None,None,44.044,,,,,,,,,,,,,,,,,,,2019_Jan_28_1537,60.474673111204794,Cloud_Experiment_FR_REAL,001,11,
images/fcloud80-20_D1.2_7.tif,1.2,2,,,,,,,,,,,,,0,87,87,112,,,,,,,,,,,2,space,2,3.05,6.69364004661,,,,,,,,,,,,,,,,,,2019_Jan_28_1537,60.474673111204794,Cloud_Experiment_FR_REAL,001,11,
images/fcloud80-20_D1.7_10.tif,1.7,2,,,,,,,,,,,,,0,88,88,135,,,,,,,,,,,None,None,None,11.873,,,,,,,,,,,,,,,,,,,2019_Jan_28_1537,60.474673111204794,Cloud_Experiment_FR_REAL,001,11,
images/fcloud65-35_D1.2_8.tif,1.2,1,,,,,,,,,,,,,0,89,89,65,,,,,,,,,,,None,None,None,20.434,,,,,,,,,,,,,,,,,,,2019_Jan_28_1537,60.474673111204794,Cloud_Experiment_FR_REAL,001,11,
images/fcloud65-35_D1.5_10.tif,1.5,1,,,,,,,,,,,,,0,90,90,79,,,,,,,,,,,None,None,None,28.909,,,,,,,,,,,,,,,,,,,2019_Jan_28_1537,60.474673111204794,Cloud_Experiment_FR_REAL,001,11,
images/fcloud80-20_D1.6_8.tif,1.6,2,,,,,,,,,,,,,0,91,91,129,,,,,,,,,,,None,None,None,37.417,,,,,,,,,,,,,,,,,,,2019_Jan_28_1537,60.474673111204794,Cloud_Experiment_FR_REAL,001,11,
images/fcloud80-20_D0.9_7.tif,0.9,2,,,,,,,,,,,,,0,92,92,100,,,,,,,,,,,None,None,None,45.861,,,,,,,,,,,,,,,,,,,2019_Jan_28_1537,60.474673111204794,Cloud_Experiment_FR_REAL,001,11,
images/fcloud80-20_D1_10.tif,1.0,2,,,,,,,,,,,,,0,93,93,107,,,,,,,,,,,None,None,None,54.187,,,,,,,,,,,,,,,,,,,2019_Jan_28_1537,60.474673111204794,Cloud_Experiment_FR_REAL,001,11,
images/fcloud65-35_D1.8_8.tif,1.8,1,,,,,,,,,,,,,0,94,94,89,,,,,,,,,,,None,None,None,62.796,,,,,,,,,,,,,,,,,,,2019_Jan_28_1537,60.474673111204794,Cloud_Experiment_FR_REAL,001,11,
images/fcloud65-35_D1.9_8.tif,1.9,1,,,,,,,,,,,,,0,95,95,93,,,,,,,,,,,None,None,None,71.272,,,,,,,,,,,,,,,,,,,2019_Jan_28_1537,60.474673111204794,Cloud_Experiment_FR_REAL,001,11,
images/fcloud_D1_10.tif,1.0,0,,,,,,,,,,,,,0,96,96,11,,,,,,,,,,,None,None,None,79.765,,,,,,,,,,,,,,,,,,,2019_Jan_28_1537,60.474673111204794,Cloud_Experiment_FR_REAL,001,11,
images/fcloud65-35_D1.8_9.tif,1.8,1,,,,,,,,,,,,,0,97,97,90,,,,,,,,,,,None,None,None,88.174,,,,,,,,,,,,,,,,,,,2019_Jan_28_1537,60.474673111204794,Cloud_Experiment_FR_REAL,001,11,
images/fcloud65-35_D1.2_9.tif,1.2,1,,,,,,,,,,,,,0,98,98,66,,,,,,,,,,,None,None,None,96.599,,,,,,,,,,,,,,,,,,,2019_Jan_28_1537,60.474673111204794,Cloud_Experiment_FR_REAL,001,11,
images/fcloud80-20_D1.2_10.tif,1.2,2,,,,,,,,,,,,,0,99,99,115,,,,,,,,,,,None,None,None,105.192,,,,,,,,,,,,,,,,,,,2019_Jan_28_1537,60.474673111204794,Cloud_Experiment_FR_REAL,001,11,
images/fcloud80-20_D1.3_8.tif,1.3,2,,,,,,,,,,,,,0,100,100,117,,,,,,,,,,,None,None,None,113.801,,,,,,,,,,,,,,,,,,,2019_Jan_28_1537,60.474673111204794,Cloud_Experiment_FR_REAL,001,11,
images/fcloud80-20_D1.5_8.tif,1.5,2,,,,,,,,,,,,,0,101,101,125,,,,,,,,,,,None,None,None,122.461,,,,,,,,,,,,,,,,,,,2019_Jan_28_1537,60.474673111204794,Cloud_Experiment_FR_REAL,001,11,
images/fcloud65-35_D1_10.tif,1.0,1,,,,,,,,,,,,,0,102,102,59,,,,,,,,,,,None,None,None,131.003,,,,,,,,,,,,,,,,,,,2019_Jan_28_1537,60.474673111204794,Cloud_Experiment_FR_REAL,001,11,
images/fcloud80-20_D1.9_8.tif,1.9,2,,,,,,,,,,,,,0,103,103,141,,,,,,,,,,,None,None,None,139.379,,,,,,,,,,,,,,,,,,,2019_Jan_28_1537,60.474673111204794,Cloud_Experiment_FR_REAL,001,11,
images/fcloud_D1.5_9.tif,1.5,0,,,,,,,,,,,,,0,104,104,30,,,,,,,,,,,None,None,None,148.371,,,,,,,,,,,,,,,,,,,2019_Jan_28_1537,60.474673111204794,Cloud_Experiment_FR_REAL,001,11,
images/fcloud80-20_D1.5_7.tif,1.5,2,,,,,,,,,,,,,0,105,105,124,,,,,,,,,,,None,None,None,156.765,,,,,,,,,,,,,,,,,,,2019_Jan_28_1537,60.474673111204794,Cloud_Experiment_FR_REAL,001,11,
images/fcloud80-20_D1_9.tif,1.0,2,,,,,,,,,,,,,0,106,106,106,,,,,,,,,,,None,None,None,165.323,,,,,,,,,,,,,,,,,,,2019_Jan_28_1537,60.474673111204794,Cloud_Experiment_FR_REAL,001,11,
images/fcloud65-35_D0.8_8.tif,0.8,1,,,,,,,,,,,,,0,107,107,49,,,,,,,,,,,None,None,None,173.948,,,,,,,,,,,,,,,,,,,2019_Jan_28_1537,60.474673111204794,Cloud_Experiment_FR_REAL,001,11,
images/fcloud80-20_D1.9_7.tif,1.9,2,,,,,,,,,,,,,0,108,108,140,,,,,,,,,,,None,None,None,182.308,,,,,,,,,,,,,,,,,,,2019_Jan_28_1537,60.474673111204794,Cloud_Experiment_FR_REAL,001,11,
images/fcloud_D1_7.tif,1.0,0,,,,,,,,,,,,,0,109,109,8,,,,,,,,,,,None,None,None,190.801,,,,,,,,,,,,,,,,,,,2019_Jan_28_1537,60.474673111204794,Cloud_Experiment_FR_REAL,001,11,
images/fcloud80-20_D0.8_7.tif,0.8,2,,,,,,,,,,,,,0,110,110,96,,,,,,,,,,,1,space,2,3.05,6.62280054676,,,,,,,,,,,,,,,,,,2019_Jan_28_1537,60.474673111204794,Cloud_Experiment_FR_REAL,001,11,
images/fcloud65-35_D1.1_7.tif,1.1,1,,,,,,,,,,,,,0,111,111,60,,,,,,,,,,,None,None,None,12.357,,,,,,,,,,,,,,,,,,,2019_Jan_28_1537,60.474673111204794,Cloud_Experiment_FR_REAL,001,11,
images/fcloud_D1.7_10.tif,1.7,0,,,,,,,,,,,,,0,112,112,39,,,,,,,,,,,None,None,None,21.648,,,,,,,,,,,,,,,,,,,2019_Jan_28_1537,60.474673111204794,Cloud_Experiment_FR_REAL,001,11,
images/fcloud65-35_D1.6_7.tif,1.6,1,,,,,,,,,,,,,0,113,113,80,,,,,,,,,,,None,None,None,30.874,,,,,,,,,,,,,,,,,,,2019_Jan_28_1537,60.474673111204794,Cloud_Experiment_FR_REAL,001,11,
images/fcloud_D1.8_9.tif,1.8,0,,,,,,,,,,,,,0,114,114,42,,,,,,,,,,,None,None,None,39.866,,,,,,,,,,,,,,,,,,,2019_Jan_28_1537,60.474673111204794,Cloud_Experiment_FR_REAL,001,11,
images/fcloud65-35_D1.7_9.tif,1.7,1,,,,,,,,,,,,,0,115,115,86,,,,,,,,,,,None,None,None,49.058,,,,,,,,,,,,,,,,,,,2019_Jan_28_1537,60.474673111204794,Cloud_Experiment_FR_REAL,001,11,
images/fcloud65-35_D1.7_7.tif,1.7,1,,,,,,,,,,,,,0,116,116,84,,,,,,,,,,,None,None,None,58.283,,,,,,,,,,,,,,,,,,,2019_Jan_28_1537,60.474673111204794,Cloud_Experiment_FR_REAL,001,11,
images/fcloud_D0.8_8.tif,0.8,0,,,,,,,,,,,,,0,117,117,1,,,,,,,,,,,None,None,None,67.408,,,,,,,,,,,,,,,,,,,2019_Jan_28_1537,60.474673111204794,Cloud_Experiment_FR_REAL,001,11,
images/fcloud80-20_D1.2_8.tif,1.2,2,,,,,,,,,,,,,0,118,118,113,,,,,,,,,,,None,None,None,76.6,,,,,,,,,,,,,,,,,,,2019_Jan_28_1537,60.474673111204794,Cloud_Experiment_FR_REAL,001,11,
images/fcloud80-20_D0.8_9.tif,0.8,2,,,,,,,,,,,,,0,119,119,98,,,,,,,,,,,None,None,None,85.842,,,,,,,,,,,,,,,,,,,2019_Jan_28_1537,60.474673111204794,Cloud_Experiment_FR_REAL,001,11,
images/fcloud80-20_D1.1_10.tif,1.1,2,,,,,,,,,,,,,0,120,120,111,,,,,,,,,,,None,None,None,94.968,,,,,,,,,,,,,,,,,,,2019_Jan_28_1537,60.474673111204794,Cloud_Experiment_FR_REAL,001,11,
images/fcloud_D1.6_10.tif,1.6,0,,,,,,,,,,,,,0,121,121,35,,,,,,,,,,,None,None,None,104.093,,,,,,,,,,,,,,,,,,,2019_Jan_28_1537,60.474673111204794,Cloud_Experiment_FR_REAL,001,11,
images/fcloud80-20_D1.1_9.tif,1.1,2,,,,,,,,,,,,,0,122,122,110,,,,,,,,,,,None,None,None,113.186,,,,,,,,,,,,,,,,,,,2019_Jan_28_1537,60.474673111204794,Cloud_Experiment_FR_REAL,001,11,
images/fcloud65-35_D1.3_8.tif,1.3,1,,,,,,,,,,,,,0,123,123,69,,,,,,,,,,,None,None,None,122.646,,,,,,,,,,,,,,,,,,,2019_Jan_28_1537,60.474673111204794,Cloud_Experiment_FR_REAL,001,11,
images/fcloud65-35_D1.9_10.tif,1.9,1,,,,,,,,,,,,,0,124,124,95,,,,,,,,,,,None,None,None,131.719,,,,,,,,,,,,,,,,,,,2019_Jan_28_1537,60.474673111204794,Cloud_Experiment_FR_REAL,001,11,
images/fcloud80-20_D1.4_10.tif,1.4,2,,,,,,,,,,,,,0,125,125,123,,,,,,,,,,,None,None,None,141.245,,,,,,,,,,,,,,,,,,,2019_Jan_28_1537,60.474673111204794,Cloud_Experiment_FR_REAL,001,11,
images/fcloud80-20_D1.4_9.tif,1.4,2,,,,,,,,,,,,,0,126,126,122,,,,,,,,,,,None,None,None,150.236,,,,,,,,,,,,,,,,,,,2019_Jan_28_1537,60.474673111204794,Cloud_Experiment_FR_REAL,001,11,
images/fcloud80-20_D1.1_7.tif,1.1,2,,,,,,,,,,,,,0,127,127,108,,,,,,,,,,,None,None,None,159.378,,,,,,,,,,,,,,,,,,,2019_Jan_28_1537,60.474673111204794,Cloud_Experiment_FR_REAL,001,11,
images/fcloud_D1.4_7.tif,1.4,0,,,,,,,,,,,,,0,128,128,24,,,,,,,,,,,None,None,None,168.487,,,,,,,,,,,,,,,,,,,2019_Jan_28_1537,60.474673111204794,Cloud_Experiment_FR_REAL,001,11,
images/fcloud65-35_D1.7_8.tif,1.7,1,,,,,,,,,,,,,0,129,129,85,,,,,,,,,,,None,None,None,177.529,,,,,,,,,,,,,,,,,,,2019_Jan_28_1537,60.474673111204794,Cloud_Experiment_FR_REAL,001,11,
images/fcloud80-20_D1.9_9.tif,1.9,2,,,,,,,,,,,,,0,130,130,142,,,,,,,,,,,None,None,None,186.521,,,,,,,,,,,,,,,,,,,2019_Jan_28_1537,60.474673111204794,Cloud_Experiment_FR_REAL,001,11,
images/fcloud80-20_D1.2_9.tif,1.2,2,,,,,,,,,,,,,0,131,131,114,,,,,,,,,,,None,None,None,195.747,,,,,,,,,,,,,,,,,,,2019_Jan_28_1537,60.474673111204794,Cloud_Experiment_FR_REAL,001,11,
images/fcloud_D0.9_9.tif,0.9,0,,,,,,,,,,,,,0,132,132,6,,,,,,,,,,,1,space,3,2.2,3.99630239452,,,,,,,,,,,,,,,,,,2019_Jan_28_1537,60.474673111204794,Cloud_Experiment_FR_REAL,001,11,
images/fcloud_D1.3_7.tif,1.3,0,,,,,,,,,,,,,0,133,133,20,,,,,,,,,,,None,None,None,11.774,,,,,,,,,,,,,,,,,,,2019_Jan_28_1537,60.474673111204794,Cloud_Experiment_FR_REAL,001,11,
images/fcloud80-20_D1.5_10.tif,1.5,2,,,,,,,,,,,,,0,134,134,127,,,,,,,,,,,None,None,None,21.184,,,,,,,,,,,,,,,,,,,2019_Jan_28_1537,60.474673111204794,Cloud_Experiment_FR_REAL,001,11,
images/fcloud_D0.8_7.tif,0.8,0,,,,,,,,,,,,,0,135,135,0,,,,,,,,,,,None,None,None,30.407,,,,,,,,,,,,,,,,,,,2019_Jan_28_1537,60.474673111204794,Cloud_Experiment_FR_REAL,001,11,
images/fcloud65-35_D1_7.tif,1.0,1,,,,,,,,,,,,,0,136,136,56,,,,,,,,,,,None,None,None,38.968,,,,,,,,,,,,,,,,,,,2019_Jan_28_1537,60.474673111204794,Cloud_Experiment_FR_REAL,001,11,
images/fcloud65-35_D1_9.tif,1.0,1,,,,,,,,,,,,,0,137,137,58,,,,,,,,,,,None,None,None,47.543,,,,,,,,,,,,,,,,,,,2019_Jan_28_1537,60.474673111204794,Cloud_Experiment_FR_REAL,001,11,
images/fcloud_D1.9_10.tif,1.9,0,,,,,,,,,,,,,0,138,138,47,,,,,,,,,,,None,None,None,56.235,,,,,,,,,,,,,,,,,,,2019_Jan_28_1537,60.474673111204794,Cloud_Experiment_FR_REAL,001,11,
images/fcloud65-35_D1.1_8.tif,1.1,1,,,,,,,,,,,,,0,139,139,61,,,,,,,,,,,None,None,None,64.877,,,,,,,,,,,,,,,,,,,2019_Jan_28_1537,60.474673111204794,Cloud_Experiment_FR_REAL,001,11,
images/fcloud80-20_D1.3_9.tif,1.3,2,,,,,,,,,,,,,0,140,140,118,,,,,,,,,,,None,None,None,73.404,,,,,,,,,,,,,,,,,,,2019_Jan_28_1537,60.474673111204794,Cloud_Experiment_FR_REAL,001,11,
images/fcloud_D1.9_8.tif,1.9,0,,,,,,,,,,,,,0,141,141,45,,,,,,,,,,,None,None,None,82.396,,,,,,,,,,,,,,,,,,,2019_Jan_28_1537,60.474673111204794,Cloud_Experiment_FR_REAL,001,11,
images/fcloud80-20_D0.8_8.tif,0.8,2,,,,,,,,,,,,,0,142,142,97,,,,,,,,,,,None,None,None,91.089,,,,,,,,,,,,,,,,,,,2019_Jan_28_1537,60.474673111204794,Cloud_Experiment_FR_REAL,001,11,
images/fcloud_D1.1_10.tif,1.1,0,,,,,,,,,,,,,0,143,143,15,,,,,,,,,,,None,None,None,99.497,,,,,,,,,,,,,,,,,,,2019_Jan_28_1537,60.474673111204794,Cloud_Experiment_FR_REAL,001,11,
,,,,,,,,,,,,,,,,,,,,,,,,,6,7.037,,,,,,,,,,,,,,,,,,,,,,,,,2019_Jan_28_1537,60.474673111204794,Cloud_Experiment_FR_REAL,001,11,
,,,,,,,,,,,,,,,,,,,,,,,,,,,,,,,,,,4,,,,,,,,,,,,,,,,,2019_Jan_28_1537,60.474673111204794,Cloud_Experiment_FR_REAL,001,11,
,,,,,,,,,,,,,,,,,,,,,,,,,,,,,,,,,,,3,,,,,,,,,,,,,,,,2019_Jan_28_1537,60.474673111204794,Cloud_Experiment_FR_REAL,001,11,
,,,,,,,,,,,,,,,,,,,,,,,,,,,,,,,,,,,,4,,,,,,,,,,,,,,,2019_Jan_28_1537,60.474673111204794,Cloud_Experiment_FR_REAL,001,11,
,,,,,,,,,,,,,,,,,,,,,,,,,,,,,,,,,,,,,3,,,,,,,,,,,,,,2019_Jan_28_1537,60.474673111204794,Cloud_Experiment_FR_REAL,001,11,
,,,,,,,,,,,,,,,,,,,,,,,,,,,,,,,,,,,,,,4,,,,,,,,,,,,,2019_Jan_28_1537,60.474673111204794,Cloud_Experiment_FR_REAL,001,11,
,,,,,,,,,,,,,,,,,,,,,,,,,,,,,,,,,,,,,,,4,,,,,,,,,,,,2019_Jan_28_1537,60.474673111204794,Cloud_Experiment_FR_REAL,001,11,
,,,,,,,,,,,,,,,,,,,,,,,,,,,,,,,,,,,,,,,,3,,,,,,,,,,,2019_Jan_28_1537,60.474673111204794,Cloud_Experiment_FR_REAL,001,11,
,,,,,,,,,,,,,,,,,,,,,,,,,,,,,,,,,,,,,,,,,7,,,,,,,,,,2019_Jan_28_1537,60.474673111204794,Cloud_Experiment_FR_REAL,001,11,
,,,,,,,,,,,,,,,,,,,,,,,,,,,,,,,,,,,,,,,,,,4,,,,,,,,,2019_Jan_28_1537,60.474673111204794,Cloud_Experiment_FR_REAL,001,11,
,,,,,,,,,,,,,,,,,,,,,,,,,,,,,,,,,,,,,,,,,,,3,,,,,,,,2019_Jan_28_1537,60.474673111204794,Cloud_Experiment_FR_REAL,001,11,
,,,,,,,,,,,,,,,,,,,,,,,,,,,,,,,,,,,,,,,,,,,,,,,,,,4,2019_Jan_28_1537,60.474673111204794,Cloud_Experiment_FR_REAL,001,11,
