ImageFile,FD,Contrast,trials_4.thisRepN,trials_4.thisTrialN,trials_4.thisN,trials_4.thisIndex,trials.thisRepN,trials.thisTrialN,trials.thisN,trials.thisIndex,trials_2.thisRepN,trials_2.thisTrialN,trials_2.thisN,trials_2.thisIndex,trials_3.thisRepN,trials_3.thisTrialN,trials_3.thisN,trials_3.thisIndex,end_instructions.keys,end_instructions.rt,key_resp_4.keys,key_resp_4.rt,key_resp_6.keys,key_resp_6.rt,Fatigue.response,Fatigue.rt,key_resp_5.keys,key_resp_5.rt,n_objets.response,reaction_time.keys,vividness.response,vividness.rt,reaction_time.rt,Flow01.response,Flow02.response,Flow03.response,Flow04.response,Flow05.response,Flow06.response,Flow07.response,Flow08.response,Flow09.response,Flow10.response,key_resp_2.keys,key_resp_2.rt,key_resp_8.keys,key_resp_8.rt,key_resp_3.keys,key_resp_3.rt,Redondance_question.response,date,frameRate,expName,session,participant,
,,,,,,,,,,,,,,,,,,,space,41.9878852401,,,,,,,,,,,,,,,,,,,,,,,,,,,,,,,2019_Jan_28_1749,59.77338929426755,Cloud_Experiment_FR_REAL,001,12,
,,,,,,,,,,,,,,,,,,,,,space,180.943228159,,,,,,,,,,,,,,,,,,,,,,,,,,,,,2019_Jan_28_1749,59.77338929426755,Cloud_Experiment_FR_REAL,001,12,
,,,,,,,,,,,,,,,,,,,,,,,space,2.44789501739,,,,,,,,,,,,,,,,,,,,,,,,,,,2019_Jan_28_1749,59.77338929426755,Cloud_Experiment_FR_REAL,001,12,
,,,,,,,,,,,,,,,,,,,,,,,,,7,48.808,,,,,,,,,,,,,,,,,,,,,,,,,2019_Jan_28_1749,59.77338929426755,Cloud_Experiment_FR_REAL,001,12,
,,,,,,,,,,,,,,,,,,,,,,,,,,,space,11.0764941169,,,,,,,,,,,,,,,,,,,,,,,2019_Jan_28_1749,59.77338929426755,Cloud_Experiment_FR_REAL,001,12,
pratique/fcloud65-35_D1.6_30,1.6,1,0,0,0,2,,,,,,,,,,,,,,,,,,,,,,,None,None,None,302.333,,,,,,,,,,,,,,,,,,,2019_Jan_28_1749,59.77338929426755,Cloud_Experiment_FR_REAL,001,12,
pratique/fcloud65-35_D1.2_30,1.2,1,0,1,1,3,,,,,,,,,,,,,,,,,,,,,,,1,space,3,6.663,6.29048744339,,,,,,,,,,,,,,,,,,2019_Jan_28_1749,59.77338929426755,Cloud_Experiment_FR_REAL,001,12,
pratique/fcloud80-20_D1.8_30,1.8,2,0,2,2,4,,,,,,,,,,,,,,,,,,,,,,,None,None,None,18.251,,,,,,,,,,,,,,,,,,,2019_Jan_28_1749,59.77338929426755,Cloud_Experiment_FR_REAL,001,12,
pratique/fcloud65-35_D1.3_30,1.3,1,0,3,3,6,,,,,,,,,,,,,,,,,,,,,,,1,None,2,8.18,,,,,,,,,,,,,,,,,,,2019_Jan_28_1749,59.77338929426755,Cloud_Experiment_FR_REAL,001,12,
pratique/fcloud65-35_D1.9_29,1.9,1,0,4,4,7,,,,,,,,,,,,,,,,,,,,,,,None,None,None,23.58,,,,,,,,,,,,,,,,,,,2019_Jan_28_1749,59.77338929426755,Cloud_Experiment_FR_REAL,001,12,
pratique/fcloud_D0.8_30,0.8,0,0,5,5,0,,,,,,,,,,,,,,,,,,,,,,,2,space,4,2.783,6.21658262706,,,,,,,,,,,,,,,,,,2019_Jan_28_1749,59.77338929426755,Cloud_Experiment_FR_REAL,001,12,
pratique/fcloud_D1.6_28,1.6,0,0,6,6,5,,,,,,,,,,,,,,,,,,,,,,,1,None,3,5.014,,,,,,,,,,,,,,,,,,,2019_Jan_28_1749,59.77338929426755,Cloud_Experiment_FR_REAL,001,12,
pratique/fcloud_D1.4_30,1.4,0,0,7,7,1,,,,,,,,,,,,,,,,,,,,,,,1,space,3,16.84,2.19373231969,,,,,,,,,,,,,,,,,,2019_Jan_28_1749,59.77338929426755,Cloud_Experiment_FR_REAL,001,12,
pratique/fcloud80-20_D1_30,1.0,2,0,8,8,9,,,,,,,,,,,,,,,,,,,,,,,1,space,3,1.185,3.8745888194,,,,,,,,,,,,,,,,,,2019_Jan_28_1749,59.77338929426755,Cloud_Experiment_FR_REAL,001,12,
pratique/fcloud80-20_D1.5_30,1.5,2,0,9,9,8,,,,,,,,,,,,,,,,,,,,,,,1,space,4,2.367,2.09414834529,,,,,,,,,,,,,,,,,,2019_Jan_28_1749,59.77338929426755,Cloud_Experiment_FR_REAL,001,12,
,,,,,,,,,,,,,,,,,,,,,,,,,,,,,,,,,,4,,,,,,,,,,,,,,,,,2019_Jan_28_1749,59.77338929426755,Cloud_Experiment_FR_REAL,001,12,
,,,,,,,,,,,,,,,,,,,,,,,,,,,,,,,,,,,4,,,,,,,,,,,,,,,,2019_Jan_28_1749,59.77338929426755,Cloud_Experiment_FR_REAL,001,12,
,,,,,,,,,,,,,,,,,,,,,,,,,,,,,,,,,,,,6,,,,,,,,,,,,,,,2019_Jan_28_1749,59.77338929426755,Cloud_Experiment_FR_REAL,001,12,
,,,,,,,,,,,,,,,,,,,,,,,,,,,,,,,,,,,,,7,,,,,,,,,,,,,,2019_Jan_28_1749,59.77338929426755,Cloud_Experiment_FR_REAL,001,12,
,,,,,,,,,,,,,,,,,,,,,,,,,,,,,,,,,,,,,,5,,,,,,,,,,,,,2019_Jan_28_1749,59.77338929426755,Cloud_Experiment_FR_REAL,001,12,
,,,,,,,,,,,,,,,,,,,,,,,,,,,,,,,,,,,,,,,5,,,,,,,,,,,,2019_Jan_28_1749,59.77338929426755,Cloud_Experiment_FR_REAL,001,12,
,,,,,,,,,,,,,,,,,,,,,,,,,,,,,,,,,,,,,,,,7,,,,,,,,,,,2019_Jan_28_1749,59.77338929426755,Cloud_Experiment_FR_REAL,001,12,
,,,,,,,,,,,,,,,,,,,,,,,,,,,,,,,,,,,,,,,,,6,,,,,,,,,,2019_Jan_28_1749,59.77338929426755,Cloud_Experiment_FR_REAL,001,12,
,,,,,,,,,,,,,,,,,,,,,,,,,,,,,,,,,,,,,,,,,,6,,,,,,,,,2019_Jan_28_1749,59.77338929426755,Cloud_Experiment_FR_REAL,001,12,
,,,,,,,,,,,,,,,,,,,,,,,,,,,,,,,,,,,,,,,,,,,5,,,,,,,,2019_Jan_28_1749,59.77338929426755,Cloud_Experiment_FR_REAL,001,12,
,,,,,,,,,,,,,,,,,,,,,,,,,,,,,,,,,,,,,,,,,,,,space,36.4707350437,,,,,,2019_Jan_28_1749,59.77338929426755,Cloud_Experiment_FR_REAL,001,12,
images/fcloud65-35_D1.9_3.tif,1.9,1,,,,,0,0,0,71,,,,,,,,,,,,,,,,,,,1,space,4,2.083,7.34127361511,,,,,,,,,,,,,,,,,,2019_Jan_28_1749,59.77338929426755,Cloud_Experiment_FR_REAL,001,12,
images/fcloud_D1.4_3.tif,1.4,0,,,,,0,1,1,20,,,,,,,,,,,,,,,,,,,None,space,None,13.142,0.16151385408,,,,,,,,,,,,,,,,,,2019_Jan_28_1749,59.77338929426755,Cloud_Experiment_FR_REAL,001,12,
images/fcloud80-20_D1.2_2.tif,1.2,2,,,,,0,2,2,85,,,,,,,,,,,,,,,,,,,1,space,4,1.717,6.3578154261,,,,,,,,,,,,,,,,,,2019_Jan_28_1749,59.77338929426755,Cloud_Experiment_FR_REAL,001,12,
images/fcloud80-20_D1.7_2.tif,1.7,2,,,,,0,3,3,100,,,,,,,,,,,,,,,,,,,1,space,4,2.134,4.25873574073,,,,,,,,,,,,,,,,,,2019_Jan_28_1749,59.77338929426755,Cloud_Experiment_FR_REAL,001,12,
images/fcloud80-20_D0.9_1.tif,0.9,2,,,,,0,4,4,75,,,,,,,,,,,,,,,,,,,1,space,3,1.302,7.77900214514,,,,,,,,,,,,,,,,,,2019_Jan_28_1749,59.77338929426755,Cloud_Experiment_FR_REAL,001,12,
images/fcloud_D1_2.tif,1.0,0,,,,,0,5,5,7,,,,,,,,,,,,,,,,,,,1,space,4,1.851,3.04986189882,,,,,,,,,,,,,,,,,,2019_Jan_28_1749,59.77338929426755,Cloud_Experiment_FR_REAL,001,12,
images/fcloud80-20_D0.9_2.tif,0.9,2,,,,,0,6,6,76,,,,,,,,,,,,,,,,,,,1,space,4,1.218,7.82273957969,,,,,,,,,,,,,,,,,,2019_Jan_28_1749,59.77338929426755,Cloud_Experiment_FR_REAL,001,12,
images/fcloud65-35_D1.9_2.tif,1.9,1,,,,,0,7,7,70,,,,,,,,,,,,,,,,,,,None,None,None,11.125,,,,,,,,,,,,,,,,,,,2019_Jan_28_1749,59.77338929426755,Cloud_Experiment_FR_REAL,001,12,
images/fcloud_D1.5_3.tif,1.5,0,,,,,0,8,8,23,,,,,,,,,,,,,,,,,,,None,None,None,21.332,,,,,,,,,,,,,,,,,,,2019_Jan_28_1749,59.77338929426755,Cloud_Experiment_FR_REAL,001,12,
images/fcloud_D1.3_3.tif,1.3,0,,,,,0,9,9,17,,,,,,,,,,,,,,,,,,,1,None,4,1.319,,,,,,,,,,,,,,,,,,,2019_Jan_28_1749,59.77338929426755,Cloud_Experiment_FR_REAL,001,12,
images/fcloud80-20_D1.6_3.tif,1.6,2,,,,,0,10,10,98,,,,,,,,,,,,,,,,,,,None,None,None,12.992,,,,,,,,,,,,,,,,,,,2019_Jan_28_1749,59.77338929426755,Cloud_Experiment_FR_REAL,001,12,
images/fcloud65-35_D1.6_2.tif,1.6,1,,,,,0,11,11,61,,,,,,,,,,,,,,,,,,,2,space,2,1.366,7.83898735064,,,,,,,,,,,,,,,,,,2019_Jan_28_1749,59.77338929426755,Cloud_Experiment_FR_REAL,001,12,
images/fcloud65-35_D0.9_3.tif,0.9,1,,,,,0,12,12,41,,,,,,,,,,,,,,,,,,,None,None,None,23.796,,,,,,,,,,,,,,,,,,,2019_Jan_28_1749,59.77338929426755,Cloud_Experiment_FR_REAL,001,12,
images/fcloud80-20_D1.5_2.tif,1.5,2,,,,,0,13,13,94,,,,,,,,,,,,,,,,,,,1,None,4,1.499,,,,,,,,,,,,,,,,,,,2019_Jan_28_1749,59.77338929426755,Cloud_Experiment_FR_REAL,001,12,
images/fcloud80-20_D1.6_2.tif,1.6,2,,,,,0,14,14,97,,,,,,,,,,,,,,,,,,,None,None,None,11.541,,,,,,,,,,,,,,,,,,,2019_Jan_28_1749,59.77338929426755,Cloud_Experiment_FR_REAL,001,12,
images/fcloud65-35_D1.5_1.tif,1.5,1,,,,,0,15,15,57,,,,,,,,,,,,,,,,,,,1,None,3,0.886,,,,,,,,,,,,,,,,,,,2019_Jan_28_1749,59.77338929426755,Cloud_Experiment_FR_REAL,001,12,
images/fcloud65-35_D1.8_2.tif,1.8,1,,,,,0,16,16,67,,,,,,,,,,,,,,,,,,,1,space,3,2.35,6.4267051112,,,,,,,,,,,,,,,,,,2019_Jan_28_1749,59.77338929426755,Cloud_Experiment_FR_REAL,001,12,
images/fcloud65-35_D1.1_1.tif,1.1,1,,,,,0,17,17,45,,,,,,,,,,,,,,,,,,,1,None,3,1.452,,,,,,,,,,,,,,,,,,,2019_Jan_28_1749,59.77338929426755,Cloud_Experiment_FR_REAL,001,12,
images/fcloud65-35_D1.2_1.tif,1.2,1,,,,,0,18,18,48,,,,,,,,,,,,,,,,,,,1,space,3,0.984,5.35777584379,,,,,,,,,,,,,,,,,,2019_Jan_28_1749,59.77338929426755,Cloud_Experiment_FR_REAL,001,12,
images/fcloud_D1.1_3.tif,1.1,0,,,,,0,19,19,11,,,,,,,,,,,,,,,,,,,1,space,2,1.802,2.349786384,,,,,,,,,,,,,,,,,,2019_Jan_28_1749,59.77338929426755,Cloud_Experiment_FR_REAL,001,12,
images/fcloud80-20_D1_2.tif,1.0,2,,,,,0,20,20,79,,,,,,,,,,,,,,,,,,,1,None,3,1.351,,,,,,,,,,,,,,,,,,,2019_Jan_28_1749,59.77338929426755,Cloud_Experiment_FR_REAL,001,12,
images/fcloud65-35_D1.4_2.tif,1.4,1,,,,,0,21,21,55,,,,,,,,,,,,,,,,,,,1,space,4,1.418,7.53555648887,,,,,,,,,,,,,,,,,,2019_Jan_28_1749,59.77338929426755,Cloud_Experiment_FR_REAL,001,12,
images/fcloud65-35_D1.3_1.tif,1.3,1,,,,,0,22,22,51,,,,,,,,,,,,,,,,,,,None,None,None,11.574,,,,,,,,,,,,,,,,,,,2019_Jan_28_1749,59.77338929426755,Cloud_Experiment_FR_REAL,001,12,
images/fcloud80-20_D1.7_3.tif,1.7,2,,,,,0,23,23,101,,,,,,,,,,,,,,,,,,,1,None,3,2.2,,,,,,,,,,,,,,,,,,,2019_Jan_28_1749,59.77338929426755,Cloud_Experiment_FR_REAL,001,12,
images/fcloud65-35_D1.2_3.tif,1.2,1,,,,,0,24,24,50,,,,,,,,,,,,,,,,,,,1,space,4,1.451,3.29581100831,,,,,,,,,,,,,,,,,,2019_Jan_28_1749,59.77338929426755,Cloud_Experiment_FR_REAL,001,12,
images/fcloud_D1.7_2.tif,1.7,0,,,,,0,25,25,28,,,,,,,,,,,,,,,,,,,1,space,4,0.984,1.44480142783,,,,,,,,,,,,,,,,,,2019_Jan_28_1749,59.77338929426755,Cloud_Experiment_FR_REAL,001,12,
images/fcloud_D1.9_2.tif,1.9,0,,,,,0,26,26,34,,,,,,,,,,,,,,,,,,,1,None,1,1.684,,,,,,,,,,,,,,,,,,,2019_Jan_28_1749,59.77338929426755,Cloud_Experiment_FR_REAL,001,12,
images/fcloud_D0.9_1.tif,0.9,0,,,,,0,27,27,3,,,,,,,,,,,,,,,,,,,None,None,None,11.024,,,,,,,,,,,,,,,,,,,2019_Jan_28_1749,59.77338929426755,Cloud_Experiment_FR_REAL,001,12,
images/fcloud_D1.1_1.tif,1.1,0,,,,,0,28,28,9,,,,,,,,,,,,,,,,,,,2,space,3,7.53,2.11080479078,,,,,,,,,,,,,,,,,,2019_Jan_28_1749,59.77338929426755,Cloud_Experiment_FR_REAL,001,12,
images/fcloud_D0.8_1.tif,0.8,0,,,,,0,29,29,0,,,,,,,,,,,,,,,,,,,None,None,None,18.485,,,,,,,,,,,,,,,,,,,2019_Jan_28_1749,59.77338929426755,Cloud_Experiment_FR_REAL,001,12,
images/fcloud_D1.2_2.tif,1.2,0,,,,,0,30,30,13,,,,,,,,,,,,,,,,,,,2,space,2,3.332,4.30464557631,,,,,,,,,,,,,,,,,,2019_Jan_28_1749,59.77338929426755,Cloud_Experiment_FR_REAL,001,12,
images/fcloud65-35_D1.8_1.tif,1.8,1,,,,,0,31,31,66,,,,,,,,,,,,,,,,,,,1,None,1,1.734,,,,,,,,,,,,,,,,,,,2019_Jan_28_1749,59.77338929426755,Cloud_Experiment_FR_REAL,001,12,
images/fcloud65-35_D1.7_2.tif,1.7,1,,,,,0,32,32,64,,,,,,,,,,,,,,,,,,,None,None,None,14.005,,,,,,,,,,,,,,,,,,,2019_Jan_28_1749,59.77338929426755,Cloud_Experiment_FR_REAL,001,12,
images/fcloud80-20_D0.9_3.tif,0.9,2,,,,,0,33,33,77,,,,,,,,,,,,,,,,,,,1,space,3,0.951,5.51412189196,,,,,,,,,,,,,,,,,,2019_Jan_28_1749,59.77338929426755,Cloud_Experiment_FR_REAL,001,12,
images/fcloud_D1.2_3.tif,1.2,0,,,,,0,34,34,14,,,,,,,,,,,,,,,,,,,None,None,None,10.509,,,,,,,,,,,,,,,,,,,2019_Jan_28_1749,59.77338929426755,Cloud_Experiment_FR_REAL,001,12,
images/fcloud_D1_3.tif,1.0,0,,,,,0,35,35,8,,,,,,,,,,,,,,,,,,,None,None,None,19.782,,,,,,,,,,,,,,,,,,,2019_Jan_28_1749,59.77338929426755,Cloud_Experiment_FR_REAL,001,12,
images/fcloud80-20_D1.9_1.tif,1.9,2,,,,,0,36,36,105,,,,,,,,,,,,,,,,,,,1,None,1,2.084,,,,,,,,,,,,,,,,,,,2019_Jan_28_1749,59.77338929426755,Cloud_Experiment_FR_REAL,001,12,
images/fcloud_D1.5_2.tif,1.5,0,,,,,0,37,37,22,,,,,,,,,,,,,,,,,,,1,None,2,1.851,,,,,,,,,,,,,,,,,,,2019_Jan_28_1749,59.77338929426755,Cloud_Experiment_FR_REAL,001,12,
images/fcloud80-20_D1_1.tif,1.0,2,,,,,0,38,38,78,,,,,,,,,,,,,,,,,,,None,None,None,11.041,,,,,,,,,,,,,,,,,,,2019_Jan_28_1749,59.77338929426755,Cloud_Experiment_FR_REAL,001,12,
images/fcloud_D1.6_2.tif,1.6,0,,,,,0,39,39,25,,,,,,,,,,,,,,,,,,,1,space,1,2.202,3.41216966114,,,,,,,,,,,,,,,,,,2019_Jan_28_1749,59.77338929426755,Cloud_Experiment_FR_REAL,001,12,
images/fcloud65-35_D1.7_3.tif,1.7,1,,,,,0,40,40,65,,,,,,,,,,,,,,,,,,,None,None,None,11.559,,,,,,,,,,,,,,,,,,,2019_Jan_28_1749,59.77338929426755,Cloud_Experiment_FR_REAL,001,12,
images/fcloud80-20_D1.4_2.tif,1.4,2,,,,,0,41,41,91,,,,,,,,,,,,,,,,,,,None,None,None,20.5,,,,,,,,,,,,,,,,,,,2019_Jan_28_1749,59.77338929426755,Cloud_Experiment_FR_REAL,001,12,
images/fcloud65-35_D1_2.tif,1.0,1,,,,,0,42,42,43,,,,,,,,,,,,,,,,,,,1,space,4,3.432,4.6658332104,,,,,,,,,,,,,,,,,,2019_Jan_28_1749,59.77338929426755,Cloud_Experiment_FR_REAL,001,12,
images/fcloud65-35_D1.3_2.tif,1.3,1,,,,,0,43,43,52,,,,,,,,,,,,,,,,,,,1,space,3,1.47,4.68953325247,,,,,,,,,,,,,,,,,,2019_Jan_28_1749,59.77338929426755,Cloud_Experiment_FR_REAL,001,12,
images/fcloud_D1.4_1.tif,1.4,0,,,,,0,44,44,18,,,,,,,,,,,,,,,,,,,1,space,4,1.301,3.68879815226,,,,,,,,,,,,,,,,,,2019_Jan_28_1749,59.77338929426755,Cloud_Experiment_FR_REAL,001,12,
images/fcloud80-20_D1.9_2.tif,1.9,2,,,,,0,45,45,106,,,,,,,,,,,,,,,,,,,1,space,3,3.083,3.39444809136,,,,,,,,,,,,,,,,,,2019_Jan_28_1749,59.77338929426755,Cloud_Experiment_FR_REAL,001,12,
images/fcloud80-20_D1.3_1.tif,1.3,2,,,,,0,46,46,87,,,,,,,,,,,,,,,,,,,None,None,None,12.29,,,,,,,,,,,,,,,,,,,2019_Jan_28_1749,59.77338929426755,Cloud_Experiment_FR_REAL,001,12,
images/fcloud65-35_D1.5_2.tif,1.5,1,,,,,0,47,47,58,,,,,,,,,,,,,,,,,,,1,space,1,1.568,5.10273925069,,,,,,,,,,,,,,,,,,2019_Jan_28_1749,59.77338929426755,Cloud_Experiment_FR_REAL,001,12,
images/fcloud65-35_D1.6_3.tif,1.6,1,,,,,0,48,48,62,,,,,,,,,,,,,,,,,,,1,space,2,1.617,4.90903828843,,,,,,,,,,,,,,,,,,2019_Jan_28_1749,59.77338929426755,Cloud_Experiment_FR_REAL,001,12,
images/fcloud65-35_D1.5_3.tif,1.5,1,,,,,0,49,49,59,,,,,,,,,,,,,,,,,,,None,None,None,10.908,,,,,,,,,,,,,,,,,,,2019_Jan_28_1749,59.77338929426755,Cloud_Experiment_FR_REAL,001,12,
images/fcloud_D1.6_1.tif,1.6,0,,,,,0,50,50,24,,,,,,,,,,,,,,,,,,,1,None,1,1.734,,,,,,,,,,,,,,,,,,,2019_Jan_28_1749,59.77338929426755,Cloud_Experiment_FR_REAL,001,12,
images/fcloud80-20_D1.1_2.tif,1.1,2,,,,,0,51,51,82,,,,,,,,,,,,,,,,,,,1,None,1,3.783,,,,,,,,,,,,,,,,,,,2019_Jan_28_1749,59.77338929426755,Cloud_Experiment_FR_REAL,001,12,
images/fcloud_D1_1.tif,1.0,0,,,,,0,52,52,6,,,,,,,,,,,,,,,,,,,1,space,2,1.617,6.65347684411,,,,,,,,,,,,,,,,,,2019_Jan_28_1749,59.77338929426755,Cloud_Experiment_FR_REAL,001,12,
images/fcloud65-35_D0.8_2.tif,0.8,1,,,,,0,53,53,37,,,,,,,,,,,,,,,,,,,1,space,1,1.301,7.68731458639,,,,,,,,,,,,,,,,,,2019_Jan_28_1749,59.77338929426755,Cloud_Experiment_FR_REAL,001,12,
images/fcloud80-20_D1.8_1.tif,1.8,2,,,,,0,54,54,102,,,,,,,,,,,,,,,,,,,None,None,None,10.608,,,,,,,,,,,,,,,,,,,2019_Jan_28_1749,59.77338929426755,Cloud_Experiment_FR_REAL,001,12,
images/fcloud80-20_D1.2_1.tif,1.2,2,,,,,0,55,55,84,,,,,,,,,,,,,,,,,,,1,space,4,1.752,5.53358148533,,,,,,,,,,,,,,,,,,2019_Jan_28_1749,59.77338929426755,Cloud_Experiment_FR_REAL,001,12,
images/fcloud_D1.3_1.tif,1.3,0,,,,,0,56,56,15,,,,,,,,,,,,,,,,,,,1,space,3,0.968,3.82195101766,,,,,,,,,,,,,,,,,,2019_Jan_28_1749,59.77338929426755,Cloud_Experiment_FR_REAL,001,12,
images/fcloud65-35_D0.9_2.tif,0.9,1,,,,,0,57,57,40,,,,,,,,,,,,,,,,,,,None,None,None,20.45,,,,,,,,,,,,,,,,,,,2019_Jan_28_1749,59.77338929426755,Cloud_Experiment_FR_REAL,001,12,
images/fcloud_D0.9_2.tif,0.9,0,,,,,0,58,58,4,,,,,,,,,,,,,,,,,,,2,space,2,2.25,3.81521893907,,,,,,,,,,,,,,,,,,2019_Jan_28_1749,59.77338929426755,Cloud_Experiment_FR_REAL,001,12,
images/fcloud65-35_D1.9_1.tif,1.9,1,,,,,0,59,59,69,,,,,,,,,,,,,,,,,,,1,space,3,0.952,7.53455819192,,,,,,,,,,,,,,,,,,2019_Jan_28_1749,59.77338929426755,Cloud_Experiment_FR_REAL,001,12,
images/fcloud65-35_D1.4_1.tif,1.4,1,,,,,0,60,60,54,,,,,,,,,,,,,,,,,,,2,space,2,1.467,4.22763174871,,,,,,,,,,,,,,,,,,2019_Jan_28_1749,59.77338929426755,Cloud_Experiment_FR_REAL,001,12,
images/fcloud65-35_D1.2_2.tif,1.2,1,,,,,0,61,61,49,,,,,,,,,,,,,,,,,,,1,space,1,0.684,7.13953538582,,,,,,,,,,,,,,,,,,2019_Jan_28_1749,59.77338929426755,Cloud_Experiment_FR_REAL,001,12,
images/fcloud80-20_D1.8_2.tif,1.8,2,,,,,0,62,62,103,,,,,,,,,,,,,,,,,,,1,space,1,0.867,6.19205341249,,,,,,,,,,,,,,,,,,2019_Jan_28_1749,59.77338929426755,Cloud_Experiment_FR_REAL,001,12,
images/fcloud80-20_D0.8_2.tif,0.8,2,,,,,0,63,63,73,,,,,,,,,,,,,,,,,,,1,space,3,1.567,1.53999998971,,,,,,,,,,,,,,,,,,2019_Jan_28_1749,59.77338929426755,Cloud_Experiment_FR_REAL,001,12,
images/fcloud80-20_D1.9_3.tif,1.9,2,,,,,0,64,64,107,,,,,,,,,,,,,,,,,,,1,space,1,1.617,4.4799042622,,,,,,,,,,,,,,,,,,2019_Jan_28_1749,59.77338929426755,Cloud_Experiment_FR_REAL,001,12,
images/fcloud80-20_D1_3.tif,1.0,2,,,,,0,65,65,80,,,,,,,,,,,,,,,,,,,1,space,2,1.534,1.91534884102,,,,,,,,,,,,,,,,,,2019_Jan_28_1749,59.77338929426755,Cloud_Experiment_FR_REAL,001,12,
images/fcloud80-20_D1.3_2.tif,1.3,2,,,,,0,66,66,88,,,,,,,,,,,,,,,,,,,1,space,2,1.203,5.14551437224,,,,,,,,,,,,,,,,,,2019_Jan_28_1749,59.77338929426755,Cloud_Experiment_FR_REAL,001,12,
images/fcloud_D1.6_3.tif,1.6,0,,,,,0,67,67,26,,,,,,,,,,,,,,,,,,,2,space,3,2.301,2.004628047,,,,,,,,,,,,,,,,,,2019_Jan_28_1749,59.77338929426755,Cloud_Experiment_FR_REAL,001,12,
images/fcloud65-35_D0.9_1.tif,0.9,1,,,,,0,68,68,39,,,,,,,,,,,,,,,,,,,None,None,None,12.507,,,,,,,,,,,,,,,,,,,2019_Jan_28_1749,59.77338929426755,Cloud_Experiment_FR_REAL,001,12,
images/fcloud80-20_D1.4_3.tif,1.4,2,,,,,0,69,69,92,,,,,,,,,,,,,,,,,,,2,space,2,1.402,2.99188973702,,,,,,,,,,,,,,,,,,2019_Jan_28_1749,59.77338929426755,Cloud_Experiment_FR_REAL,001,12,
images/fcloud_D1.5_1.tif,1.5,0,,,,,0,70,70,21,,,,,,,,,,,,,,,,,,,None,None,None,10.625,,,,,,,,,,,,,,,,,,,2019_Jan_28_1749,59.77338929426755,Cloud_Experiment_FR_REAL,001,12,
images/fcloud_D1.8_1.tif,1.8,0,,,,,0,71,71,30,,,,,,,,,,,,,,,,,,,1,space,2,2.782,6.2050148228,,,,,,,,,,,,,,,,,,2019_Jan_28_1749,59.77338929426755,Cloud_Experiment_FR_REAL,001,12,
images/fcloud80-20_D1.4_1.tif,1.4,2,,,,,0,72,72,90,,,,,,,,,,,,,,,,,,,None,None,None,12.108,,,,,,,,,,,,,,,,,,,2019_Jan_28_1749,59.77338929426755,Cloud_Experiment_FR_REAL,001,12,
images/fcloud65-35_D1.4_3.tif,1.4,1,,,,,0,73,73,56,,,,,,,,,,,,,,,,,,,1,None,1,1.019,,,,,,,,,,,,,,,,,,,2019_Jan_28_1749,59.77338929426755,Cloud_Experiment_FR_REAL,001,12,
images/fcloud_D1.9_3.tif,1.9,0,,,,,0,74,74,35,,,,,,,,,,,,,,,,,,,3,space,2,2.0,1.77304012261,,,,,,,,,,,,,,,,,,2019_Jan_28_1749,59.77338929426755,Cloud_Experiment_FR_REAL,001,12,
images/fcloud65-35_D1.6_1.tif,1.6,1,,,,,0,75,75,60,,,,,,,,,,,,,,,,,,,2,None,3,1.402,,,,,,,,,,,,,,,,,,,2019_Jan_28_1749,59.77338929426755,Cloud_Experiment_FR_REAL,001,12,
images/fcloud65-35_D1.8_3.tif,1.8,1,,,,,0,76,76,68,,,,,,,,,,,,,,,,,,,2,None,2,1.068,,,,,,,,,,,,,,,,,,,2019_Jan_28_1749,59.77338929426755,Cloud_Experiment_FR_REAL,001,12,
images/fcloud80-20_D1.5_1.tif,1.5,2,,,,,0,77,77,93,,,,,,,,,,,,,,,,,,,2,space,2,1.484,2.89662229165,,,,,,,,,,,,,,,,,,2019_Jan_28_1749,59.77338929426755,Cloud_Experiment_FR_REAL,001,12,
images/fcloud80-20_D1.1_1.tif,1.1,2,,,,,0,78,78,81,,,,,,,,,,,,,,,,,,,2,space,3,2.683,7.14315485477,,,,,,,,,,,,,,,,,,2019_Jan_28_1749,59.77338929426755,Cloud_Experiment_FR_REAL,001,12,
images/fcloud65-35_D1_1.tif,1.0,1,,,,,0,79,79,42,,,,,,,,,,,,,,,,,,,3,space,3,1.351,1.46958407207,,,,,,,,,,,,,,,,,,2019_Jan_28_1749,59.77338929426755,Cloud_Experiment_FR_REAL,001,12,
images/fcloud_D1.8_3.tif,1.8,0,,,,,0,80,80,32,,,,,,,,,,,,,,,,,,,2,space,2,1.951,4.44071365381,,,,,,,,,,,,,,,,,,2019_Jan_28_1749,59.77338929426755,Cloud_Experiment_FR_REAL,001,12,
images/fcloud65-35_D1.1_2.tif,1.1,1,,,,,0,81,81,46,,,,,,,,,,,,,,,,,,,None,None,None,11.044,,,,,,,,,,,,,,,,,,,2019_Jan_28_1749,59.77338929426755,Cloud_Experiment_FR_REAL,001,12,
images/fcloud65-35_D1.1_3.tif,1.1,1,,,,,0,82,82,47,,,,,,,,,,,,,,,,,,,1,space,3,1.468,4.76604998784,,,,,,,,,,,,,,,,,,2019_Jan_28_1749,59.77338929426755,Cloud_Experiment_FR_REAL,001,12,
images/fcloud_D0.8_2.tif,0.8,0,,,,,0,83,83,1,,,,,,,,,,,,,,,,,,,2,space,3,4.233,1.72571560464,,,,,,,,,,,,,,,,,,2019_Jan_28_1749,59.77338929426755,Cloud_Experiment_FR_REAL,001,12,
images/fcloud80-20_D1.3_3.tif,1.3,2,,,,,0,84,84,89,,,,,,,,,,,,,,,,,,,2,space,2,1.034,2.8778808346,,,,,,,,,,,,,,,,,,2019_Jan_28_1749,59.77338929426755,Cloud_Experiment_FR_REAL,001,12,
images/fcloud80-20_D1.7_1.tif,1.7,2,,,,,0,85,85,99,,,,,,,,,,,,,,,,,,,2,space,3,0.601,1.36138091914,,,,,,,,,,,,,,,,,,2019_Jan_28_1749,59.77338929426755,Cloud_Experiment_FR_REAL,001,12,
images/fcloud80-20_D1.5_3.tif,1.5,2,,,,,0,86,86,95,,,,,,,,,,,,,,,,,,,3,space,3,0.901,2.95008618152,,,,,,,,,,,,,,,,,,2019_Jan_28_1749,59.77338929426755,Cloud_Experiment_FR_REAL,001,12,
images/fcloud_D0.9_3.tif,0.9,0,,,,,0,87,87,5,,,,,,,,,,,,,,,,,,,2,space,2,1.436,2.71869051407,,,,,,,,,,,,,,,,,,2019_Jan_28_1749,59.77338929426755,Cloud_Experiment_FR_REAL,001,12,
images/fcloud_D1.9_1.tif,1.9,0,,,,,0,88,88,33,,,,,,,,,,,,,,,,,,,2,space,2,1.7,1.74350194546,,,,,,,,,,,,,,,,,,2019_Jan_28_1749,59.77338929426755,Cloud_Experiment_FR_REAL,001,12,
images/fcloud_D0.8_3.tif,0.8,0,,,,,0,89,89,2,,,,,,,,,,,,,,,,,,,2,space,3,1.035,3.47752264031,,,,,,,,,,,,,,,,,,2019_Jan_28_1749,59.77338929426755,Cloud_Experiment_FR_REAL,001,12,
images/fcloud65-35_D1_3.tif,1.0,1,,,,,0,90,90,44,,,,,,,,,,,,,,,,,,,2,space,2,0.951,5.57415336245,,,,,,,,,,,,,,,,,,2019_Jan_28_1749,59.77338929426755,Cloud_Experiment_FR_REAL,001,12,
images/fcloud80-20_D1.8_3.tif,1.8,2,,,,,0,91,91,104,,,,,,,,,,,,,,,,,,,None,None,None,12.159,,,,,,,,,,,,,,,,,,,2019_Jan_28_1749,59.77338929426755,Cloud_Experiment_FR_REAL,001,12,
images/fcloud80-20_D1.1_3.tif,1.1,2,,,,,0,92,92,83,,,,,,,,,,,,,,,,,,,2,space,3,0.818,4.15136741492,,,,,,,,,,,,,,,,,,2019_Jan_28_1749,59.77338929426755,Cloud_Experiment_FR_REAL,001,12,
images/fcloud65-35_D1.7_1.tif,1.7,1,,,,,0,93,93,63,,,,,,,,,,,,,,,,,,,1,space,2,1.084,3.35742885593,,,,,,,,,,,,,,,,,,2019_Jan_28_1749,59.77338929426755,Cloud_Experiment_FR_REAL,001,12,
images/fcloud_D1.2_1.tif,1.2,0,,,,,0,94,94,12,,,,,,,,,,,,,,,,,,,None,None,None,13.491,,,,,,,,,,,,,,,,,,,2019_Jan_28_1749,59.77338929426755,Cloud_Experiment_FR_REAL,001,12,
images/fcloud_D1.3_2.tif,1.3,0,,,,,0,95,95,16,,,,,,,,,,,,,,,,,,,1,space,3,1.601,2.53584795867,,,,,,,,,,,,,,,,,,2019_Jan_28_1749,59.77338929426755,Cloud_Experiment_FR_REAL,001,12,
images/fcloud65-35_D0.8_3.tif,0.8,1,,,,,0,96,96,38,,,,,,,,,,,,,,,,,,,1,None,2,1.386,,,,,,,,,,,,,,,,,,,2019_Jan_28_1749,59.77338929426755,Cloud_Experiment_FR_REAL,001,12,
images/fcloud_D1.1_2.tif,1.1,0,,,,,0,97,97,10,,,,,,,,,,,,,,,,,,,1,space,3,1.385,1.55548644357,,,,,,,,,,,,,,,,,,2019_Jan_28_1749,59.77338929426755,Cloud_Experiment_FR_REAL,001,12,
images/fcloud80-20_D0.8_1.tif,0.8,2,,,,,0,98,98,72,,,,,,,,,,,,,,,,,,,None,None,None,11.124,,,,,,,,,,,,,,,,,,,2019_Jan_28_1749,59.77338929426755,Cloud_Experiment_FR_REAL,001,12,
images/fcloud80-20_D1.6_1.tif,1.6,2,,,,,0,99,99,96,,,,,,,,,,,,,,,,,,,None,None,None,20.433,,,,,,,,,,,,,,,,,,,2019_Jan_28_1749,59.77338929426755,Cloud_Experiment_FR_REAL,001,12,
images/fcloud80-20_D0.8_3.tif,0.8,2,,,,,0,100,100,74,,,,,,,,,,,,,,,,,,,1,None,3,1.417,,,,,,,,,,,,,,,,,,,2019_Jan_28_1749,59.77338929426755,Cloud_Experiment_FR_REAL,001,12,
images/fcloud65-35_D1.3_3.tif,1.3,1,,,,,0,101,101,53,,,,,,,,,,,,,,,,,,,2,space,2,1.667,2.51447093603,,,,,,,,,,,,,,,,,,2019_Jan_28_1749,59.77338929426755,Cloud_Experiment_FR_REAL,001,12,
images/fcloud_D1.8_2.tif,1.8,0,,,,,0,102,102,31,,,,,,,,,,,,,,,,,,,2,space,2,0.601,1.50451058519,,,,,,,,,,,,,,,,,,2019_Jan_28_1749,59.77338929426755,Cloud_Experiment_FR_REAL,001,12,
images/fcloud65-35_D0.8_1.tif,0.8,1,,,,,0,103,103,36,,,,,,,,,,,,,,,,,,,2,space,3,0.869,4.13275447191,,,,,,,,,,,,,,,,,,2019_Jan_28_1749,59.77338929426755,Cloud_Experiment_FR_REAL,001,12,
images/fcloud_D1.4_2.tif,1.4,0,,,,,0,104,104,19,,,,,,,,,,,,,,,,,,,3,space,2,1.568,1.97652819881,,,,,,,,,,,,,,,,,,2019_Jan_28_1749,59.77338929426755,Cloud_Experiment_FR_REAL,001,12,
images/fcloud_D1.7_1.tif,1.7,0,,,,,0,105,105,27,,,,,,,,,,,,,,,,,,,2,space,3,1.335,7.26360642223,,,,,,,,,,,,,,,,,,2019_Jan_28_1749,59.77338929426755,Cloud_Experiment_FR_REAL,001,12,
images/fcloud80-20_D1.2_3.tif,1.2,2,,,,,0,106,106,86,,,,,,,,,,,,,,,,,,,3,space,3,1.767,2.38138232767,,,,,,,,,,,,,,,,,,2019_Jan_28_1749,59.77338929426755,Cloud_Experiment_FR_REAL,001,12,
images/fcloud_D1.7_3.tif,1.7,0,,,,,0,107,107,29,,,,,,,,,,,,,,,,,,,2,space,3,0.669,3.13137680158,,,,,,,,,,,,,,,,,,2019_Jan_28_1749,59.77338929426755,Cloud_Experiment_FR_REAL,001,12,
,,,,,,,,,,,,,,,,,,,,,,,,,,,,,,,,,,,,,,,,,,,,,,space,4.86314438857,,,,2019_Jan_28_1749,59.77338929426755,Cloud_Experiment_FR_REAL,001,12,
,,,,,,,,,,,,,,,,,,,,,,,,,4,16.763,,,,,,,,,,,,,,,,,,,,,,,,,2019_Jan_28_1749,59.77338929426755,Cloud_Experiment_FR_REAL,001,12,
,,,,,,,,,,,,,,,,,,,,,,,,,,,,,,,,,,7,,,,,,,,,,,,,,,,,2019_Jan_28_1749,59.77338929426755,Cloud_Experiment_FR_REAL,001,12,
,,,,,,,,,,,,,,,,,,,,,,,,,,,,,,,,,,,7,,,,,,,,,,,,,,,,2019_Jan_28_1749,59.77338929426755,Cloud_Experiment_FR_REAL,001,12,
,,,,,,,,,,,,,,,,,,,,,,,,,,,,,,,,,,,,5,,,,,,,,,,,,,,,2019_Jan_28_1749,59.77338929426755,Cloud_Experiment_FR_REAL,001,12,
,,,,,,,,,,,,,,,,,,,,,,,,,,,,,,,,,,,,,2,,,,,,,,,,,,,,2019_Jan_28_1749,59.77338929426755,Cloud_Experiment_FR_REAL,001,12,
,,,,,,,,,,,,,,,,,,,,,,,,,,,,,,,,,,,,,,2,,,,,,,,,,,,,2019_Jan_28_1749,59.77338929426755,Cloud_Experiment_FR_REAL,001,12,
,,,,,,,,,,,,,,,,,,,,,,,,,,,,,,,,,,,,,,,4,,,,,,,,,,,,2019_Jan_28_1749,59.77338929426755,Cloud_Experiment_FR_REAL,001,12,
,,,,,,,,,,,,,,,,,,,,,,,,,,,,,,,,,,,,,,,,7,,,,,,,,,,,2019_Jan_28_1749,59.77338929426755,Cloud_Experiment_FR_REAL,001,12,
,,,,,,,,,,,,,,,,,,,,,,,,,,,,,,,,,,,,,,,,,7,,,,,,,,,,2019_Jan_28_1749,59.77338929426755,Cloud_Experiment_FR_REAL,001,12,
,,,,,,,,,,,,,,,,,,,,,,,,,,,,,,,,,,,,,,,,,,5,,,,,,,,,2019_Jan_28_1749,59.77338929426755,Cloud_Experiment_FR_REAL,001,12,
,,,,,,,,,,,,,,,,,,,,,,,,,,,,,,,,,,,,,,,,,,,4,,,,,,,,2019_Jan_28_1749,59.77338929426755,Cloud_Experiment_FR_REAL,001,12,
,,,,,,,,,,,,,,,,,,,,,,,,,,,,,,,,,,,,,,,,,,,,,,,,space,631.584283352,,2019_Jan_28_1749,59.77338929426755,Cloud_Experiment_FR_REAL,001,12,
images/fcloud_D1.5_5.tif,1.5,0,,,,,,,,,0,0,0,22,,,,,,,,,,,,,,,2,space,3,2.749,1.86302255731,,,,,,,,,,,,,,,,,,2019_Jan_28_1749,59.77338929426755,Cloud_Experiment_FR_REAL,001,12,
images/fcloud65-35_D0.8_6.tif,0.8,1,,,,,,,,,0,1,1,38,,,,,,,,,,,,,,,1,None,2,1.101,,,,,,,,,,,,,,,,,,,2019_Jan_28_1749,59.77338929426755,Cloud_Experiment_FR_REAL,001,12,
images/fcloud_D1.1_6.tif,1.1,0,,,,,,,,,0,2,2,11,,,,,,,,,,,,,,,None,None,None,10.276,,,,,,,,,,,,,,,,,,,2019_Jan_28_1749,59.77338929426755,Cloud_Experiment_FR_REAL,001,12,
images/fcloud_D1.9_4.tif,1.9,0,,,,,,,,,0,3,3,33,,,,,,,,,,,,,,,2,space,2,0.934,4.65344857099,,,,,,,,,,,,,,,,,,2019_Jan_28_1749,59.77338929426755,Cloud_Experiment_FR_REAL,001,12,
images/fcloud_D0.9_4.tif,0.9,0,,,,,,,,,0,4,4,3,,,,,,,,,,,,,,,2,space,2,1.417,5.8280338434,,,,,,,,,,,,,,,,,,2019_Jan_28_1749,59.77338929426755,Cloud_Experiment_FR_REAL,001,12,
images/fcloud65-35_D1.1_4.tif,1.1,1,,,,,,,,,0,5,5,45,,,,,,,,,,,,,,,1,space,3,1.184,3.32508753092,,,,,,,,,,,,,,,,,,2019_Jan_28_1749,59.77338929426755,Cloud_Experiment_FR_REAL,001,12,
images/fcloud65-35_D1.5_6.tif,1.5,1,,,,,,,,,0,6,6,59,,,,,,,,,,,,,,,2,space,3,1.386,1.54602421308,,,,,,,,,,,,,,,,,,2019_Jan_28_1749,59.77338929426755,Cloud_Experiment_FR_REAL,001,12,
images/fcloud80-20_D1.6_4.tif,1.6,2,,,,,,,,,0,7,7,96,,,,,,,,,,,,,,,2,space,2,1.068,3.28976416646,,,,,,,,,,,,,,,,,,2019_Jan_28_1749,59.77338929426755,Cloud_Experiment_FR_REAL,001,12,
images/fcloud80-20_D1.7_4.tif,1.7,2,,,,,,,,,0,8,8,99,,,,,,,,,,,,,,,1,space,1,1.018,5.1586382243,,,,,,,,,,,,,,,,,,2019_Jan_28_1749,59.77338929426755,Cloud_Experiment_FR_REAL,001,12,
images/fcloud65-35_D1.6_5.tif,1.6,1,,,,,,,,,0,9,9,61,,,,,,,,,,,,,,,3,space,3,1.751,3.14236937708,,,,,,,,,,,,,,,,,,2019_Jan_28_1749,59.77338929426755,Cloud_Experiment_FR_REAL,001,12,
images/fcloud80-20_D1.7_6.tif,1.7,2,,,,,,,,,0,10,10,101,,,,,,,,,,,,,,,1,space,2,2.084,2.85099364474,,,,,,,,,,,,,,,,,,2019_Jan_28_1749,59.77338929426755,Cloud_Experiment_FR_REAL,001,12,
images/fcloud_D1.8_4.tif,1.8,0,,,,,,,,,0,11,11,30,,,,,,,,,,,,,,,2,space,4,1.134,4.98480347378,,,,,,,,,,,,,,,,,,2019_Jan_28_1749,59.77338929426755,Cloud_Experiment_FR_REAL,001,12,
images/fcloud_D1.1_4.tif,1.1,0,,,,,,,,,0,12,12,9,,,,,,,,,,,,,,,1,None,2,1.355,,,,,,,,,,,,,,,,,,,2019_Jan_28_1749,59.77338929426755,Cloud_Experiment_FR_REAL,001,12,
images/fcloud65-35_D1.8_5.tif,1.8,1,,,,,,,,,0,13,13,67,,,,,,,,,,,,,,,1,space,3,0.968,4.78399671413,,,,,,,,,,,,,,,,,,2019_Jan_28_1749,59.77338929426755,Cloud_Experiment_FR_REAL,001,12,
images/fcloud65-35_D1.5_4.tif,1.5,1,,,,,,,,,0,14,14,57,,,,,,,,,,,,,,,1,space,2,1.317,5.962334596,,,,,,,,,,,,,,,,,,2019_Jan_28_1749,59.77338929426755,Cloud_Experiment_FR_REAL,001,12,
images/fcloud65-35_D0.9_6.tif,0.9,1,,,,,,,,,0,15,15,41,,,,,,,,,,,,,,,None,None,None,9.926,,,,,,,,,,,,,,,,,,,2019_Jan_28_1749,59.77338929426755,Cloud_Experiment_FR_REAL,001,12,
images/fcloud_D0.9_5.tif,0.9,0,,,,,,,,,0,16,16,4,,,,,,,,,,,,,,,2,space,2,1.418,7.19787047122,,,,,,,,,,,,,,,,,,2019_Jan_28_1749,59.77338929426755,Cloud_Experiment_FR_REAL,001,12,
images/fcloud65-35_D1_5.tif,1.0,1,,,,,,,,,0,17,17,43,,,,,,,,,,,,,,,2,space,2,1.318,4.53913997387,,,,,,,,,,,,,,,,,,2019_Jan_28_1749,59.77338929426755,Cloud_Experiment_FR_REAL,001,12,
images/fcloud80-20_D1.3_4.tif,1.3,2,,,,,,,,,0,18,18,87,,,,,,,,,,,,,,,1,space,2,1.035,4.17585242068,,,,,,,,,,,,,,,,,,2019_Jan_28_1749,59.77338929426755,Cloud_Experiment_FR_REAL,001,12,
images/fcloud65-35_D1.3_6.tif,1.3,1,,,,,,,,,0,19,19,53,,,,,,,,,,,,,,,1,space,1,1.235,3.99069095822,,,,,,,,,,,,,,,,,,2019_Jan_28_1749,59.77338929426755,Cloud_Experiment_FR_REAL,001,12,
images/fcloud80-20_D0.9_6.tif,0.9,2,,,,,,,,,0,20,20,77,,,,,,,,,,,,,,,1,space,1,1.118,7.72226731636,,,,,,,,,,,,,,,,,,2019_Jan_28_1749,59.77338929426755,Cloud_Experiment_FR_REAL,001,12,
images/fcloud65-35_D1.1_6.tif,1.1,1,,,,,,,,,0,21,21,47,,,,,,,,,,,,,,,None,None,None,10.442,,,,,,,,,,,,,,,,,,,2019_Jan_28_1749,59.77338929426755,Cloud_Experiment_FR_REAL,001,12,
images/fcloud_D1.8_6.tif,1.8,0,,,,,,,,,0,22,22,32,,,,,,,,,,,,,,,1,space,2,1.701,3.62278718129,,,,,,,,,,,,,,,,,,2019_Jan_28_1749,59.77338929426755,Cloud_Experiment_FR_REAL,001,12,
images/fcloud65-35_D1.1_5.tif,1.1,1,,,,,,,,,0,23,23,46,,,,,,,,,,,,,,,None,None,None,15.654,,,,,,,,,,,,,,,,,,,2019_Jan_28_1749,59.77338929426755,Cloud_Experiment_FR_REAL,001,12,
images/fcloud80-20_D0.8_5.tif,0.8,2,,,,,,,,,0,24,24,73,,,,,,,,,,,,,,,None,None,None,24.78,,,,,,,,,,,,,,,,,,,2019_Jan_28_1749,59.77338929426755,Cloud_Experiment_FR_REAL,001,12,
images/fcloud65-35_D1.6_4.tif,1.6,1,,,,,,,,,0,25,25,60,,,,,,,,,,,,,,,None,None,None,33.856,,,,,,,,,,,,,,,,,,,2019_Jan_28_1749,59.77338929426755,Cloud_Experiment_FR_REAL,001,12,
images/fcloud65-35_D1.2_6.tif,1.2,1,,,,,,,,,0,26,26,50,,,,,,,,,,,,,,,2,space,2,1.634,6.34933709895,,,,,,,,,,,,,,,,,,2019_Jan_28_1749,59.77338929426755,Cloud_Experiment_FR_REAL,001,12,
images/fcloud80-20_D1.2_6.tif,1.2,2,,,,,,,,,0,27,27,86,,,,,,,,,,,,,,,2,space,3,1.651,1.46460955127,,,,,,,,,,,,,,,,,,2019_Jan_28_1749,59.77338929426755,Cloud_Experiment_FR_REAL,001,12,
images/fcloud65-35_D1.9_5.tif,1.9,1,,,,,,,,,0,28,28,70,,,,,,,,,,,,,,,None,None,None,10.677,,,,,,,,,,,,,,,,,,,2019_Jan_28_1749,59.77338929426755,Cloud_Experiment_FR_REAL,001,12,
images/fcloud65-35_D1.7_5.tif,1.7,1,,,,,,,,,0,29,29,64,,,,,,,,,,,,,,,2,None,1,4.332,,,,,,,,,,,,,,,,,,,2019_Jan_28_1749,59.77338929426755,Cloud_Experiment_FR_REAL,001,12,
images/fcloud80-20_D1_4.tif,1.0,2,,,,,,,,,0,30,30,78,,,,,,,,,,,,,,,None,None,None,15.055,,,,,,,,,,,,,,,,,,,2019_Jan_28_1749,59.77338929426755,Cloud_Experiment_FR_REAL,001,12,
images/fcloud80-20_D1.9_5.tif,1.9,2,,,,,,,,,0,31,31,106,,,,,,,,,,,,,,,1,space,2,0.853,1.24389596944,,,,,,,,,,,,,,,,,,2019_Jan_28_1749,59.77338929426755,Cloud_Experiment_FR_REAL,001,12,
images/fcloud_D1.6_5.tif,1.6,0,,,,,,,,,0,32,32,25,,,,,,,,,,,,,,,2,space,2,0.918,3.10336485697,,,,,,,,,,,,,,,,,,2019_Jan_28_1749,59.77338929426755,Cloud_Experiment_FR_REAL,001,12,
images/fcloud65-35_D0.9_5.tif,0.9,1,,,,,,,,,0,33,33,40,,,,,,,,,,,,,,,2,space,2,1.369,3.423532357,,,,,,,,,,,,,,,,,,2019_Jan_28_1749,59.77338929426755,Cloud_Experiment_FR_REAL,001,12,
images/fcloud_D1.4_5.tif,1.4,0,,,,,,,,,0,34,34,19,,,,,,,,,,,,,,,2,space,2,1.034,2.05411417084,,,,,,,,,,,,,,,,,,2019_Jan_28_1749,59.77338929426755,Cloud_Experiment_FR_REAL,001,12,
images/fcloud80-20_D1.2_5.tif,1.2,2,,,,,,,,,0,35,35,85,,,,,,,,,,,,,,,None,None,None,10.127,,,,,,,,,,,,,,,,,,,2019_Jan_28_1749,59.77338929426755,Cloud_Experiment_FR_REAL,001,12,
images/fcloud_D1.7_4.tif,1.7,0,,,,,,,,,0,36,36,27,,,,,,,,,,,,,,,2,space,2,2.317,3.52629371212,,,,,,,,,,,,,,,,,,2019_Jan_28_1749,59.77338929426755,Cloud_Experiment_FR_REAL,001,12,
images/fcloud_D1.7_5.tif,1.7,0,,,,,,,,,0,37,37,28,,,,,,,,,,,,,,,1,space,2,0.653,6.71028878129,,,,,,,,,,,,,,,,,,2019_Jan_28_1749,59.77338929426755,Cloud_Experiment_FR_REAL,001,12,
images/fcloud65-35_D1.4_6.tif,1.4,1,,,,,,,,,0,38,38,56,,,,,,,,,,,,,,,2,space,2,0.918,5.04329431819,,,,,,,,,,,,,,,,,,2019_Jan_28_1749,59.77338929426755,Cloud_Experiment_FR_REAL,001,12,
images/fcloud_D0.8_5.tif,0.8,0,,,,,,,,,0,39,39,1,,,,,,,,,,,,,,,2,space,2,0.585,2.23211843029,,,,,,,,,,,,,,,,,,2019_Jan_28_1749,59.77338929426755,Cloud_Experiment_FR_REAL,001,12,
images/fcloud_D1.8_5.tif,1.8,0,,,,,,,,,0,40,40,31,,,,,,,,,,,,,,,2,None,2,0.818,,,,,,,,,,,,,,,,,,,2019_Jan_28_1749,59.77338929426755,Cloud_Experiment_FR_REAL,001,12,
images/fcloud65-35_D1.9_6.tif,1.9,1,,,,,,,,,0,41,41,71,,,,,,,,,,,,,,,None,None,None,10.01,,,,,,,,,,,,,,,,,,,2019_Jan_28_1749,59.77338929426755,Cloud_Experiment_FR_REAL,001,12,
images/fcloud80-20_D1.4_4.tif,1.4,2,,,,,,,,,0,42,42,90,,,,,,,,,,,,,,,1,None,2,1.301,,,,,,,,,,,,,,,,,,,2019_Jan_28_1749,59.77338929426755,Cloud_Experiment_FR_REAL,001,12,
images/fcloud80-20_D1.5_5.tif,1.5,2,,,,,,,,,0,43,43,94,,,,,,,,,,,,,,,1,space,2,1.101,6.49209458838,,,,,,,,,,,,,,,,,,2019_Jan_28_1749,59.77338929426755,Cloud_Experiment_FR_REAL,001,12,
images/fcloud_D1.2_4.tif,1.2,0,,,,,,,,,0,44,44,12,,,,,,,,,,,,,,,3,space,2,1.018,2.49316845153,,,,,,,,,,,,,,,,,,2019_Jan_28_1749,59.77338929426755,Cloud_Experiment_FR_REAL,001,12,
images/fcloud_D1.2_6.tif,1.2,0,,,,,,,,,0,45,45,14,,,,,,,,,,,,,,,2,space,3,2.117,2.04363719359,,,,,,,,,,,,,,,,,,2019_Jan_28_1749,59.77338929426755,Cloud_Experiment_FR_REAL,001,12,
images/fcloud65-35_D1.2_4.tif,1.2,1,,,,,,,,,0,46,46,48,,,,,,,,,,,,,,,1,space,1,1.168,4.68109964824,,,,,,,,,,,,,,,,,,2019_Jan_28_1749,59.77338929426755,Cloud_Experiment_FR_REAL,001,12,
images/fcloud_D1.4_6.tif,1.4,0,,,,,,,,,0,47,47,20,,,,,,,,,,,,,,,2,space,2,0.702,5.58697803388,,,,,,,,,,,,,,,,,,2019_Jan_28_1749,59.77338929426755,Cloud_Experiment_FR_REAL,001,12,
images/fcloud65-35_D1.3_5.tif,1.3,1,,,,,,,,,0,48,48,52,,,,,,,,,,,,,,,2,space,2,0.636,3.96462060348,,,,,,,,,,,,,,,,,,2019_Jan_28_1749,59.77338929426755,Cloud_Experiment_FR_REAL,001,12,
images/fcloud_D1.5_4.tif,1.5,0,,,,,,,,,0,49,49,21,,,,,,,,,,,,,,,None,None,None,11.175,,,,,,,,,,,,,,,,,,,2019_Jan_28_1749,59.77338929426755,Cloud_Experiment_FR_REAL,001,12,
images/fcloud65-35_D0.8_4.tif,0.8,1,,,,,,,,,0,50,50,36,,,,,,,,,,,,,,,2,space,2,1.484,4.86128453363,,,,,,,,,,,,,,,,,,2019_Jan_28_1749,59.77338929426755,Cloud_Experiment_FR_REAL,001,12,
images/fcloud80-20_D1.1_4.tif,1.1,2,,,,,,,,,0,51,51,81,,,,,,,,,,,,,,,1,space,2,1.068,6.95515374647,,,,,,,,,,,,,,,,,,2019_Jan_28_1749,59.77338929426755,Cloud_Experiment_FR_REAL,001,12,
images/fcloud65-35_D1.5_5.tif,1.5,1,,,,,,,,,0,52,52,58,,,,,,,,,,,,,,,2,space,2,0.518,2.28144262647,,,,,,,,,,,,,,,,,,2019_Jan_28_1749,59.77338929426755,Cloud_Experiment_FR_REAL,001,12,
images/fcloud80-20_D1.4_6.tif,1.4,2,,,,,,,,,0,53,53,92,,,,,,,,,,,,,,,1,space,1,1.151,4.15728111617,,,,,,,,,,,,,,,,,,2019_Jan_28_1749,59.77338929426755,Cloud_Experiment_FR_REAL,001,12,
images/fcloud65-35_D1.8_4.tif,1.8,1,,,,,,,,,0,54,54,66,,,,,,,,,,,,,,,2,space,2,0.852,3.29610042187,,,,,,,,,,,,,,,,,,2019_Jan_28_1749,59.77338929426755,Cloud_Experiment_FR_REAL,001,12,
images/fcloud_D0.9_6.tif,0.9,0,,,,,,,,,0,55,55,5,,,,,,,,,,,,,,,2,space,2,0.603,4.60776234983,,,,,,,,,,,,,,,,,,2019_Jan_28_1749,59.77338929426755,Cloud_Experiment_FR_REAL,001,12,
images/fcloud_D1_4.tif,1.0,0,,,,,,,,,0,56,56,6,,,,,,,,,,,,,,,3,space,3,1.069,6.99184141576,,,,,,,,,,,,,,,,,,2019_Jan_28_1749,59.77338929426755,Cloud_Experiment_FR_REAL,001,12,
images/fcloud65-35_D1.6_6.tif,1.6,1,,,,,,,,,0,57,57,62,,,,,,,,,,,,,,,1,None,2,1.817,,,,,,,,,,,,,,,,,,,2019_Jan_28_1749,59.77338929426755,Cloud_Experiment_FR_REAL,001,12,
images/fcloud80-20_D1.9_6.tif,1.9,2,,,,,,,,,0,58,58,107,,,,,,,,,,,,,,,1,space,1,0.952,7.56130196014,,,,,,,,,,,,,,,,,,2019_Jan_28_1749,59.77338929426755,Cloud_Experiment_FR_REAL,001,12,
images/fcloud80-20_D1_5.tif,1.0,2,,,,,,,,,0,59,59,79,,,,,,,,,,,,,,,1,None,1,0.653,,,,,,,,,,,,,,,,,,,2019_Jan_28_1749,59.77338929426755,Cloud_Experiment_FR_REAL,001,12,
images/fcloud_D1_6.tif,1.0,0,,,,,,,,,0,60,60,8,,,,,,,,,,,,,,,2,space,3,1.267,1.4430916773,,,,,,,,,,,,,,,,,,2019_Jan_28_1749,59.77338929426755,Cloud_Experiment_FR_REAL,001,12,
images/fcloud80-20_D1.3_6.tif,1.3,2,,,,,,,,,0,61,61,89,,,,,,,,,,,,,,,2,space,2,1.317,2.00473240041,,,,,,,,,,,,,,,,,,2019_Jan_28_1749,59.77338929426755,Cloud_Experiment_FR_REAL,001,12,
images/fcloud80-20_D1.7_5.tif,1.7,2,,,,,,,,,0,62,62,100,,,,,,,,,,,,,,,2,space,2,1.418,4.04635809251,,,,,,,,,,,,,,,,,,2019_Jan_28_1749,59.77338929426755,Cloud_Experiment_FR_REAL,001,12,
images/fcloud80-20_D1.2_4.tif,1.2,2,,,,,,,,,0,63,63,84,,,,,,,,,,,,,,,None,None,None,10.842,,,,,,,,,,,,,,,,,,,2019_Jan_28_1749,59.77338929426755,Cloud_Experiment_FR_REAL,001,12,
images/fcloud_D1.5_6.tif,1.5,0,,,,,,,,,0,64,64,23,,,,,,,,,,,,,,,1,space,2,1.351,2.26606720872,,,,,,,,,,,,,,,,,,2019_Jan_28_1749,59.77338929426755,Cloud_Experiment_FR_REAL,001,12,
images/fcloud65-35_D1.4_4.tif,1.4,1,,,,,,,,,0,65,65,54,,,,,,,,,,,,,,,2,space,3,1.184,2.711706548,,,,,,,,,,,,,,,,,,2019_Jan_28_1749,59.77338929426755,Cloud_Experiment_FR_REAL,001,12,
images/fcloud80-20_D1_6.tif,1.0,2,,,,,,,,,0,66,66,80,,,,,,,,,,,,,,,2,space,3,1.567,3.88075080977,,,,,,,,,,,,,,,,,,2019_Jan_28_1749,59.77338929426755,Cloud_Experiment_FR_REAL,001,12,
images/fcloud_D1.9_6.tif,1.9,0,,,,,,,,,0,67,67,35,,,,,,,,,,,,,,,1,None,1,0.702,,,,,,,,,,,,,,,,,,,2019_Jan_28_1749,59.77338929426755,Cloud_Experiment_FR_REAL,001,12,
images/fcloud65-35_D1_4.tif,1.0,1,,,,,,,,,0,68,68,42,,,,,,,,,,,,,,,1,None,1,0.452,,,,,,,,,,,,,,,,,,,2019_Jan_28_1749,59.77338929426755,Cloud_Experiment_FR_REAL,001,12,
images/fcloud_D0.8_4.tif,0.8,0,,,,,,,,,0,69,69,0,,,,,,,,,,,,,,,1,space,2,1.233,7.53975838335,,,,,,,,,,,,,,,,,,2019_Jan_28_1749,59.77338929426755,Cloud_Experiment_FR_REAL,001,12,
images/fcloud65-35_D0.8_5.tif,0.8,1,,,,,,,,,0,70,70,37,,,,,,,,,,,,,,,1,space,1,0.585,3.53082408846,,,,,,,,,,,,,,,,,,2019_Jan_28_1749,59.77338929426755,Cloud_Experiment_FR_REAL,001,12,
images/fcloud65-35_D1_6.tif,1.0,1,,,,,,,,,0,71,71,44,,,,,,,,,,,,,,,1,space,1,0.586,7.15822595131,,,,,,,,,,,,,,,,,,2019_Jan_28_1749,59.77338929426755,Cloud_Experiment_FR_REAL,001,12,
images/fcloud_D1.3_6.tif,1.3,0,,,,,,,,,0,72,72,17,,,,,,,,,,,,,,,1,space,2,0.552,1.8548752823,,,,,,,,,,,,,,,,,,2019_Jan_28_1749,59.77338929426755,Cloud_Experiment_FR_REAL,001,12,
images/fcloud80-20_D1.4_5.tif,1.4,2,,,,,,,,,0,73,73,91,,,,,,,,,,,,,,,2,space,2,0.918,1.47824488912,,,,,,,,,,,,,,,,,,2019_Jan_28_1749,59.77338929426755,Cloud_Experiment_FR_REAL,001,12,
images/fcloud80-20_D0.8_4.tif,0.8,2,,,,,,,,,0,74,74,72,,,,,,,,,,,,,,,1,None,2,0.968,,,,,,,,,,,,,,,,,,,2019_Jan_28_1749,59.77338929426755,Cloud_Experiment_FR_REAL,001,12,
images/fcloud_D1_5.tif,1.0,0,,,,,,,,,0,75,75,7,,,,,,,,,,,,,,,2,space,3,1.068,1.44806876837,,,,,,,,,,,,,,,,,,2019_Jan_28_1749,59.77338929426755,Cloud_Experiment_FR_REAL,001,12,
images/fcloud80-20_D1.1_6.tif,1.1,2,,,,,,,,,0,76,76,83,,,,,,,,,,,,,,,None,None,None,10.86,,,,,,,,,,,,,,,,,,,2019_Jan_28_1749,59.77338929426755,Cloud_Experiment_FR_REAL,001,12,
images/fcloud65-35_D1.7_6.tif,1.7,1,,,,,,,,,0,77,77,65,,,,,,,,,,,,,,,None,None,None,20.117,,,,,,,,,,,,,,,,,,,2019_Jan_28_1749,59.77338929426755,Cloud_Experiment_FR_REAL,001,12,
images/fcloud_D1.6_4.tif,1.6,0,,,,,,,,,0,78,78,24,,,,,,,,,,,,,,,2,space,2,1.218,4.76248295262,,,,,,,,,,,,,,,,,,2019_Jan_28_1749,59.77338929426755,Cloud_Experiment_FR_REAL,001,12,
images/fcloud_D0.8_6.tif,0.8,0,,,,,,,,,0,79,79,2,,,,,,,,,,,,,,,1,None,1,0.535,,,,,,,,,,,,,,,,,,,2019_Jan_28_1749,59.77338929426755,Cloud_Experiment_FR_REAL,001,12,
images/fcloud80-20_D1.6_6.tif,1.6,2,,,,,,,,,0,80,80,98,,,,,,,,,,,,,,,1,space,2,1.218,1.6066699806,,,,,,,,,,,,,,,,,,2019_Jan_28_1749,59.77338929426755,Cloud_Experiment_FR_REAL,001,12,
images/fcloud65-35_D1.4_5.tif,1.4,1,,,,,,,,,0,81,81,55,,,,,,,,,,,,,,,None,None,None,14.805,,,,,,,,,,,,,,,,,,,2019_Jan_28_1749,59.77338929426755,Cloud_Experiment_FR_REAL,001,12,
images/fcloud80-20_D1.8_5.tif,1.8,2,,,,,,,,,0,82,82,103,,,,,,,,,,,,,,,2,space,2,1.668,5.81309588742,,,,,,,,,,,,,,,,,,2019_Jan_28_1749,59.77338929426755,Cloud_Experiment_FR_REAL,001,12,
images/fcloud_D1.4_4.tif,1.4,0,,,,,,,,,0,83,83,18,,,,,,,,,,,,,,,1,None,1,0.918,,,,,,,,,,,,,,,,,,,2019_Jan_28_1749,59.77338929426755,Cloud_Experiment_FR_REAL,001,12,
images/fcloud80-20_D1.6_5.tif,1.6,2,,,,,,,,,0,84,84,97,,,,,,,,,,,,,,,None,None,None,10.143,,,,,,,,,,,,,,,,,,,2019_Jan_28_1749,59.77338929426755,Cloud_Experiment_FR_REAL,001,12,
images/fcloud80-20_D1.8_6.tif,1.8,2,,,,,,,,,0,85,85,104,,,,,,,,,,,,,,,1,space,1,1.583,4.58684694956,,,,,,,,,,,,,,,,,,2019_Jan_28_1749,59.77338929426755,Cloud_Experiment_FR_REAL,001,12,
images/fcloud65-35_D1.8_6.tif,1.8,1,,,,,,,,,0,86,86,68,,,,,,,,,,,,,,,2,None,2,0.934,,,,,,,,,,,,,,,,,,,2019_Jan_28_1749,59.77338929426755,Cloud_Experiment_FR_REAL,001,12,
images/fcloud_D1.9_5.tif,1.9,0,,,,,,,,,0,87,87,34,,,,,,,,,,,,,,,2,space,2,0.834,3.87582203996,,,,,,,,,,,,,,,,,,2019_Jan_28_1749,59.77338929426755,Cloud_Experiment_FR_REAL,001,12,
images/fcloud65-35_D1.7_4.tif,1.7,1,,,,,,,,,0,88,88,63,,,,,,,,,,,,,,,3,space,2,1.517,1.33339776169,,,,,,,,,,,,,,,,,,2019_Jan_28_1749,59.77338929426755,Cloud_Experiment_FR_REAL,001,12,
images/fcloud80-20_D0.8_6.tif,0.8,2,,,,,,,,,0,89,89,74,,,,,,,,,,,,,,,2,space,3,1.218,6.42601473388,,,,,,,,,,,,,,,,,,2019_Jan_28_1749,59.77338929426755,Cloud_Experiment_FR_REAL,001,12,
images/fcloud_D1.2_5.tif,1.2,0,,,,,,,,,0,90,90,13,,,,,,,,,,,,,,,3,None,2,2.733,,,,,,,,,,,,,,,,,,,2019_Jan_28_1749,59.77338929426755,Cloud_Experiment_FR_REAL,001,12,
images/fcloud80-20_D1.9_4.tif,1.9,2,,,,,,,,,0,91,91,105,,,,,,,,,,,,,,,1,space,1,0.618,5.82589845438,,,,,,,,,,,,,,,,,,2019_Jan_28_1749,59.77338929426755,Cloud_Experiment_FR_REAL,001,12,
images/fcloud80-20_D1.5_4.tif,1.5,2,,,,,,,,,0,92,92,93,,,,,,,,,,,,,,,2,space,2,1.034,7.38981850221,,,,,,,,,,,,,,,,,,2019_Jan_28_1749,59.77338929426755,Cloud_Experiment_FR_REAL,001,12,
images/fcloud_D1.7_6.tif,1.7,0,,,,,,,,,0,93,93,29,,,,,,,,,,,,,,,2,None,2,0.636,,,,,,,,,,,,,,,,,,,2019_Jan_28_1749,59.77338929426755,Cloud_Experiment_FR_REAL,001,12,
images/fcloud65-35_D1.3_4.tif,1.3,1,,,,,,,,,0,94,94,51,,,,,,,,,,,,,,,1,None,1,0.601,,,,,,,,,,,,,,,,,,,2019_Jan_28_1749,59.77338929426755,Cloud_Experiment_FR_REAL,001,12,
images/fcloud80-20_D1.5_6.tif,1.5,2,,,,,,,,,0,95,95,95,,,,,,,,,,,,,,,1,None,1,0.819,,,,,,,,,,,,,,,,,,,2019_Jan_28_1749,59.77338929426755,Cloud_Experiment_FR_REAL,001,12,
images/fcloud_D1.6_6.tif,1.6,0,,,,,,,,,0,96,96,26,,,,,,,,,,,,,,,None,None,None,10.36,,,,,,,,,,,,,,,,,,,2019_Jan_28_1749,59.77338929426755,Cloud_Experiment_FR_REAL,001,12,
images/fcloud80-20_D1.8_4.tif,1.8,2,,,,,,,,,0,97,97,102,,,,,,,,,,,,,,,2,space,2,1.351,5.77355469271,,,,,,,,,,,,,,,,,,2019_Jan_28_1749,59.77338929426755,Cloud_Experiment_FR_REAL,001,12,
images/fcloud_D1.1_5.tif,1.1,0,,,,,,,,,0,98,98,10,,,,,,,,,,,,,,,3,space,3,0.918,2.16314495404,,,,,,,,,,,,,,,,,,2019_Jan_28_1749,59.77338929426755,Cloud_Experiment_FR_REAL,001,12,
images/fcloud80-20_D0.9_4.tif,0.9,2,,,,,,,,,0,99,99,75,,,,,,,,,,,,,,,3,space,None,None,1.57914484714,,,,,,,,,,,,,,,,,,2019_Jan_28_1749,59.77338929426755,Cloud_Experiment_FR_REAL,001,12,
images/fcloud80-20_D1.1_5.tif,1.1,2,,,,,,,,,0,100,100,82,,,,,,,,,,,,,,,1,space,2,1.284,6.66230267315,,,,,,,,,,,,,,,,,,2019_Jan_28_1749,59.77338929426755,Cloud_Experiment_FR_REAL,001,12,
images/fcloud_D1.3_4.tif,1.3,0,,,,,,,,,0,101,101,15,,,,,,,,,,,,,,,2,space,2,0.752,1.4269405489,,,,,,,,,,,,,,,,,,2019_Jan_28_1749,59.77338929426755,Cloud_Experiment_FR_REAL,001,12,
images/fcloud65-35_D1.9_4.tif,1.9,1,,,,,,,,,0,102,102,69,,,,,,,,,,,,,,,3,space,3,0.985,1.91122148465,,,,,,,,,,,,,,,,,,2019_Jan_28_1749,59.77338929426755,Cloud_Experiment_FR_REAL,001,12,
images/fcloud80-20_D1.3_5.tif,1.3,2,,,,,,,,,0,103,103,88,,,,,,,,,,,,,,,2,space,1,0.784,3.29280635042,,,,,,,,,,,,,,,,,,2019_Jan_28_1749,59.77338929426755,Cloud_Experiment_FR_REAL,001,12,
images/fcloud65-35_D0.9_4.tif,0.9,1,,,,,,,,,0,104,104,39,,,,,,,,,,,,,,,1,space,2,0.985,4.54507886394,,,,,,,,,,,,,,,,,,2019_Jan_28_1749,59.77338929426755,Cloud_Experiment_FR_REAL,001,12,
images/fcloud65-35_D1.2_5.tif,1.2,1,,,,,,,,,0,105,105,49,,,,,,,,,,,,,,,3,space,3,1.368,2.07886391549,,,,,,,,,,,,,,,,,,2019_Jan_28_1749,59.77338929426755,Cloud_Experiment_FR_REAL,001,12,
images/fcloud_D1.3_5.tif,1.3,0,,,,,,,,,0,106,106,16,,,,,,,,,,,,,,,3,space,3,0.953,1.97093578256,,,,,,,,,,,,,,,,,,2019_Jan_28_1749,59.77338929426755,Cloud_Experiment_FR_REAL,001,12,
images/fcloud80-20_D0.9_5.tif,0.9,2,,,,,,,,,0,107,107,76,,,,,,,,,,,,,,,None,space,None,10.642,0.955110051698,,,,,,,,,,,,,,,,,,2019_Jan_28_1749,59.77338929426755,Cloud_Experiment_FR_REAL,001,12,
,,,,,,,,,,,,,,,,,,,,,,,,,,,,,,,,,,,,,,,,,,,,,,space,1003.12481128,,,,2019_Jan_28_1749,59.77338929426755,Cloud_Experiment_FR_REAL,001,12,
,,,,,,,,,,,,,,,,,,,,,,,,,4,9.152,,,,,,,,,,,,,,,,,,,,,,,,,2019_Jan_28_1749,59.77338929426755,Cloud_Experiment_FR_REAL,001,12,
,,,,,,,,,,,,,,,,,,,,,,,,,,,,,,,,,,4,,,,,,,,,,,,,,,,,2019_Jan_28_1749,59.77338929426755,Cloud_Experiment_FR_REAL,001,12,
,,,,,,,,,,,,,,,,,,,,,,,,,,,,,,,,,,,4,,,,,,,,,,,,,,,,2019_Jan_28_1749,59.77338929426755,Cloud_Experiment_FR_REAL,001,12,
,,,,,,,,,,,,,,,,,,,,,,,,,,,,,,,,,,,,4,,,,,,,,,,,,,,,2019_Jan_28_1749,59.77338929426755,Cloud_Experiment_FR_REAL,001,12,
,,,,,,,,,,,,,,,,,,,,,,,,,,,,,,,,,,,,,3,,,,,,,,,,,,,,2019_Jan_28_1749,59.77338929426755,Cloud_Experiment_FR_REAL,001,12,
,,,,,,,,,,,,,,,,,,,,,,,,,,,,,,,,,,,,,,3,,,,,,,,,,,,,2019_Jan_28_1749,59.77338929426755,Cloud_Experiment_FR_REAL,001,12,
,,,,,,,,,,,,,,,,,,,,,,,,,,,,,,,,,,,,,,,4,,,,,,,,,,,,2019_Jan_28_1749,59.77338929426755,Cloud_Experiment_FR_REAL,001,12,
,,,,,,,,,,,,,,,,,,,,,,,,,,,,,,,,,,,,,,,,5,,,,,,,,,,,2019_Jan_28_1749,59.77338929426755,Cloud_Experiment_FR_REAL,001,12,
,,,,,,,,,,,,,,,,,,,,,,,,,,,,,,,,,,,,,,,,,6,,,,,,,,,,2019_Jan_28_1749,59.77338929426755,Cloud_Experiment_FR_REAL,001,12,
,,,,,,,,,,,,,,,,,,,,,,,,,,,,,,,,,,,,,,,,,,5,,,,,,,,,2019_Jan_28_1749,59.77338929426755,Cloud_Experiment_FR_REAL,001,12,
,,,,,,,,,,,,,,,,,,,,,,,,,,,,,,,,,,,,,,,,,,,4,,,,,,,,2019_Jan_28_1749,59.77338929426755,Cloud_Experiment_FR_REAL,001,12,
,,,,,,,,,,,,,,,,,,,,,,,,,,,,,,,,,,,,,,,,,,,,,,,,space,2.59884810311,,2019_Jan_28_1749,59.77338929426755,Cloud_Experiment_FR_REAL,001,12,
images/fcloud_D1_9.tif,1.0,0,,,,,,,,,,,,,0,0,0,10,,,,,,,,,,,1,space,1,6.08,5.43607841001,,,,,,,,,,,,,,,,,,2019_Jan_28_1749,59.77338929426755,Cloud_Experiment_FR_REAL,001,12,
images/fcloud65-35_D1_9.tif,1.0,1,,,,,,,,,,,,,0,1,1,58,,,,,,,,,,,None,None,None,15.32,,,,,,,,,,,,,,,,,,,2019_Jan_28_1749,59.77338929426755,Cloud_Experiment_FR_REAL,001,12,
images/fcloud80-20_D0.8_10.tif,0.8,2,,,,,,,,,,,,,0,2,2,99,,,,,,,,,,,None,None,None,24.779,,,,,,,,,,,,,,,,,,,2019_Jan_28_1749,59.77338929426755,Cloud_Experiment_FR_REAL,001,12,
images/fcloud65-35_D1.5_10.tif,1.5,1,,,,,,,,,,,,,0,3,3,79,,,,,,,,,,,2,space,3,0.901,4.93284782447,,,,,,,,,,,,,,,,,,2019_Jan_28_1749,59.77338929426755,Cloud_Experiment_FR_REAL,001,12,
images/fcloud80-20_D1.1_9.tif,1.1,2,,,,,,,,,,,,,0,4,4,110,,,,,,,,,,,1,None,1,0.768,,,,,,,,,,,,,,,,,,,2019_Jan_28_1749,59.77338929426755,Cloud_Experiment_FR_REAL,001,12,
images/fcloud65-35_D1.4_8.tif,1.4,1,,,,,,,,,,,,,0,5,5,73,,,,,,,,,,,2,space,1,0.635,3.01200732222,,,,,,,,,,,,,,,,,,2019_Jan_28_1749,59.77338929426755,Cloud_Experiment_FR_REAL,001,12,
images/fcloud_D0.8_8.tif,0.8,0,,,,,,,,,,,,,0,6,6,1,,,,,,,,,,,1,space,1,0.969,1.55664255572,,,,,,,,,,,,,,,,,,2019_Jan_28_1749,59.77338929426755,Cloud_Experiment_FR_REAL,001,12,
images/fcloud_D1.4_10.tif,1.4,0,,,,,,,,,,,,,0,7,7,27,,,,,,,,,,,2,space,1,0.917,1.84203930164,,,,,,,,,,,,,,,,,,2019_Jan_28_1749,59.77338929426755,Cloud_Experiment_FR_REAL,001,12,
images/fcloud_D1.6_7.tif,1.6,0,,,,,,,,,,,,,0,8,8,32,,,,,,,,,,,2,space,2,1.235,6.25913721853,,,,,,,,,,,,,,,,,,2019_Jan_28_1749,59.77338929426755,Cloud_Experiment_FR_REAL,001,12,
images/fcloud80-20_D1.6_7.tif,1.6,2,,,,,,,,,,,,,0,9,9,128,,,,,,,,,,,1,None,2,0.936,,,,,,,,,,,,,,,,,,,2019_Jan_28_1749,59.77338929426755,Cloud_Experiment_FR_REAL,001,12,
images/fcloud_D1.8_10.tif,1.8,0,,,,,,,,,,,,,0,10,10,43,,,,,,,,,,,1,space,2,0.552,7.05073425203,,,,,,,,,,,,,,,,,,2019_Jan_28_1749,59.77338929426755,Cloud_Experiment_FR_REAL,001,12,
images/fcloud_D1_10.tif,1.0,0,,,,,,,,,,,,,0,11,11,11,,,,,,,,,,,1,space,1,0.901,4.13992709655,,,,,,,,,,,,,,,,,,2019_Jan_28_1749,59.77338929426755,Cloud_Experiment_FR_REAL,001,12,
images/fcloud_D1_8.tif,1.0,0,,,,,,,,,,,,,0,12,12,9,,,,,,,,,,,1,None,2,1.201,,,,,,,,,,,,,,,,,,,2019_Jan_28_1749,59.77338929426755,Cloud_Experiment_FR_REAL,001,12,
images/fcloud65-35_D1.4_10.tif,1.4,1,,,,,,,,,,,,,0,13,13,75,,,,,,,,,,,None,None,None,10.292,,,,,,,,,,,,,,,,,,,2019_Jan_28_1749,59.77338929426755,Cloud_Experiment_FR_REAL,001,12,
images/fcloud_D1.5_8.tif,1.5,0,,,,,,,,,,,,,0,14,14,29,,,,,,,,,,,None,None,None,19.218,,,,,,,,,,,,,,,,,,,2019_Jan_28_1749,59.77338929426755,Cloud_Experiment_FR_REAL,001,12,
images/fcloud65-35_D1_8.tif,1.0,1,,,,,,,,,,,,,0,15,15,57,,,,,,,,,,,None,None,None,28.125,,,,,,,,,,,,,,,,,,,2019_Jan_28_1749,59.77338929426755,Cloud_Experiment_FR_REAL,001,12,
images/fcloud_D1.2_8.tif,1.2,0,,,,,,,,,,,,,0,16,16,17,,,,,,,,,,,1,space,2,0.751,7.3197932672,,,,,,,,,,,,,,,,,,2019_Jan_28_1749,59.77338929426755,Cloud_Experiment_FR_REAL,001,12,
images/fcloud_D1.5_10.tif,1.5,0,,,,,,,,,,,,,0,17,17,31,,,,,,,,,,,1,None,2,0.618,,,,,,,,,,,,,,,,,,,2019_Jan_28_1749,59.77338929426755,Cloud_Experiment_FR_REAL,001,12,
images/fcloud80-20_D1.9_10.tif,1.9,2,,,,,,,,,,,,,0,18,18,143,,,,,,,,,,,1,None,None,None,,,,,,,,,,,,,,,,,,,2019_Jan_28_1749,59.77338929426755,Cloud_Experiment_FR_REAL,001,12,
images/fcloud_D0.8_7.tif,0.8,0,,,,,,,,,,,,,0,19,19,0,,,,,,,,,,,None,None,None,12.24,,,,,,,,,,,,,,,,,,,2019_Jan_28_1749,59.77338929426755,Cloud_Experiment_FR_REAL,001,12,
images/fcloud65-35_D1.1_10.tif,1.1,1,,,,,,,,,,,,,0,20,20,63,,,,,,,,,,,None,None,None,21.135,,,,,,,,,,,,,,,,,,,2019_Jan_28_1749,59.77338929426755,Cloud_Experiment_FR_REAL,001,12,
images/fcloud_D0.9_7.tif,0.9,0,,,,,,,,,,,,,0,21,21,4,,,,,,,,,,,1,space,2,0.934,4.84248036178,,,,,,,,,,,,,,,,,,2019_Jan_28_1749,59.77338929426755,Cloud_Experiment_FR_REAL,001,12,
images/fcloud80-20_D1.9_7.tif,1.9,2,,,,,,,,,,,,,0,22,22,140,,,,,,,,,,,None,None,None,12.572,,,,,,,,,,,,,,,,,,,2019_Jan_28_1749,59.77338929426755,Cloud_Experiment_FR_REAL,001,12,
images/fcloud_D1.7_8.tif,1.7,0,,,,,,,,,,,,,0,23,23,37,,,,,,,,,,,1,None,2,0.535,,,,,,,,,,,,,,,,,,,2019_Jan_28_1749,59.77338929426755,Cloud_Experiment_FR_REAL,001,12,
images/fcloud_D1.8_8.tif,1.8,0,,,,,,,,,,,,,0,24,24,41,,,,,,,,,,,None,None,None,11.457,,,,,,,,,,,,,,,,,,,2019_Jan_28_1749,59.77338929426755,Cloud_Experiment_FR_REAL,001,12,
images/fcloud_D1.2_9.tif,1.2,0,,,,,,,,,,,,,0,25,25,18,,,,,,,,,,,1,space,2,0.833,4.25349750914,,,,,,,,,,,,,,,,,,2019_Jan_28_1749,59.77338929426755,Cloud_Experiment_FR_REAL,001,12,
images/fcloud65-35_D1.4_7.tif,1.4,1,,,,,,,,,,,,,0,26,26,72,,,,,,,,,,,2,space,2,0.618,2.53752326744,,,,,,,,,,,,,,,,,,2019_Jan_28_1749,59.77338929426755,Cloud_Experiment_FR_REAL,001,12,
images/fcloud_D1.8_9.tif,1.8,0,,,,,,,,,,,,,0,27,27,42,,,,,,,,,,,2,space,1,0.568,2.39359321611,,,,,,,,,,,,,,,,,,2019_Jan_28_1749,59.77338929426755,Cloud_Experiment_FR_REAL,001,12,
images/fcloud80-20_D1.7_8.tif,1.7,2,,,,,,,,,,,,,0,28,28,133,,,,,,,,,,,None,None,None,9.692,,,,,,,,,,,,,,,,,,,2019_Jan_28_1749,59.77338929426755,Cloud_Experiment_FR_REAL,001,12,
images/fcloud_D1.8_7.tif,1.8,0,,,,,,,,,,,,,0,29,29,40,,,,,,,,,,,None,None,None,21.149,,,,,,,,,,,,,,,,,,,2019_Jan_28_1749,59.77338929426755,Cloud_Experiment_FR_REAL,001,12,
images/fcloud65-35_D1.3_10.tif,1.3,1,,,,,,,,,,,,,0,30,30,71,,,,,,,,,,,1,space,1,0.518,7.68513241829,,,,,,,,,,,,,,,,,,2019_Jan_28_1749,59.77338929426755,Cloud_Experiment_FR_REAL,001,12,
images/fcloud65-35_D1.7_8.tif,1.7,1,,,,,,,,,,,,,0,31,31,85,,,,,,,,,,,1,space,2,0.67,6.50959871238,,,,,,,,,,,,,,,,,,2019_Jan_28_1749,59.77338929426755,Cloud_Experiment_FR_REAL,001,12,
images/fcloud80-20_D1.6_8.tif,1.6,2,,,,,,,,,,,,,0,32,32,129,,,,,,,,,,,1,None,1,1.102,,,,,,,,,,,,,,,,,,,2019_Jan_28_1749,59.77338929426755,Cloud_Experiment_FR_REAL,001,12,
images/fcloud80-20_D0.9_7.tif,0.9,2,,,,,,,,,,,,,0,33,33,100,,,,,,,,,,,None,None,None,10.475,,,,,,,,,,,,,,,,,,,2019_Jan_28_1749,59.77338929426755,Cloud_Experiment_FR_REAL,001,12,
images/fcloud65-35_D1.1_7.tif,1.1,1,,,,,,,,,,,,,0,34,34,60,,,,,,,,,,,1,space,1,1.651,7.28420619201,,,,,,,,,,,,,,,,,,2019_Jan_28_1749,59.77338929426755,Cloud_Experiment_FR_REAL,001,12,
images/fcloud65-35_D0.8_7.tif,0.8,1,,,,,,,,,,,,,0,35,35,48,,,,,,,,,,,None,None,None,10.525,,,,,,,,,,,,,,,,,,,2019_Jan_28_1749,59.77338929426755,Cloud_Experiment_FR_REAL,001,12,
images/fcloud80-20_D1.3_9.tif,1.3,2,,,,,,,,,,,,,0,36,36,118,,,,,,,,,,,1,space,1,1.184,3.52834890838,,,,,,,,,,,,,,,,,,2019_Jan_28_1749,59.77338929426755,Cloud_Experiment_FR_REAL,001,12,
images/fcloud_D1.7_9.tif,1.7,0,,,,,,,,,,,,,0,37,37,38,,,,,,,,,,,1,space,3,2.083,7.39527160925,,,,,,,,,,,,,,,,,,2019_Jan_28_1749,59.77338929426755,Cloud_Experiment_FR_REAL,001,12,
images/fcloud80-20_D1.2_8.tif,1.2,2,,,,,,,,,,,,,0,38,38,113,,,,,,,,,,,2,space,2,1.284,3.08552762459,,,,,,,,,,,,,,,,,,2019_Jan_28_1749,59.77338929426755,Cloud_Experiment_FR_REAL,001,12,
images/fcloud80-20_D1_7.tif,1.0,2,,,,,,,,,,,,,0,39,39,104,,,,,,,,,,,1,None,1,0.618,,,,,,,,,,,,,,,,,,,2019_Jan_28_1749,59.77338929426755,Cloud_Experiment_FR_REAL,001,12,
images/fcloud_D1_7.tif,1.0,0,,,,,,,,,,,,,0,40,40,8,,,,,,,,,,,None,None,None,9.561,,,,,,,,,,,,,,,,,,,2019_Jan_28_1749,59.77338929426755,Cloud_Experiment_FR_REAL,001,12,
images/fcloud65-35_D1.1_8.tif,1.1,1,,,,,,,,,,,,,0,41,41,61,,,,,,,,,,,1,space,1,0.684,6.81262809635,,,,,,,,,,,,,,,,,,2019_Jan_28_1749,59.77338929426755,Cloud_Experiment_FR_REAL,001,12,
images/fcloud80-20_D1.3_8.tif,1.3,2,,,,,,,,,,,,,0,42,42,117,,,,,,,,,,,1,space,1,1.134,4.63183302636,,,,,,,,,,,,,,,,,,2019_Jan_28_1749,59.77338929426755,Cloud_Experiment_FR_REAL,001,12,
images/fcloud_D1.1_10.tif,1.1,0,,,,,,,,,,,,,0,43,43,15,,,,,,,,,,,None,None,None,10.408,,,,,,,,,,,,,,,,,,,2019_Jan_28_1749,59.77338929426755,Cloud_Experiment_FR_REAL,001,12,
images/fcloud80-20_D1_9.tif,1.0,2,,,,,,,,,,,,,0,44,44,106,,,,,,,,,,,1,space,3,0.917,4.73661410785,,,,,,,,,,,,,,,,,,2019_Jan_28_1749,59.77338929426755,Cloud_Experiment_FR_REAL,001,12,
images/fcloud65-35_D1.9_10.tif,1.9,1,,,,,,,,,,,,,0,45,45,95,,,,,,,,,,,1,None,2,1.417,,,,,,,,,,,,,,,,,,,2019_Jan_28_1749,59.77338929426755,Cloud_Experiment_FR_REAL,001,12,
images/fcloud65-35_D1.4_9.tif,1.4,1,,,,,,,,,,,,,0,46,46,74,,,,,,,,,,,None,None,None,10.542,,,,,,,,,,,,,,,,,,,2019_Jan_28_1749,59.77338929426755,Cloud_Experiment_FR_REAL,001,12,
images/fcloud_D1.4_9.tif,1.4,0,,,,,,,,,,,,,0,47,47,26,,,,,,,,,,,2,space,2,2.266,1.53249117237,,,,,,,,,,,,,,,,,,2019_Jan_28_1749,59.77338929426755,Cloud_Experiment_FR_REAL,001,12,
images/fcloud65-35_D0.9_10.tif,0.9,1,,,,,,,,,,,,,0,48,48,55,,,,,,,,,,,1,space,2,0.934,5.85762034182,,,,,,,,,,,,,,,,,,2019_Jan_28_1749,59.77338929426755,Cloud_Experiment_FR_REAL,001,12,
images/fcloud80-20_D1.8_9.tif,1.8,2,,,,,,,,,,,,,0,49,49,138,,,,,,,,,,,None,None,None,13.206,,,,,,,,,,,,,,,,,,,2019_Jan_28_1749,59.77338929426755,Cloud_Experiment_FR_REAL,001,12,
images/fcloud65-35_D1.7_9.tif,1.7,1,,,,,,,,,,,,,0,50,50,86,,,,,,,,,,,1,space,1,2.234,7.15190614568,,,,,,,,,,,,,,,,,,2019_Jan_28_1749,59.77338929426755,Cloud_Experiment_FR_REAL,001,12,
images/fcloud65-35_D1.6_8.tif,1.6,1,,,,,,,,,,,,,0,51,51,81,,,,,,,,,,,1,space,2,0.868,5.26190849493,,,,,,,,,,,,,,,,,,2019_Jan_28_1749,59.77338929426755,Cloud_Experiment_FR_REAL,001,12,
images/fcloud80-20_D1.2_9.tif,1.2,2,,,,,,,,,,,,,0,52,52,114,,,,,,,,,,,None,None,None,11.89,,,,,,,,,,,,,,,,,,,2019_Jan_28_1749,59.77338929426755,Cloud_Experiment_FR_REAL,001,12,
images/fcloud80-20_D1.1_7.tif,1.1,2,,,,,,,,,,,,,0,53,53,108,,,,,,,,,,,1,space,1,1.25,1.27880192033,,,,,,,,,,,,,,,,,,2019_Jan_28_1749,59.77338929426755,Cloud_Experiment_FR_REAL,001,12,
images/fcloud80-20_D1.4_8.tif,1.4,2,,,,,,,,,,,,,0,54,54,121,,,,,,,,,,,None,None,None,10.941,,,,,,,,,,,,,,,,,,,2019_Jan_28_1749,59.77338929426755,Cloud_Experiment_FR_REAL,001,12,
images/fcloud65-35_D1.5_8.tif,1.5,1,,,,,,,,,,,,,0,55,55,77,,,,,,,,,,,2,space,2,1.068,1.93864946155,,,,,,,,,,,,,,,,,,2019_Jan_28_1749,59.77338929426755,Cloud_Experiment_FR_REAL,001,12,
images/fcloud80-20_D1.8_8.tif,1.8,2,,,,,,,,,,,,,0,56,56,137,,,,,,,,,,,1,space,3,1.118,5.14470987444,,,,,,,,,,,,,,,,,,2019_Jan_28_1749,59.77338929426755,Cloud_Experiment_FR_REAL,001,12,
images/fcloud65-35_D1.8_7.tif,1.8,1,,,,,,,,,,,,,0,57,57,88,,,,,,,,,,,1,space,2,0.968,6.82565581991,,,,,,,,,,,,,,,,,,2019_Jan_28_1749,59.77338929426755,Cloud_Experiment_FR_REAL,001,12,
images/fcloud_D1.6_8.tif,1.6,0,,,,,,,,,,,,,0,58,58,33,,,,,,,,,,,3,space,2,0.801,3.05750745509,,,,,,,,,,,,,,,,,,2019_Jan_28_1749,59.77338929426755,Cloud_Experiment_FR_REAL,001,12,
images/fcloud65-35_D1.2_8.tif,1.2,1,,,,,,,,,,,,,0,59,59,65,,,,,,,,,,,1,None,1,1.134,,,,,,,,,,,,,,,,,,,2019_Jan_28_1749,59.77338929426755,Cloud_Experiment_FR_REAL,001,12,
images/fcloud80-20_D1.9_8.tif,1.9,2,,,,,,,,,,,,,0,60,60,141,,,,,,,,,,,1,space,2,0.519,6.57784325708,,,,,,,,,,,,,,,,,,2019_Jan_28_1749,59.77338929426755,Cloud_Experiment_FR_REAL,001,12,
images/fcloud65-35_D1.8_10.tif,1.8,1,,,,,,,,,,,,,0,61,61,91,,,,,,,,,,,2,space,3,0.984,2.41353910658,,,,,,,,,,,,,,,,,,2019_Jan_28_1749,59.77338929426755,Cloud_Experiment_FR_REAL,001,12,
images/fcloud80-20_D1.1_10.tif,1.1,2,,,,,,,,,,,,,0,62,62,111,,,,,,,,,,,1,space,2,1.717,5.61148360188,,,,,,,,,,,,,,,,,,2019_Jan_28_1749,59.77338929426755,Cloud_Experiment_FR_REAL,001,12,
images/fcloud65-35_D0.8_10.tif,0.8,1,,,,,,,,,,,,,0,63,63,51,,,,,,,,,,,2,space,2,1.8,7.42177428518,,,,,,,,,,,,,,,,,,2019_Jan_28_1749,59.77338929426755,Cloud_Experiment_FR_REAL,001,12,
images/fcloud80-20_D1.6_10.tif,1.6,2,,,,,,,,,,,,,0,64,64,131,,,,,,,,,,,2,space,3,1.886,3.07766051017,,,,,,,,,,,,,,,,,,2019_Jan_28_1749,59.77338929426755,Cloud_Experiment_FR_REAL,001,12,
images/fcloud_D1.9_10.tif,1.9,0,,,,,,,,,,,,,0,65,65,47,,,,,,,,,,,1,space,3,1.319,5.72311191051,,,,,,,,,,,,,,,,,,2019_Jan_28_1749,59.77338929426755,Cloud_Experiment_FR_REAL,001,12,
images/fcloud80-20_D1.1_8.tif,1.1,2,,,,,,,,,,,,,0,66,66,109,,,,,,,,,,,1,None,1,1.951,,,,,,,,,,,,,,,,,,,2019_Jan_28_1749,59.77338929426755,Cloud_Experiment_FR_REAL,001,12,
images/fcloud_D1.3_9.tif,1.3,0,,,,,,,,,,,,,0,67,67,22,,,,,,,,,,,2,space,3,1.334,1.72319261736,,,,,,,,,,,,,,,,,,2019_Jan_28_1749,59.77338929426755,Cloud_Experiment_FR_REAL,001,12,
images/fcloud80-20_D0.8_9.tif,0.8,2,,,,,,,,,,,,,0,68,68,98,,,,,,,,,,,2,space,1,1.152,2.71789064279,,,,,,,,,,,,,,,,,,2019_Jan_28_1749,59.77338929426755,Cloud_Experiment_FR_REAL,001,12,
images/fcloud_D1.5_7.tif,1.5,0,,,,,,,,,,,,,0,69,69,28,,,,,,,,,,,2,space,2,0.835,2.98750381044,,,,,,,,,,,,,,,,,,2019_Jan_28_1749,59.77338929426755,Cloud_Experiment_FR_REAL,001,12,
images/fcloud65-35_D1.5_9.tif,1.5,1,,,,,,,,,,,,,0,70,70,78,,,,,,,,,,,2,space,1,1.002,1.69732994123,,,,,,,,,,,,,,,,,,2019_Jan_28_1749,59.77338929426755,Cloud_Experiment_FR_REAL,001,12,
images/fcloud65-35_D1_10.tif,1.0,1,,,,,,,,,,,,,0,71,71,59,,,,,,,,,,,None,None,None,11.774,,,,,,,,,,,,,,,,,,,2019_Jan_28_1749,59.77338929426755,Cloud_Experiment_FR_REAL,001,12,
images/fcloud65-35_D1.6_7.tif,1.6,1,,,,,,,,,,,,,0,72,72,80,,,,,,,,,,,2,space,1,0.902,1.80973704491,,,,,,,,,,,,,,,,,,2019_Jan_28_1749,59.77338929426755,Cloud_Experiment_FR_REAL,001,12,
images/fcloud_D1.7_7.tif,1.7,0,,,,,,,,,,,,,0,73,73,36,,,,,,,,,,,1,None,2,0.519,,,,,,,,,,,,,,,,,,,2019_Jan_28_1749,59.77338929426755,Cloud_Experiment_FR_REAL,001,12,
images/fcloud65-35_D1.2_7.tif,1.2,1,,,,,,,,,,,,,0,74,74,64,,,,,,,,,,,2,space,1,1.068,1.78963590949,,,,,,,,,,,,,,,,,,2019_Jan_28_1749,59.77338929426755,Cloud_Experiment_FR_REAL,001,12,
images/fcloud_D1.7_10.tif,1.7,0,,,,,,,,,,,,,0,75,75,39,,,,,,,,,,,1,space,1,1.518,7.63932076743,,,,,,,,,,,,,,,,,,2019_Jan_28_1749,59.77338929426755,Cloud_Experiment_FR_REAL,001,12,
images/fcloud65-35_D0.9_9.tif,0.9,1,,,,,,,,,,,,,0,76,76,54,,,,,,,,,,,2,space,2,1.433,1.87556244162,,,,,,,,,,,,,,,,,,2019_Jan_28_1749,59.77338929426755,Cloud_Experiment_FR_REAL,001,12,
images/fcloud65-35_D1.3_7.tif,1.3,1,,,,,,,,,,,,,0,77,77,68,,,,,,,,,,,None,None,None,11.874,,,,,,,,,,,,,,,,,,,2019_Jan_28_1749,59.77338929426755,Cloud_Experiment_FR_REAL,001,12,
images/fcloud80-20_D1.9_9.tif,1.9,2,,,,,,,,,,,,,0,78,78,142,,,,,,,,,,,None,None,None,20.983,,,,,,,,,,,,,,,,,,,2019_Jan_28_1749,59.77338929426755,Cloud_Experiment_FR_REAL,001,12,
images/fcloud_D1.9_8.tif,1.9,0,,,,,,,,,,,,,0,79,79,45,,,,,,,,,,,None,None,None,30.911,,,,,,,,,,,,,,,,,,,2019_Jan_28_1749,59.77338929426755,Cloud_Experiment_FR_REAL,001,12,
images/fcloud65-35_D1.6_10.tif,1.6,1,,,,,,,,,,,,,0,80,80,83,,,,,,,,,,,2,space,2,1.967,3.20771361727,,,,,,,,,,,,,,,,,,2019_Jan_28_1749,59.77338929426755,Cloud_Experiment_FR_REAL,001,12,
images/fcloud80-20_D0.9_9.tif,0.9,2,,,,,,,,,,,,,0,81,81,102,,,,,,,,,,,1,None,2,0.985,,,,,,,,,,,,,,,,,,,2019_Jan_28_1749,59.77338929426755,Cloud_Experiment_FR_REAL,001,12,
images/fcloud_D1.4_8.tif,1.4,0,,,,,,,,,,,,,0,82,82,25,,,,,,,,,,,2,space,2,0.801,1.21333482067,,,,,,,,,,,,,,,,,,2019_Jan_28_1749,59.77338929426755,Cloud_Experiment_FR_REAL,001,12,
images/fcloud65-35_D1.7_10.tif,1.7,1,,,,,,,,,,,,,0,83,83,87,,,,,,,,,,,2,space,2,0.435,2.1049214188,,,,,,,,,,,,,,,,,,2019_Jan_28_1749,59.77338929426755,Cloud_Experiment_FR_REAL,001,12,
images/fcloud65-35_D1.9_8.tif,1.9,1,,,,,,,,,,,,,0,84,84,93,,,,,,,,,,,2,space,2,0.553,5.88105615909,,,,,,,,,,,,,,,,,,2019_Jan_28_1749,59.77338929426755,Cloud_Experiment_FR_REAL,001,12,
images/fcloud80-20_D1.7_9.tif,1.7,2,,,,,,,,,,,,,0,85,85,134,,,,,,,,,,,2,space,2,0.568,4.10960858228,,,,,,,,,,,,,,,,,,2019_Jan_28_1749,59.77338929426755,Cloud_Experiment_FR_REAL,001,12,
images/fcloud65-35_D1.2_10.tif,1.2,1,,,,,,,,,,,,,0,86,86,67,,,,,,,,,,,1,space,1,0.419,5.72979772408,,,,,,,,,,,,,,,,,,2019_Jan_28_1749,59.77338929426755,Cloud_Experiment_FR_REAL,001,12,
images/fcloud80-20_D1.3_10.tif,1.3,2,,,,,,,,,,,,,0,87,87,119,,,,,,,,,,,1,space,2,0.585,1.94390671319,,,,,,,,,,,,,,,,,,2019_Jan_28_1749,59.77338929426755,Cloud_Experiment_FR_REAL,001,12,
images/fcloud_D0.8_9.tif,0.8,0,,,,,,,,,,,,,0,88,88,2,,,,,,,,,,,1,None,1,0.501,,,,,,,,,,,,,,,,,,,2019_Jan_28_1749,59.77338929426755,Cloud_Experiment_FR_REAL,001,12,
images/fcloud_D1.1_7.tif,1.1,0,,,,,,,,,,,,,0,89,89,12,,,,,,,,,,,2,space,2,0.869,4.57830128109,,,,,,,,,,,,,,,,,,2019_Jan_28_1749,59.77338929426755,Cloud_Experiment_FR_REAL,001,12,
images/fcloud80-20_D0.8_8.tif,0.8,2,,,,,,,,,,,,,0,90,90,97,,,,,,,,,,,1,space,1,1.151,1.04113374042,,,,,,,,,,,,,,,,,,2019_Jan_28_1749,59.77338929426755,Cloud_Experiment_FR_REAL,001,12,
images/fcloud65-35_D1_7.tif,1.0,1,,,,,,,,,,,,,0,91,91,56,,,,,,,,,,,None,None,None,12.141,,,,,,,,,,,,,,,,,,,2019_Jan_28_1749,59.77338929426755,Cloud_Experiment_FR_REAL,001,12,
images/fcloud65-35_D0.8_9.tif,0.8,1,,,,,,,,,,,,,0,92,92,50,,,,,,,,,,,1,space,2,0.62,1.64591610708,,,,,,,,,,,,,,,,,,2019_Jan_28_1749,59.77338929426755,Cloud_Experiment_FR_REAL,001,12,
images/fcloud65-35_D0.8_8.tif,0.8,1,,,,,,,,,,,,,0,93,93,49,,,,,,,,,,,None,None,None,9.478,,,,,,,,,,,,,,,,,,,2019_Jan_28_1749,59.77338929426755,Cloud_Experiment_FR_REAL,001,12,
images/fcloud_D0.9_9.tif,0.9,0,,,,,,,,,,,,,0,94,94,6,,,,,,,,,,,1,space,1,0.584,7.60290246352,,,,,,,,,,,,,,,,,,2019_Jan_28_1749,59.77338929426755,Cloud_Experiment_FR_REAL,001,12,
images/fcloud80-20_D1.7_10.tif,1.7,2,,,,,,,,,,,,,0,95,95,135,,,,,,,,,,,2,space,2,1.018,3.14646280571,,,,,,,,,,,,,,,,,,2019_Jan_28_1749,59.77338929426755,Cloud_Experiment_FR_REAL,001,12,
images/fcloud_D1.9_7.tif,1.9,0,,,,,,,,,,,,,0,96,96,44,,,,,,,,,,,2,space,2,1.118,2.95853880583,,,,,,,,,,,,,,,,,,2019_Jan_28_1749,59.77338929426755,Cloud_Experiment_FR_REAL,001,12,
images/fcloud_D0.9_10.tif,0.9,0,,,,,,,,,,,,,0,97,97,7,,,,,,,,,,,1,None,1,0.752,,,,,,,,,,,,,,,,,,,2019_Jan_28_1749,59.77338929426755,Cloud_Experiment_FR_REAL,001,12,
images/fcloud65-35_D1.7_7.tif,1.7,1,,,,,,,,,,,,,0,98,98,84,,,,,,,,,,,1,space,2,0.635,3.32575528976,,,,,,,,,,,,,,,,,,2019_Jan_28_1749,59.77338929426755,Cloud_Experiment_FR_REAL,001,12,
images/fcloud80-20_D1.3_7.tif,1.3,2,,,,,,,,,,,,,0,99,99,116,,,,,,,,,,,1,space,2,1.485,6.14432587454,,,,,,,,,,,,,,,,,,2019_Jan_28_1749,59.77338929426755,Cloud_Experiment_FR_REAL,001,12,
images/fcloud_D1.3_7.tif,1.3,0,,,,,,,,,,,,,0,100,100,20,,,,,,,,,,,2,space,2,0.885,2.39442907131,,,,,,,,,,,,,,,,,,2019_Jan_28_1749,59.77338929426755,Cloud_Experiment_FR_REAL,001,12,
images/fcloud65-35_D1.1_9.tif,1.1,1,,,,,,,,,,,,,0,101,101,62,,,,,,,,,,,2,space,1,0.885,6.67213450995,,,,,,,,,,,,,,,,,,2019_Jan_28_1749,59.77338929426755,Cloud_Experiment_FR_REAL,001,12,
images/fcloud65-35_D1.3_8.tif,1.3,1,,,,,,,,,,,,,0,102,102,69,,,,,,,,,,,2,space,2,1.101,1.80144789041,,,,,,,,,,,,,,,,,,2019_Jan_28_1749,59.77338929426755,Cloud_Experiment_FR_REAL,001,12,
images/fcloud65-35_D1.8_9.tif,1.8,1,,,,,,,,,,,,,0,103,103,90,,,,,,,,,,,1,space,2,0.569,7.7431652387,,,,,,,,,,,,,,,,,,2019_Jan_28_1749,59.77338929426755,Cloud_Experiment_FR_REAL,001,12,
images/fcloud65-35_D1.6_9.tif,1.6,1,,,,,,,,,,,,,0,104,104,82,,,,,,,,,,,None,None,None,9.659,,,,,,,,,,,,,,,,,,,2019_Jan_28_1749,59.77338929426755,Cloud_Experiment_FR_REAL,001,12,
images/fcloud_D0.9_8.tif,0.9,0,,,,,,,,,,,,,0,105,105,5,,,,,,,,,,,1,space,2,0.701,5.17938244386,,,,,,,,,,,,,,,,,,2019_Jan_28_1749,59.77338929426755,Cloud_Experiment_FR_REAL,001,12,
images/fcloud80-20_D1.5_8.tif,1.5,2,,,,,,,,,,,,,0,106,106,125,,,,,,,,,,,1,space,1,1.019,5.97250982234,,,,,,,,,,,,,,,,,,2019_Jan_28_1749,59.77338929426755,Cloud_Experiment_FR_REAL,001,12,
images/fcloud80-20_D1.4_7.tif,1.4,2,,,,,,,,,,,,,0,107,107,120,,,,,,,,,,,1,space,2,0.569,2.81250523694,,,,,,,,,,,,,,,,,,2019_Jan_28_1749,59.77338929426755,Cloud_Experiment_FR_REAL,001,12,
images/fcloud80-20_D0.8_7.tif,0.8,2,,,,,,,,,,,,,0,108,108,96,,,,,,,,,,,1,space,2,0.518,4.34237163889,,,,,,,,,,,,,,,,,,2019_Jan_28_1749,59.77338929426755,Cloud_Experiment_FR_REAL,001,12,
images/fcloud_D1.4_7.tif,1.4,0,,,,,,,,,,,,,0,109,109,24,,,,,,,,,,,2,space,2,1.401,2.74051887795,,,,,,,,,,,,,,,,,,2019_Jan_28_1749,59.77338929426755,Cloud_Experiment_FR_REAL,001,12,
images/fcloud_D1.3_10.tif,1.3,0,,,,,,,,,,,,,0,110,110,23,,,,,,,,,,,2,space,2,1.2,1.16146193439,,,,,,,,,,,,,,,,,,2019_Jan_28_1749,59.77338929426755,Cloud_Experiment_FR_REAL,001,12,
images/fcloud80-20_D1.2_7.tif,1.2,2,,,,,,,,,,,,,0,111,111,112,,,,,,,,,,,1,space,2,3.033,4.1007138697,,,,,,,,,,,,,,,,,,2019_Jan_28_1749,59.77338929426755,Cloud_Experiment_FR_REAL,001,12,
images/fcloud_D1.6_10.tif,1.6,0,,,,,,,,,,,,,0,112,112,35,,,,,,,,,,,2,None,1,4.548,,,,,,,,,,,,,,,,,,,2019_Jan_28_1749,59.77338929426755,Cloud_Experiment_FR_REAL,001,12,
images/fcloud80-20_D1.8_10.tif,1.8,2,,,,,,,,,,,,,0,113,113,139,,,,,,,,,,,None,None,None,14.289,,,,,,,,,,,,,,,,,,,2019_Jan_28_1749,59.77338929426755,Cloud_Experiment_FR_REAL,001,12,
images/fcloud65-35_D1.9_7.tif,1.9,1,,,,,,,,,,,,,0,114,114,92,,,,,,,,,,,2,space,2,0.769,1.93681839376,,,,,,,,,,,,,,,,,,2019_Jan_28_1749,59.77338929426755,Cloud_Experiment_FR_REAL,001,12,
images/fcloud80-20_D1.7_7.tif,1.7,2,,,,,,,,,,,,,0,115,115,132,,,,,,,,,,,2,None,2,1.201,,,,,,,,,,,,,,,,,,,2019_Jan_28_1749,59.77338929426755,Cloud_Experiment_FR_REAL,001,12,
images/fcloud65-35_D1.9_9.tif,1.9,1,,,,,,,,,,,,,0,116,116,94,,,,,,,,,,,None,None,None,10.358,,,,,,,,,,,,,,,,,,,2019_Jan_28_1749,59.77338929426755,Cloud_Experiment_FR_REAL,001,12,
images/fcloud65-35_D1.5_7.tif,1.5,1,,,,,,,,,,,,,0,117,117,76,,,,,,,,,,,2,space,2,1.002,2.88534133066,,,,,,,,,,,,,,,,,,2019_Jan_28_1749,59.77338929426755,Cloud_Experiment_FR_REAL,001,12,
images/fcloud65-35_D1.2_9.tif,1.2,1,,,,,,,,,,,,,0,118,118,66,,,,,,,,,,,2,space,1,0.638,2.61344626805,,,,,,,,,,,,,,,,,,2019_Jan_28_1749,59.77338929426755,Cloud_Experiment_FR_REAL,001,12,
images/fcloud_D1.3_8.tif,1.3,0,,,,,,,,,,,,,0,119,119,21,,,,,,,,,,,1,space,2,0.503,2.03271915624,,,,,,,,,,,,,,,,,,2019_Jan_28_1749,59.77338929426755,Cloud_Experiment_FR_REAL,001,12,
images/fcloud80-20_D0.9_8.tif,0.9,2,,,,,,,,,,,,,0,120,120,101,,,,,,,,,,,None,None,None,9.043,,,,,,,,,,,,,,,,,,,2019_Jan_28_1749,59.77338929426755,Cloud_Experiment_FR_REAL,001,12,
images/fcloud80-20_D1.2_10.tif,1.2,2,,,,,,,,,,,,,0,121,121,115,,,,,,,,,,,1,space,2,0.684,2.80868682827,,,,,,,,,,,,,,,,,,2019_Jan_28_1749,59.77338929426755,Cloud_Experiment_FR_REAL,001,12,
images/fcloud80-20_D1.8_7.tif,1.8,2,,,,,,,,,,,,,0,122,122,136,,,,,,,,,,,1,space,2,2.933,3.87922817562,,,,,,,,,,,,,,,,,,2019_Jan_28_1749,59.77338929426755,Cloud_Experiment_FR_REAL,001,12,
images/fcloud65-35_D0.9_7.tif,0.9,1,,,,,,,,,,,,,0,123,123,52,,,,,,,,,,,None,None,None,13.273,,,,,,,,,,,,,,,,,,,2019_Jan_28_1749,59.77338929426755,Cloud_Experiment_FR_REAL,001,12,
images/fcloud_D1.9_9.tif,1.9,0,,,,,,,,,,,,,0,124,124,46,,,,,,,,,,,1,space,2,2.117,4.47961227832,,,,,,,,,,,,,,,,,,2019_Jan_28_1749,59.77338929426755,Cloud_Experiment_FR_REAL,001,12,
images/fcloud_D1.2_7.tif,1.2,0,,,,,,,,,,,,,0,125,125,16,,,,,,,,,,,1,None,2,0.634,,,,,,,,,,,,,,,,,,,2019_Jan_28_1749,59.77338929426755,Cloud_Experiment_FR_REAL,001,12,
images/fcloud80-20_D1.5_10.tif,1.5,2,,,,,,,,,,,,,0,126,126,127,,,,,,,,,,,1,space,2,0.602,2.92048374735,,,,,,,,,,,,,,,,,,2019_Jan_28_1749,59.77338929426755,Cloud_Experiment_FR_REAL,001,12,
images/fcloud_D1.1_8.tif,1.1,0,,,,,,,,,,,,,0,127,127,13,,,,,,,,,,,1,None,2,1.3,,,,,,,,,,,,,,,,,,,2019_Jan_28_1749,59.77338929426755,Cloud_Experiment_FR_REAL,001,12,
images/fcloud80-20_D1.6_9.tif,1.6,2,,,,,,,,,,,,,0,128,128,130,,,,,,,,,,,1,None,2,0.484,,,,,,,,,,,,,,,,,,,2019_Jan_28_1749,59.77338929426755,Cloud_Experiment_FR_REAL,001,12,
images/fcloud80-20_D1.4_10.tif,1.4,2,,,,,,,,,,,,,0,129,129,123,,,,,,,,,,,2,space,2,1.5,3.06222546191,,,,,,,,,,,,,,,,,,2019_Jan_28_1749,59.77338929426755,Cloud_Experiment_FR_REAL,001,12,
images/fcloud80-20_D1.4_9.tif,1.4,2,,,,,,,,,,,,,0,130,130,122,,,,,,,,,,,1,None,2,1.268,,,,,,,,,,,,,,,,,,,2019_Jan_28_1749,59.77338929426755,Cloud_Experiment_FR_REAL,001,12,
images/fcloud_D1.1_9.tif,1.1,0,,,,,,,,,,,,,0,131,131,14,,,,,,,,,,,2,space,2,1.251,1.65897210373,,,,,,,,,,,,,,,,,,2019_Jan_28_1749,59.77338929426755,Cloud_Experiment_FR_REAL,001,12,
images/fcloud80-20_D0.9_10.tif,0.9,2,,,,,,,,,,,,,0,132,132,103,,,,,,,,,,,2,None,None,None,,,,,,,,,,,,,,,,,,,2019_Jan_28_1749,59.77338929426755,Cloud_Experiment_FR_REAL,001,12,
images/fcloud80-20_D1_8.tif,1.0,2,,,,,,,,,,,,,0,133,133,105,,,,,,,,,,,1,None,2,0.852,,,,,,,,,,,,,,,,,,,2019_Jan_28_1749,59.77338929426755,Cloud_Experiment_FR_REAL,001,12,
images/fcloud65-35_D1.8_8.tif,1.8,1,,,,,,,,,,,,,0,134,134,89,,,,,,,,,,,2,space,2,1.435,2.35833256651,,,,,,,,,,,,,,,,,,2019_Jan_28_1749,59.77338929426755,Cloud_Experiment_FR_REAL,001,12,
images/fcloud_D1.6_9.tif,1.6,0,,,,,,,,,,,,,0,135,135,34,,,,,,,,,,,1,space,2,2.148,1.61316764963,,,,,,,,,,,,,,,,,,2019_Jan_28_1749,59.77338929426755,Cloud_Experiment_FR_REAL,001,12,
images/fcloud65-35_D0.9_8.tif,0.9,1,,,,,,,,,,,,,0,136,136,53,,,,,,,,,,,1,space,2,1.368,2.35868366685,,,,,,,,,,,,,,,,,,2019_Jan_28_1749,59.77338929426755,Cloud_Experiment_FR_REAL,001,12,
images/fcloud_D1.5_9.tif,1.5,0,,,,,,,,,,,,,0,137,137,30,,,,,,,,,,,1,space,2,0.818,6.51450280752,,,,,,,,,,,,,,,,,,2019_Jan_28_1749,59.77338929426755,Cloud_Experiment_FR_REAL,001,12,
images/fcloud_D1.2_10.tif,1.2,0,,,,,,,,,,,,,0,138,138,19,,,,,,,,,,,1,space,1,1.767,3.84848607911,,,,,,,,,,,,,,,,,,2019_Jan_28_1749,59.77338929426755,Cloud_Experiment_FR_REAL,001,12,
images/fcloud80-20_D1.5_9.tif,1.5,2,,,,,,,,,,,,,0,139,139,126,,,,,,,,,,,2,None,2,1.068,,,,,,,,,,,,,,,,,,,2019_Jan_28_1749,59.77338929426755,Cloud_Experiment_FR_REAL,001,12,
images/fcloud80-20_D1.5_7.tif,1.5,2,,,,,,,,,,,,,0,140,140,124,,,,,,,,,,,1,space,2,1.834,7.4087069793,,,,,,,,,,,,,,,,,,2019_Jan_28_1749,59.77338929426755,Cloud_Experiment_FR_REAL,001,12,
images/fcloud65-35_D1.3_9.tif,1.3,1,,,,,,,,,,,,,0,141,141,70,,,,,,,,,,,2,space,2,2.2,4.71161298978,,,,,,,,,,,,,,,,,,2019_Jan_28_1749,59.77338929426755,Cloud_Experiment_FR_REAL,001,12,
images/fcloud_D0.8_10.tif,0.8,0,,,,,,,,,,,,,0,142,142,3,,,,,,,,,,,None,None,None,12.556,,,,,,,,,,,,,,,,,,,2019_Jan_28_1749,59.77338929426755,Cloud_Experiment_FR_REAL,001,12,
images/fcloud80-20_D1_10.tif,1.0,2,,,,,,,,,,,,,0,143,143,107,,,,,,,,,,,1,space,1,0.619,3.82735374718,,,,,,,,,,,,,,,,,,2019_Jan_28_1749,59.77338929426755,Cloud_Experiment_FR_REAL,001,12,
,,,,,,,,,,,,,,,,,,,,,,,,,4,10.461,,,,,,,,,,,,,,,,,,,,,,,,,2019_Jan_28_1749,59.77338929426755,Cloud_Experiment_FR_REAL,001,12,
,,,,,,,,,,,,,,,,,,,,,,,,,,,,,,,,,,6,,,,,,,,,,,,,,,,,2019_Jan_28_1749,59.77338929426755,Cloud_Experiment_FR_REAL,001,12,
,,,,,,,,,,,,,,,,,,,,,,,,,,,,,,,,,,,5,,,,,,,,,,,,,,,,2019_Jan_28_1749,59.77338929426755,Cloud_Experiment_FR_REAL,001,12,
,,,,,,,,,,,,,,,,,,,,,,,,,,,,,,,,,,,,6,,,,,,,,,,,,,,,2019_Jan_28_1749,59.77338929426755,Cloud_Experiment_FR_REAL,001,12,
,,,,,,,,,,,,,,,,,,,,,,,,,,,,,,,,,,,,,4,,,,,,,,,,,,,,2019_Jan_28_1749,59.77338929426755,Cloud_Experiment_FR_REAL,001,12,
,,,,,,,,,,,,,,,,,,,,,,,,,,,,,,,,,,,,,,3,,,,,,,,,,,,,2019_Jan_28_1749,59.77338929426755,Cloud_Experiment_FR_REAL,001,12,
,,,,,,,,,,,,,,,,,,,,,,,,,,,,,,,,,,,,,,,4,,,,,,,,,,,,2019_Jan_28_1749,59.77338929426755,Cloud_Experiment_FR_REAL,001,12,
,,,,,,,,,,,,,,,,,,,,,,,,,,,,,,,,,,,,,,,,5,,,,,,,,,,,2019_Jan_28_1749,59.77338929426755,Cloud_Experiment_FR_REAL,001,12,
,,,,,,,,,,,,,,,,,,,,,,,,,,,,,,,,,,,,,,,,,6,,,,,,,,,,2019_Jan_28_1749,59.77338929426755,Cloud_Experiment_FR_REAL,001,12,
,,,,,,,,,,,,,,,,,,,,,,,,,,,,,,,,,,,,,,,,,,5,,,,,,,,,2019_Jan_28_1749,59.77338929426755,Cloud_Experiment_FR_REAL,001,12,
,,,,,,,,,,,,,,,,,,,,,,,,,,,,,,,,,,,,,,,,,,,6,,,,,,,,2019_Jan_28_1749,59.77338929426755,Cloud_Experiment_FR_REAL,001,12,
,,,,,,,,,,,,,,,,,,,,,,,,,,,,,,,,,,,,,,,,,,,,,,,,,,4,2019_Jan_28_1749,59.77338929426755,Cloud_Experiment_FR_REAL,001,12,
