ImageFile,FD,Contrast,trials_4.thisRepN,trials_4.thisTrialN,trials_4.thisN,trials_4.thisIndex,trials.thisRepN,trials.thisTrialN,trials.thisN,trials.thisIndex,trials_2.thisRepN,trials_2.thisTrialN,trials_2.thisN,trials_2.thisIndex,trials_3.thisRepN,trials_3.thisTrialN,trials_3.thisN,trials_3.thisIndex,end_instructions.keys,end_instructions.rt,key_resp_4.keys,key_resp_4.rt,key_resp_6.keys,key_resp_6.rt,Fatigue.response,Fatigue.rt,key_resp_5.keys,key_resp_5.rt,n_objets.response,reaction_time.keys,reaction_time.rt,vividness.response,vividness.rt,Flow01.response,Flow02.response,Flow03.response,Flow04.response,Flow05.response,Flow06.response,Flow07.response,Flow08.response,Flow09.response,Flow10.response,key_resp_2.keys,key_resp_2.rt,key_resp_8.keys,key_resp_8.rt,key_resp_3.keys,key_resp_3.rt,Redondance_question.response,date,frameRate,expName,session,participant,
,,,,,,,,,,,,,,,,,,,space,18.6487207971,,,,,,,,,,,,,,,,,,,,,,,,,,,,,,,2019_Jan_29_1744,60.29884196041611,Cloud_Experiment_FR_REAL,001,13,
,,,,,,,,,,,,,,,,,,,,,space,177.130541974,,,,,,,,,,,,,,,,,,,,,,,,,,,,,2019_Jan_29_1744,60.29884196041611,Cloud_Experiment_FR_REAL,001,13,
,,,,,,,,,,,,,,,,,,,,,,,space,102.063650939,,,,,,,,,,,,,,,,,,,,,,,,,,,2019_Jan_29_1744,60.29884196041611,Cloud_Experiment_FR_REAL,001,13,
,,,,,,,,,,,,,,,,,,,,,,,,,5,14.267,,,,,,,,,,,,,,,,,,,,,,,,,2019_Jan_29_1744,60.29884196041611,Cloud_Experiment_FR_REAL,001,13,
,,,,,,,,,,,,,,,,,,,,,,,,,,,space,3.11876494938,,,,,,,,,,,,,,,,,,,,,,,2019_Jan_29_1744,60.29884196041611,Cloud_Experiment_FR_REAL,001,13,
pratique/fcloud_D1.6_28,1.6,0,0,0,0,5,,,,,,,,,,,,,,,,,,,,,,,1,space,5.30388014679,3,13.009,,,,,,,,,,,,,,,,,,2019_Jan_29_1744,60.29884196041611,Cloud_Experiment_FR_REAL,001,13,
pratique/fcloud65-35_D1.9_29,1.9,1,0,1,1,7,,,,,,,,,,,,,,,,,,,,,,,None,None,,None,22.982,,,,,,,,,,,,,,,,,,2019_Jan_29_1744,60.29884196041611,Cloud_Experiment_FR_REAL,001,13,
pratique/fcloud65-35_D1.6_30,1.6,1,0,2,2,2,,,,,,,,,,,,,,,,,,,,,,,1,space,5.5589563222,4,10.877,,,,,,,,,,,,,,,,,,2019_Jan_29_1744,60.29884196041611,Cloud_Experiment_FR_REAL,001,13,
pratique/fcloud65-35_D1.2_30,1.2,1,0,3,3,3,,,,,,,,,,,,,,,,,,,,,,,None,None,,None,20.718,,,,,,,,,,,,,,,,,,2019_Jan_29_1744,60.29884196041611,Cloud_Experiment_FR_REAL,001,13,
pratique/fcloud65-35_D1.3_30,1.3,1,0,4,4,6,,,,,,,,,,,,,,,,,,,,,,,1,space,6.56393495545,5,3.517,,,,,,,,,,,,,,,,,,2019_Jan_29_1744,60.29884196041611,Cloud_Experiment_FR_REAL,001,13,
pratique/fcloud80-20_D1_30,1.0,2,0,5,5,9,,,,,,,,,,,,,,,,,,,,,,,None,None,,None,27.462,,,,,,,,,,,,,,,,,,2019_Jan_29_1744,60.29884196041611,Cloud_Experiment_FR_REAL,001,13,
pratique/fcloud80-20_D1.8_30,1.8,2,0,6,6,4,,,,,,,,,,,,,,,,,,,,,,,None,None,,None,36.686,,,,,,,,,,,,,,,,,,2019_Jan_29_1744,60.29884196041611,Cloud_Experiment_FR_REAL,001,13,
pratique/fcloud_D1.4_30,1.4,0,0,7,7,1,,,,,,,,,,,,,,,,,,,,,,,2,None,,2,5.082,,,,,,,,,,,,,,,,,,2019_Jan_29_1744,60.29884196041611,Cloud_Experiment_FR_REAL,001,13,
pratique/fcloud_D0.8_30,0.8,0,0,8,8,0,,,,,,,,,,,,,,,,,,,,,,,None,None,,None,14.341,,,,,,,,,,,,,,,,,,2019_Jan_29_1744,60.29884196041611,Cloud_Experiment_FR_REAL,001,13,
pratique/fcloud80-20_D1.5_30,1.5,2,0,9,9,8,,,,,,,,,,,,,,,,,,,,,,,1,space,5.97451515513,3,2.3,,,,,,,,,,,,,,,,,,2019_Jan_29_1744,60.29884196041611,Cloud_Experiment_FR_REAL,001,13,
,,,,,,,,,,,,,,,,,,,,,,,,,,,,,,,,,,4,,,,,,,,,,,,,,,,,2019_Jan_29_1744,60.29884196041611,Cloud_Experiment_FR_REAL,001,13,
,,,,,,,,,,,,,,,,,,,,,,,,,,,,,,,,,,,4,,,,,,,,,,,,,,,,2019_Jan_29_1744,60.29884196041611,Cloud_Experiment_FR_REAL,001,13,
,,,,,,,,,,,,,,,,,,,,,,,,,,,,,,,,,,,,7,,,,,,,,,,,,,,,2019_Jan_29_1744,60.29884196041611,Cloud_Experiment_FR_REAL,001,13,
,,,,,,,,,,,,,,,,,,,,,,,,,,,,,,,,,,,,,7,,,,,,,,,,,,,,2019_Jan_29_1744,60.29884196041611,Cloud_Experiment_FR_REAL,001,13,
,,,,,,,,,,,,,,,,,,,,,,,,,,,,,,,,,,,,,,4,,,,,,,,,,,,,2019_Jan_29_1744,60.29884196041611,Cloud_Experiment_FR_REAL,001,13,
,,,,,,,,,,,,,,,,,,,,,,,,,,,,,,,,,,,,,,,7,,,,,,,,,,,,2019_Jan_29_1744,60.29884196041611,Cloud_Experiment_FR_REAL,001,13,
,,,,,,,,,,,,,,,,,,,,,,,,,,,,,,,,,,,,,,,,7,,,,,,,,,,,2019_Jan_29_1744,60.29884196041611,Cloud_Experiment_FR_REAL,001,13,
,,,,,,,,,,,,,,,,,,,,,,,,,,,,,,,,,,,,,,,,,7,,,,,,,,,,2019_Jan_29_1744,60.29884196041611,Cloud_Experiment_FR_REAL,001,13,
,,,,,,,,,,,,,,,,,,,,,,,,,,,,,,,,,,,,,,,,,,4,,,,,,,,,2019_Jan_29_1744,60.29884196041611,Cloud_Experiment_FR_REAL,001,13,
,,,,,,,,,,,,,,,,,,,,,,,,,,,,,,,,,,,,,,,,,,,2,,,,,,,,2019_Jan_29_1744,60.29884196041611,Cloud_Experiment_FR_REAL,001,13,
,,,,,,,,,,,,,,,,,,,,,,,,,,,,,,,,,,,,,,,,,,,,space,27.6783730947,,,,,,2019_Jan_29_1744,60.29884196041611,Cloud_Experiment_FR_REAL,001,13,
images/fcloud80-20_D1.9_3.tif,1.9,2,,,,,0,0,0,107,,,,,,,,,,,,,,,,,,,1,None,,1,4.832,,,,,,,,,,,,,,,,,,2019_Jan_29_1744,60.29884196041611,Cloud_Experiment_FR_REAL,001,13,
images/fcloud65-35_D1.9_2.tif,1.9,1,,,,,0,1,1,70,,,,,,,,,,,,,,,,,,,1,None,,1,1.735,,,,,,,,,,,,,,,,,,2019_Jan_29_1744,60.29884196041611,Cloud_Experiment_FR_REAL,001,13,
images/fcloud65-35_D1.2_3.tif,1.2,1,,,,,0,2,2,50,,,,,,,,,,,,,,,,,,,None,None,,None,12.159,,,,,,,,,,,,,,,,,,2019_Jan_29_1744,60.29884196041611,Cloud_Experiment_FR_REAL,001,13,
images/fcloud_D1.5_2.tif,1.5,0,,,,,0,3,3,22,,,,,,,,,,,,,,,,,,,None,None,,None,23.131,,,,,,,,,,,,,,,,,,2019_Jan_29_1744,60.29884196041611,Cloud_Experiment_FR_REAL,001,13,
images/fcloud80-20_D1.3_2.tif,1.3,2,,,,,0,4,4,88,,,,,,,,,,,,,,,,,,,None,None,,None,32.241,,,,,,,,,,,,,,,,,,2019_Jan_29_1744,60.29884196041611,Cloud_Experiment_FR_REAL,001,13,
images/fcloud_D1.4_3.tif,1.4,0,,,,,0,5,5,20,,,,,,,,,,,,,,,,,,,1,None,,3,5.183,,,,,,,,,,,,,,,,,,2019_Jan_29_1744,60.29884196041611,Cloud_Experiment_FR_REAL,001,13,
images/fcloud65-35_D0.8_3.tif,0.8,1,,,,,0,6,6,38,,,,,,,,,,,,,,,,,,,2,None,,2,4.266,,,,,,,,,,,,,,,,,,2019_Jan_29_1744,60.29884196041611,Cloud_Experiment_FR_REAL,001,13,
images/fcloud65-35_D1.4_2.tif,1.4,1,,,,,0,7,7,55,,,,,,,,,,,,,,,,,,,2,space,4.15460905264,4,2.95,,,,,,,,,,,,,,,,,,2019_Jan_29_1744,60.29884196041611,Cloud_Experiment_FR_REAL,001,13,
images/fcloud65-35_D1.7_1.tif,1.7,1,,,,,0,8,8,63,,,,,,,,,,,,,,,,,,,1,None,,3,1.835,,,,,,,,,,,,,,,,,,2019_Jan_29_1744,60.29884196041611,Cloud_Experiment_FR_REAL,001,13,
images/fcloud80-20_D1_1.tif,1.0,2,,,,,0,9,9,78,,,,,,,,,,,,,,,,,,,None,None,,None,11.259,,,,,,,,,,,,,,,,,,2019_Jan_29_1744,60.29884196041611,Cloud_Experiment_FR_REAL,001,13,
images/fcloud80-20_D1.4_2.tif,1.4,2,,,,,0,10,10,91,,,,,,,,,,,,,,,,,,,1,space,5.14620834799,2,1.202,,,,,,,,,,,,,,,,,,2019_Jan_29_1744,60.29884196041611,Cloud_Experiment_FR_REAL,001,13,
images/fcloud65-35_D1.3_3.tif,1.3,1,,,,,0,11,11,53,,,,,,,,,,,,,,,,,,,1,space,6.39973104585,3,1.335,,,,,,,,,,,,,,,,,,2019_Jan_29_1744,60.29884196041611,Cloud_Experiment_FR_REAL,001,13,
images/fcloud80-20_D1.6_2.tif,1.6,2,,,,,0,12,12,97,,,,,,,,,,,,,,,,,,,None,None,,None,10.559,,,,,,,,,,,,,,,,,,2019_Jan_29_1744,60.29884196041611,Cloud_Experiment_FR_REAL,001,13,
images/fcloud_D1.5_3.tif,1.5,0,,,,,0,13,13,23,,,,,,,,,,,,,,,,,,,1,space,6.33435390602,1,1.484,,,,,,,,,,,,,,,,,,2019_Jan_29_1744,60.29884196041611,Cloud_Experiment_FR_REAL,001,13,
images/fcloud80-20_D1_3.tif,1.0,2,,,,,0,14,14,80,,,,,,,,,,,,,,,,,,,1,None,,1,1.32,,,,,,,,,,,,,,,,,,2019_Jan_29_1744,60.29884196041611,Cloud_Experiment_FR_REAL,001,13,
images/fcloud80-20_D1.1_2.tif,1.1,2,,,,,0,15,15,82,,,,,,,,,,,,,,,,,,,None,None,,None,10.435,,,,,,,,,,,,,,,,,,2019_Jan_29_1744,60.29884196041611,Cloud_Experiment_FR_REAL,001,13,
images/fcloud65-35_D1.1_3.tif,1.1,1,,,,,0,16,16,47,,,,,,,,,,,,,,,,,,,None,None,,None,19.418,,,,,,,,,,,,,,,,,,2019_Jan_29_1744,60.29884196041611,Cloud_Experiment_FR_REAL,001,13,
images/fcloud65-35_D1_2.tif,1.0,1,,,,,0,17,17,43,,,,,,,,,,,,,,,,,,,3,space,2.2577384719,5,7.247,,,,,,,,,,,,,,,,,,2019_Jan_29_1744,60.29884196041611,Cloud_Experiment_FR_REAL,001,13,
images/fcloud80-20_D1.5_1.tif,1.5,2,,,,,0,18,18,93,,,,,,,,,,,,,,,,,,,1,space,5.86577841203,5,1.669,,,,,,,,,,,,,,,,,,2019_Jan_29_1744,60.29884196041611,Cloud_Experiment_FR_REAL,001,13,
images/fcloud65-35_D1.9_1.tif,1.9,1,,,,,0,19,19,69,,,,,,,,,,,,,,,,,,,1,space,4.48209979577,3,4.748,,,,,,,,,,,,,,,,,,2019_Jan_29_1744,60.29884196041611,Cloud_Experiment_FR_REAL,001,13,
images/fcloud_D1.1_2.tif,1.1,0,,,,,0,20,20,10,,,,,,,,,,,,,,,,,,,1,None,,1,1.267,,,,,,,,,,,,,,,,,,2019_Jan_29_1744,60.29884196041611,Cloud_Experiment_FR_REAL,001,13,
images/fcloud80-20_D1.7_3.tif,1.7,2,,,,,0,21,21,101,,,,,,,,,,,,,,,,,,,1,None,,2,1.403,,,,,,,,,,,,,,,,,,2019_Jan_29_1744,60.29884196041611,Cloud_Experiment_FR_REAL,001,13,
images/fcloud65-35_D0.9_1.tif,0.9,1,,,,,0,22,22,39,,,,,,,,,,,,,,,,,,,None,space,5.66264554855,None,11.625,,,,,,,,,,,,,,,,,,2019_Jan_29_1744,60.29884196041611,Cloud_Experiment_FR_REAL,001,13,
images/fcloud65-35_D1.5_3.tif,1.5,1,,,,,0,23,23,59,,,,,,,,,,,,,,,,,,,1,space,6.39347652538,2,1.052,,,,,,,,,,,,,,,,,,2019_Jan_29_1744,60.29884196041611,Cloud_Experiment_FR_REAL,001,13,
images/fcloud65-35_D1.1_2.tif,1.1,1,,,,,0,24,24,46,,,,,,,,,,,,,,,,,,,2,space,7.55809476419,2,2.117,,,,,,,,,,,,,,,,,,2019_Jan_29_1744,60.29884196041611,Cloud_Experiment_FR_REAL,001,13,
images/fcloud_D1.3_3.tif,1.3,0,,,,,0,25,25,17,,,,,,,,,,,,,,,,,,,2,space,2.39332590692,2,3.633,,,,,,,,,,,,,,,,,,2019_Jan_29_1744,60.29884196041611,Cloud_Experiment_FR_REAL,001,13,
images/fcloud_D0.8_2.tif,0.8,0,,,,,0,26,26,1,,,,,,,,,,,,,,,,,,,2,space,1.92172365065,3,2.634,,,,,,,,,,,,,,,,,,2019_Jan_29_1744,60.29884196041611,Cloud_Experiment_FR_REAL,001,13,
images/fcloud80-20_D1.1_3.tif,1.1,2,,,,,0,27,27,83,,,,,,,,,,,,,,,,,,,1,space,5.25006824094,1,1.002,,,,,,,,,,,,,,,,,,2019_Jan_29_1744,60.29884196041611,Cloud_Experiment_FR_REAL,001,13,
images/fcloud80-20_D1.5_2.tif,1.5,2,,,,,0,28,28,94,,,,,,,,,,,,,,,,,,,1,space,3.49961985552,2,0.819,,,,,,,,,,,,,,,,,,2019_Jan_29_1744,60.29884196041611,Cloud_Experiment_FR_REAL,001,13,
images/fcloud_D0.9_1.tif,0.9,0,,,,,0,29,29,3,,,,,,,,,,,,,,,,,,,2,space,4.29005049574,1,1.218,,,,,,,,,,,,,,,,,,2019_Jan_29_1744,60.29884196041611,Cloud_Experiment_FR_REAL,001,13,
images/fcloud80-20_D1.8_3.tif,1.8,2,,,,,0,30,30,104,,,,,,,,,,,,,,,,,,,None,None,,None,10.942,,,,,,,,,,,,,,,,,,2019_Jan_29_1744,60.29884196041611,Cloud_Experiment_FR_REAL,001,13,
images/fcloud65-35_D1.4_3.tif,1.4,1,,,,,0,31,31,56,,,,,,,,,,,,,,,,,,,1,space,7.70211528943,2,0.936,,,,,,,,,,,,,,,,,,2019_Jan_29_1744,60.29884196041611,Cloud_Experiment_FR_REAL,001,13,
images/fcloud_D1.8_3.tif,1.8,0,,,,,0,32,32,32,,,,,,,,,,,,,,,,,,,1,space,4.93917328471,3,1.085,,,,,,,,,,,,,,,,,,2019_Jan_29_1744,60.29884196041611,Cloud_Experiment_FR_REAL,001,13,
images/fcloud_D1.7_3.tif,1.7,0,,,,,0,33,33,29,,,,,,,,,,,,,,,,,,,None,None,,None,10.294,,,,,,,,,,,,,,,,,,2019_Jan_29_1744,60.29884196041611,Cloud_Experiment_FR_REAL,001,13,
images/fcloud80-20_D1.5_3.tif,1.5,2,,,,,0,34,34,95,,,,,,,,,,,,,,,,,,,None,None,,None,19.635,,,,,,,,,,,,,,,,,,2019_Jan_29_1744,60.29884196041611,Cloud_Experiment_FR_REAL,001,13,
images/fcloud80-20_D1.3_3.tif,1.3,2,,,,,0,35,35,89,,,,,,,,,,,,,,,,,,,None,None,,None,28.212,,,,,,,,,,,,,,,,,,2019_Jan_29_1744,60.29884196041611,Cloud_Experiment_FR_REAL,001,13,
images/fcloud80-20_D1.2_3.tif,1.2,2,,,,,0,36,36,86,,,,,,,,,,,,,,,,,,,2,space,3.5027119029,3,1.185,,,,,,,,,,,,,,,,,,2019_Jan_29_1744,60.29884196041611,Cloud_Experiment_FR_REAL,001,13,
images/fcloud80-20_D1.8_2.tif,1.8,2,,,,,0,37,37,103,,,,,,,,,,,,,,,,,,,None,None,,None,15.571,,,,,,,,,,,,,,,,,,2019_Jan_29_1744,60.29884196041611,Cloud_Experiment_FR_REAL,001,13,
images/fcloud_D1.2_3.tif,1.2,0,,,,,0,38,38,14,,,,,,,,,,,,,,,,,,,2,space,4.75521934003,2,2.018,,,,,,,,,,,,,,,,,,2019_Jan_29_1744,60.29884196041611,Cloud_Experiment_FR_REAL,001,13,
images/fcloud65-35_D1.7_3.tif,1.7,1,,,,,0,39,39,65,,,,,,,,,,,,,,,,,,,2,space,3.62030429035,3,2.036,,,,,,,,,,,,,,,,,,2019_Jan_29_1744,60.29884196041611,Cloud_Experiment_FR_REAL,001,13,
images/fcloud_D1.6_2.tif,1.6,0,,,,,0,40,40,25,,,,,,,,,,,,,,,,,,,1,None,,1,1.87,,,,,,,,,,,,,,,,,,2019_Jan_29_1744,60.29884196041611,Cloud_Experiment_FR_REAL,001,13,
images/fcloud80-20_D1.4_3.tif,1.4,2,,,,,0,41,41,92,,,,,,,,,,,,,,,,,,,1,None,,1,0.769,,,,,,,,,,,,,,,,,,2019_Jan_29_1744,60.29884196041611,Cloud_Experiment_FR_REAL,001,13,
images/fcloud65-35_D1.6_2.tif,1.6,1,,,,,0,42,42,61,,,,,,,,,,,,,,,,,,,2,space,1.83192319181,2,1.052,,,,,,,,,,,,,,,,,,2019_Jan_29_1744,60.29884196041611,Cloud_Experiment_FR_REAL,001,13,
images/fcloud80-20_D0.8_1.tif,0.8,2,,,,,0,43,43,72,,,,,,,,,,,,,,,,,,,2,space,6.82536846254,2,1.202,,,,,,,,,,,,,,,,,,2019_Jan_29_1744,60.29884196041611,Cloud_Experiment_FR_REAL,001,13,
images/fcloud_D1.6_1.tif,1.6,0,,,,,0,44,44,24,,,,,,,,,,,,,,,,,,,None,None,,None,11.259,,,,,,,,,,,,,,,,,,2019_Jan_29_1744,60.29884196041611,Cloud_Experiment_FR_REAL,001,13,
images/fcloud80-20_D1.3_1.tif,1.3,2,,,,,0,45,45,87,,,,,,,,,,,,,,,,,,,None,None,,None,20.467,,,,,,,,,,,,,,,,,,2019_Jan_29_1744,60.29884196041611,Cloud_Experiment_FR_REAL,001,13,
images/fcloud_D1.1_3.tif,1.1,0,,,,,0,46,46,11,,,,,,,,,,,,,,,,,,,1,space,3.55914395268,3,1.369,,,,,,,,,,,,,,,,,,2019_Jan_29_1744,60.29884196041611,Cloud_Experiment_FR_REAL,001,13,
images/fcloud_D1.8_2.tif,1.8,0,,,,,0,47,47,31,,,,,,,,,,,,,,,,,,,1,None,,2,1.385,,,,,,,,,,,,,,,,,,2019_Jan_29_1744,60.29884196041611,Cloud_Experiment_FR_REAL,001,13,
images/fcloud_D1.4_1.tif,1.4,0,,,,,0,48,48,18,,,,,,,,,,,,,,,,,,,None,None,,None,11.178,,,,,,,,,,,,,,,,,,2019_Jan_29_1744,60.29884196041611,Cloud_Experiment_FR_REAL,001,13,
images/fcloud80-20_D0.8_2.tif,0.8,2,,,,,0,49,49,73,,,,,,,,,,,,,,,,,,,1,space,7.44708383689,3,2.233,,,,,,,,,,,,,,,,,,2019_Jan_29_1744,60.29884196041611,Cloud_Experiment_FR_REAL,001,13,
images/fcloud80-20_D1.8_1.tif,1.8,2,,,,,0,50,50,102,,,,,,,,,,,,,,,,,,,1,space,3.88664446288,2,1.452,,,,,,,,,,,,,,,,,,2019_Jan_29_1744,60.29884196041611,Cloud_Experiment_FR_REAL,001,13,
images/fcloud65-35_D1.8_3.tif,1.8,1,,,,,0,51,51,68,,,,,,,,,,,,,,,,,,,2,space,5.27259520703,3,1.952,,,,,,,,,,,,,,,,,,2019_Jan_29_1744,60.29884196041611,Cloud_Experiment_FR_REAL,001,13,
images/fcloud80-20_D0.9_3.tif,0.9,2,,,,,0,52,52,77,,,,,,,,,,,,,,,,,,,None,None,,None,11.725,,,,,,,,,,,,,,,,,,2019_Jan_29_1744,60.29884196041611,Cloud_Experiment_FR_REAL,001,13,
images/fcloud65-35_D1_1.tif,1.0,1,,,,,0,53,53,42,,,,,,,,,,,,,,,,,,,2,space,2.55590437117,5,1.8,,,,,,,,,,,,,,,,,,2019_Jan_29_1744,60.29884196041611,Cloud_Experiment_FR_REAL,001,13,
images/fcloud_D1.1_1.tif,1.1,0,,,,,0,54,54,9,,,,,,,,,,,,,,,,,,,1,None,,2,1.652,,,,,,,,,,,,,,,,,,2019_Jan_29_1744,60.29884196041611,Cloud_Experiment_FR_REAL,001,13,
images/fcloud80-20_D1_2.tif,1.0,2,,,,,0,55,55,79,,,,,,,,,,,,,,,,,,,1,space,7.2020821328,3,2.203,,,,,,,,,,,,,,,,,,2019_Jan_29_1744,60.29884196041611,Cloud_Experiment_FR_REAL,001,13,
images/fcloud80-20_D1.2_1.tif,1.2,2,,,,,0,56,56,84,,,,,,,,,,,,,,,,,,,2,space,3.44798960374,3,3.134,,,,,,,,,,,,,,,,,,2019_Jan_29_1744,60.29884196041611,Cloud_Experiment_FR_REAL,001,13,
images/fcloud_D1.9_2.tif,1.9,0,,,,,0,57,57,34,,,,,,,,,,,,,,,,,,,2,None,,2,1.802,,,,,,,,,,,,,,,,,,2019_Jan_29_1744,60.29884196041611,Cloud_Experiment_FR_REAL,001,13,
images/fcloud80-20_D1.7_1.tif,1.7,2,,,,,0,58,58,99,,,,,,,,,,,,,,,,,,,1,None,,1,1.419,,,,,,,,,,,,,,,,,,2019_Jan_29_1744,60.29884196041611,Cloud_Experiment_FR_REAL,001,13,
images/fcloud65-35_D0.9_3.tif,0.9,1,,,,,0,59,59,41,,,,,,,,,,,,,,,,,,,None,None,,None,10.76,,,,,,,,,,,,,,,,,,2019_Jan_29_1744,60.29884196041611,Cloud_Experiment_FR_REAL,001,13,
images/fcloud80-20_D0.8_3.tif,0.8,2,,,,,0,60,60,74,,,,,,,,,,,,,,,,,,,None,None,,None,22.799,,,,,,,,,,,,,,,,,,2019_Jan_29_1744,60.29884196041611,Cloud_Experiment_FR_REAL,001,13,
images/fcloud_D1_3.tif,1.0,0,,,,,0,61,61,8,,,,,,,,,,,,,,,,,,,1,space,6.39671045225,3,0.902,,,,,,,,,,,,,,,,,,2019_Jan_29_1744,60.29884196041611,Cloud_Experiment_FR_REAL,001,13,
images/fcloud65-35_D1.5_1.tif,1.5,1,,,,,0,62,62,57,,,,,,,,,,,,,,,,,,,1,space,2.67593852506,2,0.936,,,,,,,,,,,,,,,,,,2019_Jan_29_1744,60.29884196041611,Cloud_Experiment_FR_REAL,001,13,
images/fcloud65-35_D1.3_1.tif,1.3,1,,,,,0,63,63,51,,,,,,,,,,,,,,,,,,,2,space,5.17767526358,2,2.717,,,,,,,,,,,,,,,,,,2019_Jan_29_1744,60.29884196041611,Cloud_Experiment_FR_REAL,001,13,
images/fcloud65-35_D1.3_2.tif,1.3,1,,,,,0,64,64,52,,,,,,,,,,,,,,,,,,,1,space,6.92722250865,2,2.202,,,,,,,,,,,,,,,,,,2019_Jan_29_1744,60.29884196041611,Cloud_Experiment_FR_REAL,001,13,
images/fcloud80-20_D1.9_2.tif,1.9,2,,,,,0,65,65,106,,,,,,,,,,,,,,,,,,,1,space,5.63308115455,3,1.6,,,,,,,,,,,,,,,,,,2019_Jan_29_1744,60.29884196041611,Cloud_Experiment_FR_REAL,001,13,
images/fcloud65-35_D1.6_1.tif,1.6,1,,,,,0,66,66,60,,,,,,,,,,,,,,,,,,,1,None,,1,2.118,,,,,,,,,,,,,,,,,,2019_Jan_29_1744,60.29884196041611,Cloud_Experiment_FR_REAL,001,13,
images/fcloud80-20_D0.9_2.tif,0.9,2,,,,,0,67,67,76,,,,,,,,,,,,,,,,,,,None,None,,None,11.891,,,,,,,,,,,,,,,,,,2019_Jan_29_1744,60.29884196041611,Cloud_Experiment_FR_REAL,001,13,
images/fcloud65-35_D1.8_2.tif,1.8,1,,,,,0,68,68,67,,,,,,,,,,,,,,,,,,,3,space,5.42042643009,2,3.0,,,,,,,,,,,,,,,,,,2019_Jan_29_1744,60.29884196041611,Cloud_Experiment_FR_REAL,001,13,
images/fcloud_D1.3_2.tif,1.3,0,,,,,0,69,69,16,,,,,,,,,,,,,,,,,,,2,space,4.02657464377,3,2.486,,,,,,,,,,,,,,,,,,2019_Jan_29_1744,60.29884196041611,Cloud_Experiment_FR_REAL,001,13,
images/fcloud_D1.8_1.tif,1.8,0,,,,,0,70,70,30,,,,,,,,,,,,,,,,,,,1,None,,1,0.819,,,,,,,,,,,,,,,,,,2019_Jan_29_1744,60.29884196041611,Cloud_Experiment_FR_REAL,001,13,
images/fcloud65-35_D1.2_2.tif,1.2,1,,,,,0,71,71,49,,,,,,,,,,,,,,,,,,,1,None,,1,1.067,,,,,,,,,,,,,,,,,,2019_Jan_29_1744,60.29884196041611,Cloud_Experiment_FR_REAL,001,13,
images/fcloud65-35_D0.8_1.tif,0.8,1,,,,,0,72,72,36,,,,,,,,,,,,,,,,,,,1,None,,1,0.687,,,,,,,,,,,,,,,,,,2019_Jan_29_1744,60.29884196041611,Cloud_Experiment_FR_REAL,001,13,
images/fcloud80-20_D1.6_3.tif,1.6,2,,,,,0,73,73,98,,,,,,,,,,,,,,,,,,,2,space,5.50293757353,3,3.432,,,,,,,,,,,,,,,,,,2019_Jan_29_1744,60.29884196041611,Cloud_Experiment_FR_REAL,001,13,
images/fcloud80-20_D1.4_1.tif,1.4,2,,,,,0,74,74,90,,,,,,,,,,,,,,,,,,,None,None,,None,14.24,,,,,,,,,,,,,,,,,,2019_Jan_29_1744,60.29884196041611,Cloud_Experiment_FR_REAL,001,13,
images/fcloud65-35_D1.6_3.tif,1.6,1,,,,,0,75,75,62,,,,,,,,,,,,,,,,,,,2,space,3.68086472459,3,0.653,,,,,,,,,,,,,,,,,,2019_Jan_29_1744,60.29884196041611,Cloud_Experiment_FR_REAL,001,13,
images/fcloud65-35_D1.2_1.tif,1.2,1,,,,,0,76,76,48,,,,,,,,,,,,,,,,,,,2,space,2.00616044822,3,1.42,,,,,,,,,,,,,,,,,,2019_Jan_29_1744,60.29884196041611,Cloud_Experiment_FR_REAL,001,13,
images/fcloud65-35_D1.8_1.tif,1.8,1,,,,,0,77,77,66,,,,,,,,,,,,,,,,,,,None,None,,None,12.309,,,,,,,,,,,,,,,,,,2019_Jan_29_1744,60.29884196041611,Cloud_Experiment_FR_REAL,001,13,
images/fcloud80-20_D0.9_1.tif,0.9,2,,,,,0,78,78,75,,,,,,,,,,,,,,,,,,,1,None,,2,2.32,,,,,,,,,,,,,,,,,,2019_Jan_29_1744,60.29884196041611,Cloud_Experiment_FR_REAL,001,13,
images/fcloud65-35_D1.1_1.tif,1.1,1,,,,,0,79,79,45,,,,,,,,,,,,,,,,,,,1,space,7.06508669813,2,1.302,,,,,,,,,,,,,,,,,,2019_Jan_29_1744,60.29884196041611,Cloud_Experiment_FR_REAL,001,13,
images/fcloud_D1.4_2.tif,1.4,0,,,,,0,80,80,19,,,,,,,,,,,,,,,,,,,2,space,2.96643470743,5,1.136,,,,,,,,,,,,,,,,,,2019_Jan_29_1744,60.29884196041611,Cloud_Experiment_FR_REAL,001,13,
images/fcloud_D0.8_3.tif,0.8,0,,,,,0,81,81,2,,,,,,,,,,,,,,,,,,,2,space,3.92105640584,3,1.468,,,,,,,,,,,,,,,,,,2019_Jan_29_1744,60.29884196041611,Cloud_Experiment_FR_REAL,001,13,
images/fcloud80-20_D1.2_2.tif,1.2,2,,,,,0,82,82,85,,,,,,,,,,,,,,,,,,,None,None,,None,11.092,,,,,,,,,,,,,,,,,,2019_Jan_29_1744,60.29884196041611,Cloud_Experiment_FR_REAL,001,13,
images/fcloud_D0.9_3.tif,0.9,0,,,,,0,83,83,5,,,,,,,,,,,,,,,,,,,1,space,7.00937432691,2,1.7,,,,,,,,,,,,,,,,,,2019_Jan_29_1744,60.29884196041611,Cloud_Experiment_FR_REAL,001,13,
images/fcloud_D1.6_3.tif,1.6,0,,,,,0,84,84,26,,,,,,,,,,,,,,,,,,,3,space,4.72416623958,3,1.635,,,,,,,,,,,,,,,,,,2019_Jan_29_1744,60.29884196041611,Cloud_Experiment_FR_REAL,001,13,
images/fcloud80-20_D1.7_2.tif,1.7,2,,,,,0,85,85,100,,,,,,,,,,,,,,,,,,,None,None,,None,11.36,,,,,,,,,,,,,,,,,,2019_Jan_29_1744,60.29884196041611,Cloud_Experiment_FR_REAL,001,13,
images/fcloud_D1.9_3.tif,1.9,0,,,,,0,86,86,35,,,,,,,,,,,,,,,,,,,3,space,2.98190059903,2,1.766,,,,,,,,,,,,,,,,,,2019_Jan_29_1744,60.29884196041611,Cloud_Experiment_FR_REAL,001,13,
images/fcloud_D1.7_1.tif,1.7,0,,,,,0,87,87,27,,,,,,,,,,,,,,,,,,,2,space,2.32520473568,3,2.002,,,,,,,,,,,,,,,,,,2019_Jan_29_1744,60.29884196041611,Cloud_Experiment_FR_REAL,001,13,
images/fcloud65-35_D0.8_2.tif,0.8,1,,,,,0,88,88,37,,,,,,,,,,,,,,,,,,,1,space,4.78812201429,3,1.585,,,,,,,,,,,,,,,,,,2019_Jan_29_1744,60.29884196041611,Cloud_Experiment_FR_REAL,001,13,
images/fcloud_D1.2_1.tif,1.2,0,,,,,0,89,89,12,,,,,,,,,,,,,,,,,,,None,None,,None,11.209,,,,,,,,,,,,,,,,,,2019_Jan_29_1744,60.29884196041611,Cloud_Experiment_FR_REAL,001,13,
images/fcloud65-35_D1_3.tif,1.0,1,,,,,0,90,90,44,,,,,,,,,,,,,,,,,,,1,space,3.14160908811,4,1.568,,,,,,,,,,,,,,,,,,2019_Jan_29_1744,60.29884196041611,Cloud_Experiment_FR_REAL,001,13,
images/fcloud_D0.9_2.tif,0.9,0,,,,,0,91,91,4,,,,,,,,,,,,,,,,,,,1,space,5.67303976274,2,0.985,,,,,,,,,,,,,,,,,,2019_Jan_29_1744,60.29884196041611,Cloud_Experiment_FR_REAL,001,13,
images/fcloud_D0.8_1.tif,0.8,0,,,,,0,92,92,0,,,,,,,,,,,,,,,,,,,1,space,5.58525183352,3,3.417,,,,,,,,,,,,,,,,,,2019_Jan_29_1744,60.29884196041611,Cloud_Experiment_FR_REAL,001,13,
images/fcloud65-35_D1.7_2.tif,1.7,1,,,,,0,93,93,64,,,,,,,,,,,,,,,,,,,1,space,3.55123005912,4,4.166,,,,,,,,,,,,,,,,,,2019_Jan_29_1744,60.29884196041611,Cloud_Experiment_FR_REAL,001,13,
images/fcloud_D1.2_2.tif,1.2,0,,,,,0,94,94,13,,,,,,,,,,,,,,,,,,,1,space,2.54983542496,4,3.933,,,,,,,,,,,,,,,,,,2019_Jan_29_1744,60.29884196041611,Cloud_Experiment_FR_REAL,001,13,
images/fcloud_D1_2.tif,1.0,0,,,,,0,95,95,7,,,,,,,,,,,,,,,,,,,1,space,3.15137872417,3,3.284,,,,,,,,,,,,,,,,,,2019_Jan_29_1744,60.29884196041611,Cloud_Experiment_FR_REAL,001,13,
images/fcloud_D1.7_2.tif,1.7,0,,,,,0,96,96,28,,,,,,,,,,,,,,,,,,,1,space,2.30828046697,3,1.519,,,,,,,,,,,,,,,,,,2019_Jan_29_1744,60.29884196041611,Cloud_Experiment_FR_REAL,001,13,
images/fcloud_D1.3_1.tif,1.3,0,,,,,0,97,97,15,,,,,,,,,,,,,,,,,,,1,space,6.60953687146,2,2.069,,,,,,,,,,,,,,,,,,2019_Jan_29_1744,60.29884196041611,Cloud_Experiment_FR_REAL,001,13,
images/fcloud65-35_D1.4_1.tif,1.4,1,,,,,0,98,98,54,,,,,,,,,,,,,,,,,,,1,space,3.82188521847,3,1.071,,,,,,,,,,,,,,,,,,2019_Jan_29_1744,60.29884196041611,Cloud_Experiment_FR_REAL,001,13,
images/fcloud65-35_D0.9_2.tif,0.9,1,,,,,0,99,99,40,,,,,,,,,,,,,,,,,,,1,None,,2,2.085,,,,,,,,,,,,,,,,,,2019_Jan_29_1744,60.29884196041611,Cloud_Experiment_FR_REAL,001,13,
images/fcloud_D1_1.tif,1.0,0,,,,,0,100,100,6,,,,,,,,,,,,,,,,,,,1,space,2.29492323342,3,1.319,,,,,,,,,,,,,,,,,,2019_Jan_29_1744,60.29884196041611,Cloud_Experiment_FR_REAL,001,13,
images/fcloud_D1.5_1.tif,1.5,0,,,,,0,101,101,21,,,,,,,,,,,,,,,,,,,None,None,,None,12.174,,,,,,,,,,,,,,,,,,2019_Jan_29_1744,60.29884196041611,Cloud_Experiment_FR_REAL,001,13,
images/fcloud80-20_D1.1_1.tif,1.1,2,,,,,0,102,102,81,,,,,,,,,,,,,,,,,,,2,space,2.0014213651,3,2.866,,,,,,,,,,,,,,,,,,2019_Jan_29_1744,60.29884196041611,Cloud_Experiment_FR_REAL,001,13,
images/fcloud80-20_D1.9_1.tif,1.9,2,,,,,0,103,103,105,,,,,,,,,,,,,,,,,,,1,space,4.24937889172,3,1.036,,,,,,,,,,,,,,,,,,2019_Jan_29_1744,60.29884196041611,Cloud_Experiment_FR_REAL,001,13,
images/fcloud_D1.9_1.tif,1.9,0,,,,,0,104,104,33,,,,,,,,,,,,,,,,,,,1,space,3.37070178424,3,1.452,,,,,,,,,,,,,,,,,,2019_Jan_29_1744,60.29884196041611,Cloud_Experiment_FR_REAL,001,13,
images/fcloud80-20_D1.6_1.tif,1.6,2,,,,,0,105,105,96,,,,,,,,,,,,,,,,,,,1,space,3.18487359103,2,1.618,,,,,,,,,,,,,,,,,,2019_Jan_29_1744,60.29884196041611,Cloud_Experiment_FR_REAL,001,13,
images/fcloud65-35_D1.9_3.tif,1.9,1,,,,,0,106,106,71,,,,,,,,,,,,,,,,,,,1,space,3.16855025385,3,3.284,,,,,,,,,,,,,,,,,,2019_Jan_29_1744,60.29884196041611,Cloud_Experiment_FR_REAL,001,13,
images/fcloud65-35_D1.5_2.tif,1.5,1,,,,,0,107,107,58,,,,,,,,,,,,,,,,,,,1,space,5.84687811165,2,1.836,,,,,,,,,,,,,,,,,,2019_Jan_29_1744,60.29884196041611,Cloud_Experiment_FR_REAL,001,13,
,,,,,,,,,,,,,,,,,,,,,,,,,,,,,,,,,,,,,,,,,,,,,,space,2.79964972218,,,,2019_Jan_29_1744,60.29884196041611,Cloud_Experiment_FR_REAL,001,13,
,,,,,,,,,,,,,,,,,,,,,,,,,3,11.801,,,,,,,,,,,,,,,,,,,,,,,,,2019_Jan_29_1744,60.29884196041611,Cloud_Experiment_FR_REAL,001,13,
,,,,,,,,,,,,,,,,,,,,,,,,,,,,,,,,,,7,,,,,,,,,,,,,,,,,2019_Jan_29_1744,60.29884196041611,Cloud_Experiment_FR_REAL,001,13,
,,,,,,,,,,,,,,,,,,,,,,,,,,,,,,,,,,,3,,,,,,,,,,,,,,,,2019_Jan_29_1744,60.29884196041611,Cloud_Experiment_FR_REAL,001,13,
,,,,,,,,,,,,,,,,,,,,,,,,,,,,,,,,,,,,7,,,,,,,,,,,,,,,2019_Jan_29_1744,60.29884196041611,Cloud_Experiment_FR_REAL,001,13,
,,,,,,,,,,,,,,,,,,,,,,,,,,,,,,,,,,,,,3,,,,,,,,,,,,,,2019_Jan_29_1744,60.29884196041611,Cloud_Experiment_FR_REAL,001,13,
,,,,,,,,,,,,,,,,,,,,,,,,,,,,,,,,,,,,,,7,,,,,,,,,,,,,2019_Jan_29_1744,60.29884196041611,Cloud_Experiment_FR_REAL,001,13,
,,,,,,,,,,,,,,,,,,,,,,,,,,,,,,,,,,,,,,,4,,,,,,,,,,,,2019_Jan_29_1744,60.29884196041611,Cloud_Experiment_FR_REAL,001,13,
,,,,,,,,,,,,,,,,,,,,,,,,,,,,,,,,,,,,,,,,7,,,,,,,,,,,2019_Jan_29_1744,60.29884196041611,Cloud_Experiment_FR_REAL,001,13,
,,,,,,,,,,,,,,,,,,,,,,,,,,,,,,,,,,,,,,,,,7,,,,,,,,,,2019_Jan_29_1744,60.29884196041611,Cloud_Experiment_FR_REAL,001,13,
,,,,,,,,,,,,,,,,,,,,,,,,,,,,,,,,,,,,,,,,,,5,,,,,,,,,2019_Jan_29_1744,60.29884196041611,Cloud_Experiment_FR_REAL,001,13,
,,,,,,,,,,,,,,,,,,,,,,,,,,,,,,,,,,,,,,,,,,,3,,,,,,,,2019_Jan_29_1744,60.29884196041611,Cloud_Experiment_FR_REAL,001,13,
,,,,,,,,,,,,,,,,,,,,,,,,,,,,,,,,,,,,,,,,,,,,,,,,space,187.039165934,,2019_Jan_29_1744,60.29884196041611,Cloud_Experiment_FR_REAL,001,13,
images/fcloud_D1.1_6.tif,1.1,0,,,,,,,,,0,0,0,11,,,,,,,,,,,,,,,None,None,,None,288.7,,,,,,,,,,,,,,,,,,2019_Jan_29_1744,60.29884196041611,Cloud_Experiment_FR_REAL,001,13,
images/fcloud65-35_D1.9_6.tif,1.9,1,,,,,,,,,0,1,1,71,,,,,,,,,,,,,,,1,space,6.55723526241,2,1.886,,,,,,,,,,,,,,,,,,2019_Jan_29_1744,60.29884196041611,Cloud_Experiment_FR_REAL,001,13,
images/fcloud_D1.5_6.tif,1.5,0,,,,,,,,,0,2,2,23,,,,,,,,,,,,,,,None,None,,None,11.044,,,,,,,,,,,,,,,,,,2019_Jan_29_1744,60.29884196041611,Cloud_Experiment_FR_REAL,001,13,
images/fcloud_D1.5_4.tif,1.5,0,,,,,,,,,0,3,3,21,,,,,,,,,,,,,,,2,space,5.1782556329,3,1.301,,,,,,,,,,,,,,,,,,2019_Jan_29_1744,60.29884196041611,Cloud_Experiment_FR_REAL,001,13,
images/fcloud_D1.9_5.tif,1.9,0,,,,,,,,,0,4,4,34,,,,,,,,,,,,,,,1,space,2.78291565421,4,1.57,,,,,,,,,,,,,,,,,,2019_Jan_29_1744,60.29884196041611,Cloud_Experiment_FR_REAL,001,13,
images/fcloud_D1.3_5.tif,1.3,0,,,,,,,,,0,5,5,16,,,,,,,,,,,,,,,1,None,,2,1.184,,,,,,,,,,,,,,,,,,2019_Jan_29_1744,60.29884196041611,Cloud_Experiment_FR_REAL,001,13,
images/fcloud80-20_D1.6_6.tif,1.6,2,,,,,,,,,0,6,6,98,,,,,,,,,,,,,,,1,space,1.81639715564,2,0.969,,,,,,,,,,,,,,,,,,2019_Jan_29_1744,60.29884196041611,Cloud_Experiment_FR_REAL,001,13,
images/fcloud65-35_D1.7_6.tif,1.7,1,,,,,,,,,0,7,7,65,,,,,,,,,,,,,,,2,space,3.56096782367,3,1.885,,,,,,,,,,,,,,,,,,2019_Jan_29_1744,60.29884196041611,Cloud_Experiment_FR_REAL,001,13,
images/fcloud80-20_D1.7_5.tif,1.7,2,,,,,,,,,0,8,8,100,,,,,,,,,,,,,,,1,space,1.90006646744,1,4.2,,,,,,,,,,,,,,,,,,2019_Jan_29_1744,60.29884196041611,Cloud_Experiment_FR_REAL,001,13,
images/fcloud_D1.7_6.tif,1.7,0,,,,,,,,,0,9,9,29,,,,,,,,,,,,,,,None,None,,None,15.221,,,,,,,,,,,,,,,,,,2019_Jan_29_1744,60.29884196041611,Cloud_Experiment_FR_REAL,001,13,
images/fcloud_D1.2_6.tif,1.2,0,,,,,,,,,0,10,10,14,,,,,,,,,,,,,,,None,None,,None,24.797,,,,,,,,,,,,,,,,,,2019_Jan_29_1744,60.29884196041611,Cloud_Experiment_FR_REAL,001,13,
images/fcloud65-35_D0.8_4.tif,0.8,1,,,,,,,,,0,11,11,36,,,,,,,,,,,,,,,None,None,,None,54.72,,,,,,,,,,,,,,,,,,2019_Jan_29_1744,60.29884196041611,Cloud_Experiment_FR_REAL,001,13,
images/fcloud80-20_D1.2_4.tif,1.2,2,,,,,,,,,0,12,12,84,,,,,,,,,,,,,,,None,None,,None,63.245,,,,,,,,,,,,,,,,,,2019_Jan_29_1744,60.29884196041611,Cloud_Experiment_FR_REAL,001,13,
images/fcloud_D0.8_5.tif,0.8,0,,,,,,,,,0,13,13,1,,,,,,,,,,,,,,,None,None,,None,72.072,,,,,,,,,,,,,,,,,,2019_Jan_29_1744,60.29884196041611,Cloud_Experiment_FR_REAL,001,13,
images/fcloud65-35_D1.6_6.tif,1.6,1,,,,,,,,,0,14,14,62,,,,,,,,,,,,,,,1,space,2.72128649734,2,0.835,,,,,,,,,,,,,,,,,,2019_Jan_29_1744,60.29884196041611,Cloud_Experiment_FR_REAL,001,13,
images/fcloud_D1.2_5.tif,1.2,0,,,,,,,,,0,15,15,13,,,,,,,,,,,,,,,1,space,3.28821428734,3,0.871,,,,,,,,,,,,,,,,,,2019_Jan_29_1744,60.29884196041611,Cloud_Experiment_FR_REAL,001,13,
images/fcloud65-35_D1.7_5.tif,1.7,1,,,,,,,,,0,16,16,64,,,,,,,,,,,,,,,1,space,4.81914786977,3,1.036,,,,,,,,,,,,,,,,,,2019_Jan_29_1744,60.29884196041611,Cloud_Experiment_FR_REAL,001,13,
images/fcloud80-20_D1.1_5.tif,1.1,2,,,,,,,,,0,17,17,82,,,,,,,,,,,,,,,3,space,2.01454881552,4,1.685,,,,,,,,,,,,,,,,,,2019_Jan_29_1744,60.29884196041611,Cloud_Experiment_FR_REAL,001,13,
images/fcloud_D0.9_6.tif,0.9,0,,,,,,,,,0,18,18,5,,,,,,,,,,,,,,,1,space,3.1483889739,3,1.884,,,,,,,,,,,,,,,,,,2019_Jan_29_1744,60.29884196041611,Cloud_Experiment_FR_REAL,001,13,
images/fcloud65-35_D1.6_5.tif,1.6,1,,,,,,,,,0,19,19,61,,,,,,,,,,,,,,,3,space,4.26487048613,3,1.385,,,,,,,,,,,,,,,,,,2019_Jan_29_1744,60.29884196041611,Cloud_Experiment_FR_REAL,001,13,
images/fcloud_D1.6_5.tif,1.6,0,,,,,,,,,0,20,20,25,,,,,,,,,,,,,,,1,None,,3,1.602,,,,,,,,,,,,,,,,,,2019_Jan_29_1744,60.29884196041611,Cloud_Experiment_FR_REAL,001,13,
images/fcloud65-35_D1.5_5.tif,1.5,1,,,,,,,,,0,21,21,58,,,,,,,,,,,,,,,1,space,6.84615843312,3,2.003,,,,,,,,,,,,,,,,,,2019_Jan_29_1744,60.29884196041611,Cloud_Experiment_FR_REAL,001,13,
images/fcloud_D0.8_6.tif,0.8,0,,,,,,,,,0,22,22,2,,,,,,,,,,,,,,,1,space,5.2183535503,3,1.833,,,,,,,,,,,,,,,,,,2019_Jan_29_1744,60.29884196041611,Cloud_Experiment_FR_REAL,001,13,
images/fcloud80-20_D0.8_4.tif,0.8,2,,,,,,,,,0,23,23,72,,,,,,,,,,,,,,,1,space,7.03623889832,1,0.936,,,,,,,,,,,,,,,,,,2019_Jan_29_1744,60.29884196041611,Cloud_Experiment_FR_REAL,001,13,
images/fcloud65-35_D1.1_5.tif,1.1,1,,,,,,,,,0,24,24,46,,,,,,,,,,,,,,,2,space,2.43637759064,2,1.07,,,,,,,,,,,,,,,,,,2019_Jan_29_1744,60.29884196041611,Cloud_Experiment_FR_REAL,001,13,
images/fcloud80-20_D1.4_5.tif,1.4,2,,,,,,,,,0,25,25,91,,,,,,,,,,,,,,,1,space,2.03251610408,2,1.036,,,,,,,,,,,,,,,,,,2019_Jan_29_1744,60.29884196041611,Cloud_Experiment_FR_REAL,001,13,
images/fcloud80-20_D1.8_6.tif,1.8,2,,,,,,,,,0,26,26,104,,,,,,,,,,,,,,,None,None,,None,11.742,,,,,,,,,,,,,,,,,,2019_Jan_29_1744,60.29884196041611,Cloud_Experiment_FR_REAL,001,13,
images/fcloud_D1.8_5.tif,1.8,0,,,,,,,,,0,27,27,31,,,,,,,,,,,,,,,None,None,,None,21.303,,,,,,,,,,,,,,,,,,2019_Jan_29_1744,60.29884196041611,Cloud_Experiment_FR_REAL,001,13,
images/fcloud80-20_D0.8_5.tif,0.8,2,,,,,,,,,0,28,28,73,,,,,,,,,,,,,,,None,None,,None,30.693,,,,,,,,,,,,,,,,,,2019_Jan_29_1744,60.29884196041611,Cloud_Experiment_FR_REAL,001,13,
images/fcloud80-20_D0.9_5.tif,0.9,2,,,,,,,,,0,29,29,76,,,,,,,,,,,,,,,1,space,2.88785403688,3,2.068,,,,,,,,,,,,,,,,,,2019_Jan_29_1744,60.29884196041611,Cloud_Experiment_FR_REAL,001,13,
images/fcloud_D1.4_4.tif,1.4,0,,,,,,,,,0,30,30,18,,,,,,,,,,,,,,,3,space,1.4540734576,3,1.036,,,,,,,,,,,,,,,,,,2019_Jan_29_1744,60.29884196041611,Cloud_Experiment_FR_REAL,001,13,
images/fcloud_D1.7_4.tif,1.7,0,,,,,,,,,0,31,31,27,,,,,,,,,,,,,,,2,space,2.60118243183,1,1.702,,,,,,,,,,,,,,,,,,2019_Jan_29_1744,60.29884196041611,Cloud_Experiment_FR_REAL,001,13,
images/fcloud80-20_D1_4.tif,1.0,2,,,,,,,,,0,32,32,78,,,,,,,,,,,,,,,None,None,,None,11.093,,,,,,,,,,,,,,,,,,2019_Jan_29_1744,60.29884196041611,Cloud_Experiment_FR_REAL,001,13,
images/fcloud_D1.9_6.tif,1.9,0,,,,,,,,,0,33,33,35,,,,,,,,,,,,,,,None,None,,None,20.368,,,,,,,,,,,,,,,,,,2019_Jan_29_1744,60.29884196041611,Cloud_Experiment_FR_REAL,001,13,
images/fcloud_D1.1_4.tif,1.1,0,,,,,,,,,0,34,34,9,,,,,,,,,,,,,,,2,space,2.98889587435,3,1.32,,,,,,,,,,,,,,,,,,2019_Jan_29_1744,60.29884196041611,Cloud_Experiment_FR_REAL,001,13,
images/fcloud65-35_D1.2_5.tif,1.2,1,,,,,,,,,0,35,35,49,,,,,,,,,,,,,,,1,space,4.24852401644,2,0.803,,,,,,,,,,,,,,,,,,2019_Jan_29_1744,60.29884196041611,Cloud_Experiment_FR_REAL,001,13,
images/fcloud65-35_D1.4_4.tif,1.4,1,,,,,,,,,0,36,36,54,,,,,,,,,,,,,,,1,space,1.98333430148,3,3.282,,,,,,,,,,,,,,,,,,2019_Jan_29_1744,60.29884196041611,Cloud_Experiment_FR_REAL,001,13,
images/fcloud_D1.5_5.tif,1.5,0,,,,,,,,,0,37,37,22,,,,,,,,,,,,,,,1,space,4.26583434132,1,1.352,,,,,,,,,,,,,,,,,,2019_Jan_29_1744,60.29884196041611,Cloud_Experiment_FR_REAL,001,13,
images/fcloud65-35_D1.4_6.tif,1.4,1,,,,,,,,,0,38,38,56,,,,,,,,,,,,,,,2,space,2.21256373654,3,1.153,,,,,,,,,,,,,,,,,,2019_Jan_29_1744,60.29884196041611,Cloud_Experiment_FR_REAL,001,13,
images/fcloud_D1_4.tif,1.0,0,,,,,,,,,0,39,39,6,,,,,,,,,,,,,,,2,space,4.34389118871,3,2.768,,,,,,,,,,,,,,,,,,2019_Jan_29_1744,60.29884196041611,Cloud_Experiment_FR_REAL,001,13,
images/fcloud65-35_D1_5.tif,1.0,1,,,,,,,,,0,40,40,43,,,,,,,,,,,,,,,1,space,2.6140471996,2,3.351,,,,,,,,,,,,,,,,,,2019_Jan_29_1744,60.29884196041611,Cloud_Experiment_FR_REAL,001,13,
images/fcloud_D1_5.tif,1.0,0,,,,,,,,,0,41,41,7,,,,,,,,,,,,,,,2,space,3.26048147524,2,1.302,,,,,,,,,,,,,,,,,,2019_Jan_29_1744,60.29884196041611,Cloud_Experiment_FR_REAL,001,13,
images/fcloud65-35_D1.9_5.tif,1.9,1,,,,,,,,,0,42,42,70,,,,,,,,,,,,,,,2,space,3.49261789746,3,1.635,,,,,,,,,,,,,,,,,,2019_Jan_29_1744,60.29884196041611,Cloud_Experiment_FR_REAL,001,13,
images/fcloud80-20_D1.3_6.tif,1.3,2,,,,,,,,,0,43,43,89,,,,,,,,,,,,,,,2,space,1.71019470904,2,1.967,,,,,,,,,,,,,,,,,,2019_Jan_29_1744,60.29884196041611,Cloud_Experiment_FR_REAL,001,13,
images/fcloud65-35_D1.5_6.tif,1.5,1,,,,,,,,,0,44,44,59,,,,,,,,,,,,,,,1,space,4.76097471203,2,1.551,,,,,,,,,,,,,,,,,,2019_Jan_29_1744,60.29884196041611,Cloud_Experiment_FR_REAL,001,13,
images/fcloud80-20_D1.9_6.tif,1.9,2,,,,,,,,,0,45,45,107,,,,,,,,,,,,,,,1,space,2.56997665673,1,0.786,,,,,,,,,,,,,,,,,,2019_Jan_29_1744,60.29884196041611,Cloud_Experiment_FR_REAL,001,13,
images/fcloud65-35_D1.3_6.tif,1.3,1,,,,,,,,,0,46,46,53,,,,,,,,,,,,,,,2,space,4.99707553489,3,1.219,,,,,,,,,,,,,,,,,,2019_Jan_29_1744,60.29884196041611,Cloud_Experiment_FR_REAL,001,13,
images/fcloud65-35_D1.1_6.tif,1.1,1,,,,,,,,,0,47,47,47,,,,,,,,,,,,,,,1,space,6.98197976369,2,1.202,,,,,,,,,,,,,,,,,,2019_Jan_29_1744,60.29884196041611,Cloud_Experiment_FR_REAL,001,13,
images/fcloud65-35_D1_6.tif,1.0,1,,,,,,,,,0,48,48,44,,,,,,,,,,,,,,,1,space,5.13460455977,2,0.869,,,,,,,,,,,,,,,,,,2019_Jan_29_1744,60.29884196041611,Cloud_Experiment_FR_REAL,001,13,
images/fcloud_D1.1_5.tif,1.1,0,,,,,,,,,0,49,49,10,,,,,,,,,,,,,,,1,space,4.18336329423,3,1.619,,,,,,,,,,,,,,,,,,2019_Jan_29_1744,60.29884196041611,Cloud_Experiment_FR_REAL,001,13,
images/fcloud80-20_D1.8_4.tif,1.8,2,,,,,,,,,0,50,50,102,,,,,,,,,,,,,,,1,space,6.1392978919,3,1.318,,,,,,,,,,,,,,,,,,2019_Jan_29_1744,60.29884196041611,Cloud_Experiment_FR_REAL,001,13,
images/fcloud65-35_D1.9_4.tif,1.9,1,,,,,,,,,0,51,51,69,,,,,,,,,,,,,,,2,space,1.7597995798,1,2.717,,,,,,,,,,,,,,,,,,2019_Jan_29_1744,60.29884196041611,Cloud_Experiment_FR_REAL,001,13,
images/fcloud80-20_D1.1_4.tif,1.1,2,,,,,,,,,0,52,52,81,,,,,,,,,,,,,,,2,None,,2,1.45,,,,,,,,,,,,,,,,,,2019_Jan_29_1744,60.29884196041611,Cloud_Experiment_FR_REAL,001,13,
images/fcloud_D0.8_4.tif,0.8,0,,,,,,,,,0,53,53,0,,,,,,,,,,,,,,,2,space,3.65210482836,3,1.1,,,,,,,,,,,,,,,,,,2019_Jan_29_1744,60.29884196041611,Cloud_Experiment_FR_REAL,001,13,
images/fcloud_D1.8_4.tif,1.8,0,,,,,,,,,0,54,54,30,,,,,,,,,,,,,,,None,None,,None,10.277,,,,,,,,,,,,,,,,,,2019_Jan_29_1744,60.29884196041611,Cloud_Experiment_FR_REAL,001,13,
images/fcloud80-20_D1.3_5.tif,1.3,2,,,,,,,,,0,55,55,88,,,,,,,,,,,,,,,None,None,,None,20.1,,,,,,,,,,,,,,,,,,2019_Jan_29_1744,60.29884196041611,Cloud_Experiment_FR_REAL,001,13,
images/fcloud_D1.6_4.tif,1.6,0,,,,,,,,,0,56,56,24,,,,,,,,,,,,,,,None,None,,None,29.158,,,,,,,,,,,,,,,,,,2019_Jan_29_1744,60.29884196041611,Cloud_Experiment_FR_REAL,001,13,
images/fcloud65-35_D1.5_4.tif,1.5,1,,,,,,,,,0,57,57,57,,,,,,,,,,,,,,,2,space,2.71602461918,1,0.952,,,,,,,,,,,,,,,,,,2019_Jan_29_1744,60.29884196041611,Cloud_Experiment_FR_REAL,001,13,
images/fcloud80-20_D1.1_6.tif,1.1,2,,,,,,,,,0,58,58,83,,,,,,,,,,,,,,,1,space,2.58552222702,1,0.836,,,,,,,,,,,,,,,,,,2019_Jan_29_1744,60.29884196041611,Cloud_Experiment_FR_REAL,001,13,
images/fcloud65-35_D1.3_5.tif,1.3,1,,,,,,,,,0,59,59,52,,,,,,,,,,,,,,,2,space,2.92263198778,3,1.734,,,,,,,,,,,,,,,,,,2019_Jan_29_1744,60.29884196041611,Cloud_Experiment_FR_REAL,001,13,
images/fcloud_D1.4_5.tif,1.4,0,,,,,,,,,0,60,60,19,,,,,,,,,,,,,,,4,space,3.67618989848,2,2.002,,,,,,,,,,,,,,,,,,2019_Jan_29_1744,60.29884196041611,Cloud_Experiment_FR_REAL,001,13,
images/fcloud65-35_D1.7_4.tif,1.7,1,,,,,,,,,0,61,61,63,,,,,,,,,,,,,,,2,space,3.09166082783,2,3.799,,,,,,,,,,,,,,,,,,2019_Jan_29_1744,60.29884196041611,Cloud_Experiment_FR_REAL,001,13,
images/fcloud_D0.9_5.tif,0.9,0,,,,,,,,,0,62,62,4,,,,,,,,,,,,,,,None,None,,None,13.49,,,,,,,,,,,,,,,,,,2019_Jan_29_1744,60.29884196041611,Cloud_Experiment_FR_REAL,001,13,
images/fcloud65-35_D0.9_5.tif,0.9,1,,,,,,,,,0,63,63,40,,,,,,,,,,,,,,,1,space,6.1586896299,3,1.285,,,,,,,,,,,,,,,,,,2019_Jan_29_1744,60.29884196041611,Cloud_Experiment_FR_REAL,001,13,
images/fcloud80-20_D1.5_6.tif,1.5,2,,,,,,,,,0,64,64,95,,,,,,,,,,,,,,,1,None,,2,1.187,,,,,,,,,,,,,,,,,,2019_Jan_29_1744,60.29884196041611,Cloud_Experiment_FR_REAL,001,13,
images/fcloud80-20_D1.6_4.tif,1.6,2,,,,,,,,,0,65,65,96,,,,,,,,,,,,,,,2,space,2.83515866083,2,0.969,,,,,,,,,,,,,,,,,,2019_Jan_29_1744,60.29884196041611,Cloud_Experiment_FR_REAL,001,13,
images/fcloud80-20_D1.2_5.tif,1.2,2,,,,,,,,,0,66,66,85,,,,,,,,,,,,,,,2,space,2.9723062561,2,2.851,,,,,,,,,,,,,,,,,,2019_Jan_29_1744,60.29884196041611,Cloud_Experiment_FR_REAL,001,13,
images/fcloud65-35_D1.2_6.tif,1.2,1,,,,,,,,,0,67,67,50,,,,,,,,,,,,,,,2,space,2.79048667234,2,3.167,,,,,,,,,,,,,,,,,,2019_Jan_29_1744,60.29884196041611,Cloud_Experiment_FR_REAL,001,13,
images/fcloud_D1.4_6.tif,1.4,0,,,,,,,,,0,68,68,20,,,,,,,,,,,,,,,2,space,2.36451049265,4,3.45,,,,,,,,,,,,,,,,,,2019_Jan_29_1744,60.29884196041611,Cloud_Experiment_FR_REAL,001,13,
images/fcloud65-35_D1.6_4.tif,1.6,1,,,,,,,,,0,69,69,60,,,,,,,,,,,,,,,2,space,2.87578194356,3,1.135,,,,,,,,,,,,,,,,,,2019_Jan_29_1744,60.29884196041611,Cloud_Experiment_FR_REAL,001,13,
images/fcloud80-20_D1.5_5.tif,1.5,2,,,,,,,,,0,70,70,94,,,,,,,,,,,,,,,1,None,,1,2.967,,,,,,,,,,,,,,,,,,2019_Jan_29_1744,60.29884196041611,Cloud_Experiment_FR_REAL,001,13,
images/fcloud_D1.2_4.tif,1.2,0,,,,,,,,,0,71,71,12,,,,,,,,,,,,,,,1,None,,3,1.585,,,,,,,,,,,,,,,,,,2019_Jan_29_1744,60.29884196041611,Cloud_Experiment_FR_REAL,001,13,
images/fcloud65-35_D1.2_4.tif,1.2,1,,,,,,,,,0,72,72,48,,,,,,,,,,,,,,,1,space,2.43743500402,2,1.9,,,,,,,,,,,,,,,,,,2019_Jan_29_1744,60.29884196041611,Cloud_Experiment_FR_REAL,001,13,
images/fcloud80-20_D1.7_4.tif,1.7,2,,,,,,,,,0,73,73,99,,,,,,,,,,,,,,,2,space,1.80744435472,3,0.752,,,,,,,,,,,,,,,,,,2019_Jan_29_1744,60.29884196041611,Cloud_Experiment_FR_REAL,001,13,
images/fcloud80-20_D1.2_6.tif,1.2,2,,,,,,,,,0,74,74,86,,,,,,,,,,,,,,,1,space,3.27736359136,2,1.451,,,,,,,,,,,,,,,,,,2019_Jan_29_1744,60.29884196041611,Cloud_Experiment_FR_REAL,001,13,
images/fcloud65-35_D0.8_5.tif,0.8,1,,,,,,,,,0,75,75,37,,,,,,,,,,,,,,,None,None,,None,10.793,,,,,,,,,,,,,,,,,,2019_Jan_29_1744,60.29884196041611,Cloud_Experiment_FR_REAL,001,13,
images/fcloud80-20_D1.6_5.tif,1.6,2,,,,,,,,,0,76,76,97,,,,,,,,,,,,,,,1,space,6.15863051344,3,5.881,,,,,,,,,,,,,,,,,,2019_Jan_29_1744,60.29884196041611,Cloud_Experiment_FR_REAL,001,13,
images/fcloud_D1.7_5.tif,1.7,0,,,,,,,,,0,77,77,28,,,,,,,,,,,,,,,1,space,4.36417995457,1,14.29,,,,,,,,,,,,,,,,,,2019_Jan_29_1744,60.29884196041611,Cloud_Experiment_FR_REAL,001,13,
images/fcloud80-20_D1.9_5.tif,1.9,2,,,,,,,,,0,78,78,106,,,,,,,,,,,,,,,1,space,5.24734374366,1,0.454,,,,,,,,,,,,,,,,,,2019_Jan_29_1744,60.29884196041611,Cloud_Experiment_FR_REAL,001,13,
images/fcloud_D1.9_4.tif,1.9,0,,,,,,,,,0,79,79,33,,,,,,,,,,,,,,,2,space,3.10266265634,1,1.069,,,,,,,,,,,,,,,,,,2019_Jan_29_1744,60.29884196041611,Cloud_Experiment_FR_REAL,001,13,
images/fcloud65-35_D1.8_4.tif,1.8,1,,,,,,,,,0,80,80,66,,,,,,,,,,,,,,,1,space,5.23404922499,2,1.185,,,,,,,,,,,,,,,,,,2019_Jan_29_1744,60.29884196041611,Cloud_Experiment_FR_REAL,001,13,
images/fcloud65-35_D0.8_6.tif,0.8,1,,,,,,,,,0,81,81,38,,,,,,,,,,,,,,,1,space,2.44616367648,2,1.285,,,,,,,,,,,,,,,,,,2019_Jan_29_1744,60.29884196041611,Cloud_Experiment_FR_REAL,001,13,
images/fcloud65-35_D1.4_5.tif,1.4,1,,,,,,,,,0,82,82,55,,,,,,,,,,,,,,,1,space,2.60397324237,2,1.37,,,,,,,,,,,,,,,,,,2019_Jan_29_1744,60.29884196041611,Cloud_Experiment_FR_REAL,001,13,
images/fcloud80-20_D1.9_4.tif,1.9,2,,,,,,,,,0,83,83,105,,,,,,,,,,,,,,,2,None,,None,None,,,,,,,,,,,,,,,,,,2019_Jan_29_1744,60.29884196041611,Cloud_Experiment_FR_REAL,001,13,
images/fcloud80-20_D1.3_4.tif,1.3,2,,,,,,,,,0,84,84,87,,,,,,,,,,,,,,,None,None,,None,19.72,,,,,,,,,,,,,,,,,,2019_Jan_29_1744,60.29884196041611,Cloud_Experiment_FR_REAL,001,13,
images/fcloud80-20_D1_6.tif,1.0,2,,,,,,,,,0,85,85,80,,,,,,,,,,,,,,,None,None,,None,32.973,,,,,,,,,,,,,,,,,,2019_Jan_29_1744,60.29884196041611,Cloud_Experiment_FR_REAL,001,13,
images/fcloud_D1.8_6.tif,1.8,0,,,,,,,,,0,86,86,32,,,,,,,,,,,,,,,2,space,1.22197044897,3,1.319,,,,,,,,,,,,,,,,,,2019_Jan_29_1744,60.29884196041611,Cloud_Experiment_FR_REAL,001,13,
images/fcloud65-35_D0.9_4.tif,0.9,1,,,,,,,,,0,87,87,39,,,,,,,,,,,,,,,None,None,,None,10.693,,,,,,,,,,,,,,,,,,2019_Jan_29_1744,60.29884196041611,Cloud_Experiment_FR_REAL,001,13,
images/fcloud_D0.9_4.tif,0.9,0,,,,,,,,,0,88,88,3,,,,,,,,,,,,,,,None,None,,None,20.349,,,,,,,,,,,,,,,,,,2019_Jan_29_1744,60.29884196041611,Cloud_Experiment_FR_REAL,001,13,
images/fcloud_D1_6.tif,1.0,0,,,,,,,,,0,89,89,8,,,,,,,,,,,,,,,2,space,3.55861858733,3,0.736,,,,,,,,,,,,,,,,,,2019_Jan_29_1744,60.29884196041611,Cloud_Experiment_FR_REAL,001,13,
images/fcloud80-20_D0.9_6.tif,0.9,2,,,,,,,,,0,90,90,77,,,,,,,,,,,,,,,1,space,6.14315896723,2,0.569,,,,,,,,,,,,,,,,,,2019_Jan_29_1744,60.29884196041611,Cloud_Experiment_FR_REAL,001,13,
images/fcloud80-20_D0.9_4.tif,0.9,2,,,,,,,,,0,91,91,75,,,,,,,,,,,,,,,None,None,,None,12.691,,,,,,,,,,,,,,,,,,2019_Jan_29_1744,60.29884196041611,Cloud_Experiment_FR_REAL,001,13,
images/fcloud65-35_D0.9_6.tif,0.9,1,,,,,,,,,0,92,92,41,,,,,,,,,,,,,,,1,None,,2,1.202,,,,,,,,,,,,,,,,,,2019_Jan_29_1744,60.29884196041611,Cloud_Experiment_FR_REAL,001,13,
images/fcloud65-35_D1.8_5.tif,1.8,1,,,,,,,,,0,93,93,67,,,,,,,,,,,,,,,2,space,3.46516061941,2,1.219,,,,,,,,,,,,,,,,,,2019_Jan_29_1744,60.29884196041611,Cloud_Experiment_FR_REAL,001,13,
images/fcloud65-35_D1.1_4.tif,1.1,1,,,,,,,,,0,94,94,45,,,,,,,,,,,,,,,1,space,2.36419229192,3,0.602,,,,,,,,,,,,,,,,,,2019_Jan_29_1744,60.29884196041611,Cloud_Experiment_FR_REAL,001,13,
images/fcloud80-20_D1.5_4.tif,1.5,2,,,,,,,,,0,95,95,93,,,,,,,,,,,,,,,1,space,1.86612899828,2,1.219,,,,,,,,,,,,,,,,,,2019_Jan_29_1744,60.29884196041611,Cloud_Experiment_FR_REAL,001,13,
images/fcloud65-35_D1_4.tif,1.0,1,,,,,,,,,0,96,96,42,,,,,,,,,,,,,,,None,None,,None,10.046,,,,,,,,,,,,,,,,,,2019_Jan_29_1744,60.29884196041611,Cloud_Experiment_FR_REAL,001,13,
images/fcloud_D1.6_6.tif,1.6,0,,,,,,,,,0,97,97,26,,,,,,,,,,,,,,,None,None,,None,19.368,,,,,,,,,,,,,,,,,,2019_Jan_29_1744,60.29884196041611,Cloud_Experiment_FR_REAL,001,13,
images/fcloud_D1.3_4.tif,1.3,0,,,,,,,,,0,98,98,15,,,,,,,,,,,,,,,3,space,1.6206929168,3,1.319,,,,,,,,,,,,,,,,,,2019_Jan_29_1744,60.29884196041611,Cloud_Experiment_FR_REAL,001,13,
images/fcloud_D1.3_6.tif,1.3,0,,,,,,,,,0,99,99,17,,,,,,,,,,,,,,,2,space,1.57804373899,3,0.802,,,,,,,,,,,,,,,,,,2019_Jan_29_1744,60.29884196041611,Cloud_Experiment_FR_REAL,001,13,
images/fcloud80-20_D1_5.tif,1.0,2,,,,,,,,,0,100,100,79,,,,,,,,,,,,,,,None,None,,None,11.31,,,,,,,,,,,,,,,,,,2019_Jan_29_1744,60.29884196041611,Cloud_Experiment_FR_REAL,001,13,
images/fcloud80-20_D1.4_6.tif,1.4,2,,,,,,,,,0,101,101,92,,,,,,,,,,,,,,,1,space,1.99023550449,2,0.452,,,,,,,,,,,,,,,,,,2019_Jan_29_1744,60.29884196041611,Cloud_Experiment_FR_REAL,001,13,
images/fcloud80-20_D1.4_4.tif,1.4,2,,,,,,,,,0,102,102,90,,,,,,,,,,,,,,,1,None,,1,0.602,,,,,,,,,,,,,,,,,,2019_Jan_29_1744,60.29884196041611,Cloud_Experiment_FR_REAL,001,13,
images/fcloud80-20_D1.7_6.tif,1.7,2,,,,,,,,,0,103,103,101,,,,,,,,,,,,,,,2,space,3.82495002091,1,1.485,,,,,,,,,,,,,,,,,,2019_Jan_29_1744,60.29884196041611,Cloud_Experiment_FR_REAL,001,13,
images/fcloud65-35_D1.8_6.tif,1.8,1,,,,,,,,,0,104,104,68,,,,,,,,,,,,,,,1,space,5.23328379547,2,0.967,,,,,,,,,,,,,,,,,,2019_Jan_29_1744,60.29884196041611,Cloud_Experiment_FR_REAL,001,13,
images/fcloud80-20_D0.8_6.tif,0.8,2,,,,,,,,,0,105,105,74,,,,,,,,,,,,,,,1,None,,1,1.051,,,,,,,,,,,,,,,,,,2019_Jan_29_1744,60.29884196041611,Cloud_Experiment_FR_REAL,001,13,
images/fcloud65-35_D1.3_4.tif,1.3,1,,,,,,,,,0,106,106,51,,,,,,,,,,,,,,,2,space,2.03343934883,2,0.853,,,,,,,,,,,,,,,,,,2019_Jan_29_1744,60.29884196041611,Cloud_Experiment_FR_REAL,001,13,
images/fcloud80-20_D1.8_5.tif,1.8,2,,,,,,,,,0,107,107,103,,,,,,,,,,,,,,,1,space,5.03670720343,2,0.986,,,,,,,,,,,,,,,,,,2019_Jan_29_1744,60.29884196041611,Cloud_Experiment_FR_REAL,001,13,
,,,,,,,,,,,,,,,,,,,,,,,,,,,,,,,,,,,,,,,,,,,,,,space,4.13195305844,,,,2019_Jan_29_1744,60.29884196041611,Cloud_Experiment_FR_REAL,001,13,
,,,,,,,,,,,,,,,,,,,,,,,,,4,10.451,,,,,,,,,,,,,,,,,,,,,,,,,2019_Jan_29_1744,60.29884196041611,Cloud_Experiment_FR_REAL,001,13,
,,,,,,,,,,,,,,,,,,,,,,,,,,,,,,,,,,7,,,,,,,,,,,,,,,,,2019_Jan_29_1744,60.29884196041611,Cloud_Experiment_FR_REAL,001,13,
,,,,,,,,,,,,,,,,,,,,,,,,,,,,,,,,,,,5,,,,,,,,,,,,,,,,2019_Jan_29_1744,60.29884196041611,Cloud_Experiment_FR_REAL,001,13,
,,,,,,,,,,,,,,,,,,,,,,,,,,,,,,,,,,,,7,,,,,,,,,,,,,,,2019_Jan_29_1744,60.29884196041611,Cloud_Experiment_FR_REAL,001,13,
,,,,,,,,,,,,,,,,,,,,,,,,,,,,,,,,,,,,,1,,,,,,,,,,,,,,2019_Jan_29_1744,60.29884196041611,Cloud_Experiment_FR_REAL,001,13,
,,,,,,,,,,,,,,,,,,,,,,,,,,,,,,,,,,,,,,3,,,,,,,,,,,,,2019_Jan_29_1744,60.29884196041611,Cloud_Experiment_FR_REAL,001,13,
,,,,,,,,,,,,,,,,,,,,,,,,,,,,,,,,,,,,,,,5,,,,,,,,,,,,2019_Jan_29_1744,60.29884196041611,Cloud_Experiment_FR_REAL,001,13,
,,,,,,,,,,,,,,,,,,,,,,,,,,,,,,,,,,,,,,,,7,,,,,,,,,,,2019_Jan_29_1744,60.29884196041611,Cloud_Experiment_FR_REAL,001,13,
,,,,,,,,,,,,,,,,,,,,,,,,,,,,,,,,,,,,,,,,,7,,,,,,,,,,2019_Jan_29_1744,60.29884196041611,Cloud_Experiment_FR_REAL,001,13,
,,,,,,,,,,,,,,,,,,,,,,,,,,,,,,,,,,,,,,,,,,4,,,,,,,,,2019_Jan_29_1744,60.29884196041611,Cloud_Experiment_FR_REAL,001,13,
,,,,,,,,,,,,,,,,,,,,,,,,,,,,,,,,,,,,,,,,,,,5,,,,,,,,2019_Jan_29_1744,60.29884196041611,Cloud_Experiment_FR_REAL,001,13,
,,,,,,,,,,,,,,,,,,,,,,,,,,,,,,,,,,,,,,,,,,,,,,,,space,212.99827637,,2019_Jan_29_1744,60.29884196041611,Cloud_Experiment_FR_REAL,001,13,
images/fcloud_D1.8_7.tif,1.8,0,,,,,,,,,,,,,0,0,0,40,,,,,,,,,,,1,space,4.30801161559,3,8.03,,,,,,,,,,,,,,,,,,2019_Jan_29_1744,60.29884196041611,Cloud_Experiment_FR_REAL,001,13,
images/fcloud_D1.5_7.tif,1.5,0,,,,,,,,,,,,,0,1,1,28,,,,,,,,,,,1,space,2.875181012,3,1.569,,,,,,,,,,,,,,,,,,2019_Jan_29_1744,60.29884196041611,Cloud_Experiment_FR_REAL,001,13,
images/fcloud_D1.3_10.tif,1.3,0,,,,,,,,,,,,,0,2,2,23,,,,,,,,,,,2,space,1.42445817203,2,1.001,,,,,,,,,,,,,,,,,,2019_Jan_29_1744,60.29884196041611,Cloud_Experiment_FR_REAL,001,13,
images/fcloud_D1.3_7.tif,1.3,0,,,,,,,,,,,,,0,3,3,20,,,,,,,,,,,1,space,6.65241994476,3,2.902,,,,,,,,,,,,,,,,,,2019_Jan_29_1744,60.29884196041611,Cloud_Experiment_FR_REAL,001,13,
images/fcloud_D1.9_10.tif,1.9,0,,,,,,,,,,,,,0,4,4,47,,,,,,,,,,,None,None,,None,13.658,,,,,,,,,,,,,,,,,,2019_Jan_29_1744,60.29884196041611,Cloud_Experiment_FR_REAL,001,13,
images/fcloud_D0.9_8.tif,0.9,0,,,,,,,,,,,,,0,5,5,5,,,,,,,,,,,2,space,1.69176476999,3,0.836,,,,,,,,,,,,,,,,,,2019_Jan_29_1744,60.29884196041611,Cloud_Experiment_FR_REAL,001,13,
images/fcloud65-35_D1_7.tif,1.0,1,,,,,,,,,,,,,0,6,6,56,,,,,,,,,,,2,space,1.50776764459,1,0.637,,,,,,,,,,,,,,,,,,2019_Jan_29_1744,60.29884196041611,Cloud_Experiment_FR_REAL,001,13,
images/fcloud_D1.5_10.tif,1.5,0,,,,,,,,,,,,,0,7,7,31,,,,,,,,,,,2,space,1.14260635694,2,1.103,,,,,,,,,,,,,,,,,,2019_Jan_29_1744,60.29884196041611,Cloud_Experiment_FR_REAL,001,13,
images/fcloud65-35_D1.8_8.tif,1.8,1,,,,,,,,,,,,,0,8,8,89,,,,,,,,,,,2,space,2.67049775537,2,1.252,,,,,,,,,,,,,,,,,,2019_Jan_29_1744,60.29884196041611,Cloud_Experiment_FR_REAL,001,13,
images/fcloud65-35_D1.2_10.tif,1.2,1,,,,,,,,,,,,,0,9,9,67,,,,,,,,,,,1,None,,1,1.901,,,,,,,,,,,,,,,,,,2019_Jan_29_1744,60.29884196041611,Cloud_Experiment_FR_REAL,001,13,
images/fcloud_D1.8_8.tif,1.8,0,,,,,,,,,,,,,0,10,10,41,,,,,,,,,,,None,None,,None,13.273,,,,,,,,,,,,,,,,,,2019_Jan_29_1744,60.29884196041611,Cloud_Experiment_FR_REAL,001,13,
images/fcloud80-20_D1_7.tif,1.0,2,,,,,,,,,,,,,0,11,11,104,,,,,,,,,,,None,None,,None,22.684,,,,,,,,,,,,,,,,,,2019_Jan_29_1744,60.29884196041611,Cloud_Experiment_FR_REAL,001,13,
images/fcloud80-20_D0.8_8.tif,0.8,2,,,,,,,,,,,,,0,12,12,97,,,,,,,,,,,1,space,6.20664797901,2,1.035,,,,,,,,,,,,,,,,,,2019_Jan_29_1744,60.29884196041611,Cloud_Experiment_FR_REAL,001,13,
images/fcloud80-20_D0.8_7.tif,0.8,2,,,,,,,,,,,,,0,13,13,96,,,,,,,,,,,2,None,,3,1.152,,,,,,,,,,,,,,,,,,2019_Jan_29_1744,60.29884196041611,Cloud_Experiment_FR_REAL,001,13,
images/fcloud_D0.8_8.tif,0.8,0,,,,,,,,,,,,,0,14,14,1,,,,,,,,,,,None,None,,None,10.094,,,,,,,,,,,,,,,,,,2019_Jan_29_1744,60.29884196041611,Cloud_Experiment_FR_REAL,001,13,
images/fcloud65-35_D1.3_8.tif,1.3,1,,,,,,,,,,,,,0,15,15,69,,,,,,,,,,,None,None,,None,23.181,,,,,,,,,,,,,,,,,,2019_Jan_29_1744,60.29884196041611,Cloud_Experiment_FR_REAL,001,13,
images/fcloud80-20_D1.8_7.tif,1.8,2,,,,,,,,,,,,,0,16,16,136,,,,,,,,,,,1,space,6.43453007305,1,0.752,,,,,,,,,,,,,,,,,,2019_Jan_29_1744,60.29884196041611,Cloud_Experiment_FR_REAL,001,13,
images/fcloud65-35_D1.7_9.tif,1.7,1,,,,,,,,,,,,,0,17,17,86,,,,,,,,,,,2,space,2.49430605769,2,1.535,,,,,,,,,,,,,,,,,,2019_Jan_29_1744,60.29884196041611,Cloud_Experiment_FR_REAL,001,13,
images/fcloud65-35_D0.9_9.tif,0.9,1,,,,,,,,,,,,,0,18,18,54,,,,,,,,,,,1,space,3.55069081427,1,1.435,,,,,,,,,,,,,,,,,,2019_Jan_29_1744,60.29884196041611,Cloud_Experiment_FR_REAL,001,13,
images/fcloud_D1.2_9.tif,1.2,0,,,,,,,,,,,,,0,19,19,18,,,,,,,,,,,None,None,,None,11.043,,,,,,,,,,,,,,,,,,2019_Jan_29_1744,60.29884196041611,Cloud_Experiment_FR_REAL,001,13,
images/fcloud80-20_D1_8.tif,1.0,2,,,,,,,,,,,,,0,20,20,105,,,,,,,,,,,1,None,,1,0.634,,,,,,,,,,,,,,,,,,2019_Jan_29_1744,60.29884196041611,Cloud_Experiment_FR_REAL,001,13,
images/fcloud80-20_D1.7_9.tif,1.7,2,,,,,,,,,,,,,0,21,21,134,,,,,,,,,,,2,space,1.88613451921,3,2.084,,,,,,,,,,,,,,,,,,2019_Jan_29_1744,60.29884196041611,Cloud_Experiment_FR_REAL,001,13,
images/fcloud65-35_D0.9_7.tif,0.9,1,,,,,,,,,,,,,0,22,22,52,,,,,,,,,,,2,space,4.10193629508,3,2.285,,,,,,,,,,,,,,,,,,2019_Jan_29_1744,60.29884196041611,Cloud_Experiment_FR_REAL,001,13,
images/fcloud65-35_D1_9.tif,1.0,1,,,,,,,,,,,,,0,23,23,58,,,,,,,,,,,1,space,3.97073478662,1,1.036,,,,,,,,,,,,,,,,,,2019_Jan_29_1744,60.29884196041611,Cloud_Experiment_FR_REAL,001,13,
images/fcloud_D0.8_7.tif,0.8,0,,,,,,,,,,,,,0,24,24,0,,,,,,,,,,,1,space,2.73855723991,2,1.136,,,,,,,,,,,,,,,,,,2019_Jan_29_1744,60.29884196041611,Cloud_Experiment_FR_REAL,001,13,
images/fcloud_D1.7_10.tif,1.7,0,,,,,,,,,,,,,0,25,25,39,,,,,,,,,,,2,space,2.94375352448,2,1.502,,,,,,,,,,,,,,,,,,2019_Jan_29_1744,60.29884196041611,Cloud_Experiment_FR_REAL,001,13,
images/fcloud65-35_D1.7_10.tif,1.7,1,,,,,,,,,,,,,0,26,26,87,,,,,,,,,,,1,space,1.40318087631,3,1.269,,,,,,,,,,,,,,,,,,2019_Jan_29_1744,60.29884196041611,Cloud_Experiment_FR_REAL,001,13,
images/fcloud80-20_D1.2_8.tif,1.2,2,,,,,,,,,,,,,0,27,27,113,,,,,,,,,,,1,space,3.01085943496,2,1.103,,,,,,,,,,,,,,,,,,2019_Jan_29_1744,60.29884196041611,Cloud_Experiment_FR_REAL,001,13,
images/fcloud_D1.4_7.tif,1.4,0,,,,,,,,,,,,,0,28,28,24,,,,,,,,,,,2,space,3.00286175028,1,0.769,,,,,,,,,,,,,,,,,,2019_Jan_29_1744,60.29884196041611,Cloud_Experiment_FR_REAL,001,13,
images/fcloud80-20_D1.6_8.tif,1.6,2,,,,,,,,,,,,,0,29,29,129,,,,,,,,,,,1,space,2.00540272956,1,0.935,,,,,,,,,,,,,,,,,,2019_Jan_29_1744,60.29884196041611,Cloud_Experiment_FR_REAL,001,13,
images/fcloud_D1.4_10.tif,1.4,0,,,,,,,,,,,,,0,30,30,27,,,,,,,,,,,1,space,4.26835681454,2,1.435,,,,,,,,,,,,,,,,,,2019_Jan_29_1744,60.29884196041611,Cloud_Experiment_FR_REAL,001,13,
images/fcloud65-35_D0.9_10.tif,0.9,1,,,,,,,,,,,,,0,31,31,55,,,,,,,,,,,1,space,1.75282024022,2,0.836,,,,,,,,,,,,,,,,,,2019_Jan_29_1744,60.29884196041611,Cloud_Experiment_FR_REAL,001,13,
images/fcloud65-35_D1.9_9.tif,1.9,1,,,,,,,,,,,,,0,32,32,94,,,,,,,,,,,3,space,2.6686008884,3,3.45,,,,,,,,,,,,,,,,,,2019_Jan_29_1744,60.29884196041611,Cloud_Experiment_FR_REAL,001,13,
images/fcloud65-35_D1.8_7.tif,1.8,1,,,,,,,,,,,,,0,33,33,88,,,,,,,,,,,1,space,7.31554767792,1,0.952,,,,,,,,,,,,,,,,,,2019_Jan_29_1744,60.29884196041611,Cloud_Experiment_FR_REAL,001,13,
images/fcloud_D1.9_8.tif,1.9,0,,,,,,,,,,,,,0,34,34,45,,,,,,,,,,,3,space,2.69910960342,2,1.454,,,,,,,,,,,,,,,,,,2019_Jan_29_1744,60.29884196041611,Cloud_Experiment_FR_REAL,001,13,
images/fcloud80-20_D1.5_7.tif,1.5,2,,,,,,,,,,,,,0,35,35,124,,,,,,,,,,,4,space,3.12582036926,3,1.436,,,,,,,,,,,,,,,,,,2019_Jan_29_1744,60.29884196041611,Cloud_Experiment_FR_REAL,001,13,
images/fcloud80-20_D1.3_7.tif,1.3,2,,,,,,,,,,,,,0,36,36,116,,,,,,,,,,,2,space,2.18116467632,3,2.335,,,,,,,,,,,,,,,,,,2019_Jan_29_1744,60.29884196041611,Cloud_Experiment_FR_REAL,001,13,
images/fcloud_D1.3_8.tif,1.3,0,,,,,,,,,,,,,0,37,37,21,,,,,,,,,,,1,space,0.128613750072,1,1.419,,,,,,,,,,,,,,,,,,2019_Jan_29_1744,60.29884196041611,Cloud_Experiment_FR_REAL,001,13,
images/fcloud65-35_D1.6_10.tif,1.6,1,,,,,,,,,,,,,0,38,38,83,,,,,,,,,,,2,space,4.91471500989,2,0.884,,,,,,,,,,,,,,,,,,2019_Jan_29_1744,60.29884196041611,Cloud_Experiment_FR_REAL,001,13,
images/fcloud80-20_D1.3_10.tif,1.3,2,,,,,,,,,,,,,0,39,39,119,,,,,,,,,,,2,space,2.70191377943,4,0.969,,,,,,,,,,,,,,,,,,2019_Jan_29_1744,60.29884196041611,Cloud_Experiment_FR_REAL,001,13,
images/fcloud_D0.9_10.tif,0.9,0,,,,,,,,,,,,,0,40,40,7,,,,,,,,,,,2,space,3.70213019705,3,0.602,,,,,,,,,,,,,,,,,,2019_Jan_29_1744,60.29884196041611,Cloud_Experiment_FR_REAL,001,13,
images/fcloud80-20_D1.2_10.tif,1.2,2,,,,,,,,,,,,,0,41,41,115,,,,,,,,,,,2,space,5.99893796013,1,0.469,,,,,,,,,,,,,,,,,,2019_Jan_29_1744,60.29884196041611,Cloud_Experiment_FR_REAL,001,13,
images/fcloud_D0.8_10.tif,0.8,0,,,,,,,,,,,,,0,42,42,3,,,,,,,,,,,1,None,,1,0.52,,,,,,,,,,,,,,,,,,2019_Jan_29_1744,60.29884196041611,Cloud_Experiment_FR_REAL,001,13,
images/fcloud65-35_D1.3_9.tif,1.3,1,,,,,,,,,,,,,0,43,43,70,,,,,,,,,,,None,None,,None,13.924,,,,,,,,,,,,,,,,,,2019_Jan_29_1744,60.29884196041611,Cloud_Experiment_FR_REAL,001,13,
images/fcloud_D1.5_9.tif,1.5,0,,,,,,,,,,,,,0,44,44,30,,,,,,,,,,,3,space,3.71581385619,3,1.169,,,,,,,,,,,,,,,,,,2019_Jan_29_1744,60.29884196041611,Cloud_Experiment_FR_REAL,001,13,
images/fcloud_D1.4_9.tif,1.4,0,,,,,,,,,,,,,0,45,45,26,,,,,,,,,,,2,space,3.5251442827,2,1.452,,,,,,,,,,,,,,,,,,2019_Jan_29_1744,60.29884196041611,Cloud_Experiment_FR_REAL,001,13,
images/fcloud65-35_D1.5_7.tif,1.5,1,,,,,,,,,,,,,0,46,46,76,,,,,,,,,,,1,space,4.98398458245,2,2.284,,,,,,,,,,,,,,,,,,2019_Jan_29_1744,60.29884196041611,Cloud_Experiment_FR_REAL,001,13,
images/fcloud80-20_D1.5_9.tif,1.5,2,,,,,,,,,,,,,0,47,47,126,,,,,,,,,,,1,space,1.00744147602,3,0.752,,,,,,,,,,,,,,,,,,2019_Jan_29_1744,60.29884196041611,Cloud_Experiment_FR_REAL,001,13,
images/fcloud80-20_D0.9_8.tif,0.9,2,,,,,,,,,,,,,0,48,48,101,,,,,,,,,,,2,space,1.81545746108,2,2.452,,,,,,,,,,,,,,,,,,2019_Jan_29_1744,60.29884196041611,Cloud_Experiment_FR_REAL,001,13,
images/fcloud65-35_D1.4_7.tif,1.4,1,,,,,,,,,,,,,0,49,49,72,,,,,,,,,,,2,space,2.37172629804,1,1.685,,,,,,,,,,,,,,,,,,2019_Jan_29_1744,60.29884196041611,Cloud_Experiment_FR_REAL,001,13,
images/fcloud65-35_D1.9_8.tif,1.9,1,,,,,,,,,,,,,0,50,50,93,,,,,,,,,,,1,space,6.93714224911,1,0.419,,,,,,,,,,,,,,,,,,2019_Jan_29_1744,60.29884196041611,Cloud_Experiment_FR_REAL,001,13,
images/fcloud_D0.9_7.tif,0.9,0,,,,,,,,,,,,,0,51,51,4,,,,,,,,,,,2,space,1.47155496312,2,0.968,,,,,,,,,,,,,,,,,,2019_Jan_29_1744,60.29884196041611,Cloud_Experiment_FR_REAL,001,13,
images/fcloud_D0.8_9.tif,0.8,0,,,,,,,,,,,,,0,52,52,2,,,,,,,,,,,2,space,4.48254085591,2,0.82,,,,,,,,,,,,,,,,,,2019_Jan_29_1744,60.29884196041611,Cloud_Experiment_FR_REAL,001,13,
images/fcloud65-35_D1.5_9.tif,1.5,1,,,,,,,,,,,,,0,53,53,78,,,,,,,,,,,3,space,2.03617001479,2,2.384,,,,,,,,,,,,,,,,,,2019_Jan_29_1744,60.29884196041611,Cloud_Experiment_FR_REAL,001,13,
images/fcloud_D1_10.tif,1.0,0,,,,,,,,,,,,,0,54,54,11,,,,,,,,,,,1,None,,1,10.427,,,,,,,,,,,,,,,,,,2019_Jan_29_1744,60.29884196041611,Cloud_Experiment_FR_REAL,001,13,
images/fcloud80-20_D1.4_10.tif,1.4,2,,,,,,,,,,,,,0,55,55,123,,,,,,,,,,,3,space,2.04071272849,2,0.67,,,,,,,,,,,,,,,,,,2019_Jan_29_1744,60.29884196041611,Cloud_Experiment_FR_REAL,001,13,
images/fcloud80-20_D1.5_10.tif,1.5,2,,,,,,,,,,,,,0,56,56,127,,,,,,,,,,,1,space,4.18747522891,1,0.602,,,,,,,,,,,,,,,,,,2019_Jan_29_1744,60.29884196041611,Cloud_Experiment_FR_REAL,001,13,
images/fcloud80-20_D1.8_10.tif,1.8,2,,,,,,,,,,,,,0,57,57,139,,,,,,,,,,,1,space,1.11220919204,2,1.666,,,,,,,,,,,,,,,,,,2019_Jan_29_1744,60.29884196041611,Cloud_Experiment_FR_REAL,001,13,
images/fcloud_D1.6_8.tif,1.6,0,,,,,,,,,,,,,0,58,58,33,,,,,,,,,,,3,space,2.44056303534,3,1.302,,,,,,,,,,,,,,,,,,2019_Jan_29_1744,60.29884196041611,Cloud_Experiment_FR_REAL,001,13,
images/fcloud80-20_D1_9.tif,1.0,2,,,,,,,,,,,,,0,59,59,106,,,,,,,,,,,3,space,1.93942003165,3,2.036,,,,,,,,,,,,,,,,,,2019_Jan_29_1744,60.29884196041611,Cloud_Experiment_FR_REAL,001,13,
images/fcloud80-20_D1.7_10.tif,1.7,2,,,,,,,,,,,,,0,60,60,135,,,,,,,,,,,1,space,1.28246559808,3,0.77,,,,,,,,,,,,,,,,,,2019_Jan_29_1744,60.29884196041611,Cloud_Experiment_FR_REAL,001,13,
images/fcloud80-20_D1.7_8.tif,1.7,2,,,,,,,,,,,,,0,61,61,133,,,,,,,,,,,1,space,7.29017900975,2,1.287,,,,,,,,,,,,,,,,,,2019_Jan_29_1744,60.29884196041611,Cloud_Experiment_FR_REAL,001,13,
images/fcloud65-35_D1.3_7.tif,1.3,1,,,,,,,,,,,,,0,62,62,68,,,,,,,,,,,1,space,3.46651464314,2,0.818,,,,,,,,,,,,,,,,,,2019_Jan_29_1744,60.29884196041611,Cloud_Experiment_FR_REAL,001,13,
images/fcloud65-35_D1.2_9.tif,1.2,1,,,,,,,,,,,,,0,63,63,66,,,,,,,,,,,2,space,3.20524717614,2,0.919,,,,,,,,,,,,,,,,,,2019_Jan_29_1744,60.29884196041611,Cloud_Experiment_FR_REAL,001,13,
images/fcloud65-35_D1.1_7.tif,1.1,1,,,,,,,,,,,,,0,64,64,60,,,,,,,,,,,2,space,2.33951914165,1,1.085,,,,,,,,,,,,,,,,,,2019_Jan_29_1744,60.29884196041611,Cloud_Experiment_FR_REAL,001,13,
images/fcloud65-35_D1.7_7.tif,1.7,1,,,,,,,,,,,,,0,65,65,84,,,,,,,,,,,1,space,1.75514428783,1,1.036,,,,,,,,,,,,,,,,,,2019_Jan_29_1744,60.29884196041611,Cloud_Experiment_FR_REAL,001,13,
images/fcloud_D1.8_10.tif,1.8,0,,,,,,,,,,,,,0,66,66,43,,,,,,,,,,,2,space,5.1614233802,3,1.535,,,,,,,,,,,,,,,,,,2019_Jan_29_1744,60.29884196041611,Cloud_Experiment_FR_REAL,001,13,
images/fcloud65-35_D1.4_10.tif,1.4,1,,,,,,,,,,,,,0,67,67,75,,,,,,,,,,,1,space,5.70172563489,2,1.136,,,,,,,,,,,,,,,,,,2019_Jan_29_1744,60.29884196041611,Cloud_Experiment_FR_REAL,001,13,
images/fcloud65-35_D1.1_8.tif,1.1,1,,,,,,,,,,,,,0,68,68,61,,,,,,,,,,,2,None,,1,2.07,,,,,,,,,,,,,,,,,,2019_Jan_29_1744,60.29884196041611,Cloud_Experiment_FR_REAL,001,13,
images/fcloud_D1.6_10.tif,1.6,0,,,,,,,,,,,,,0,69,69,35,,,,,,,,,,,2,space,4.44724370833,3,1.086,,,,,,,,,,,,,,,,,,2019_Jan_29_1744,60.29884196041611,Cloud_Experiment_FR_REAL,001,13,
images/fcloud_D1_9.tif,1.0,0,,,,,,,,,,,,,0,70,70,10,,,,,,,,,,,3,space,1.66732140278,2,1.485,,,,,,,,,,,,,,,,,,2019_Jan_29_1744,60.29884196041611,Cloud_Experiment_FR_REAL,001,13,
images/fcloud65-35_D1.9_10.tif,1.9,1,,,,,,,,,,,,,0,71,71,95,,,,,,,,,,,3,space,2.61538066113,2,1.685,,,,,,,,,,,,,,,,,,2019_Jan_29_1744,60.29884196041611,Cloud_Experiment_FR_REAL,001,13,
images/fcloud_D1.1_7.tif,1.1,0,,,,,,,,,,,,,0,72,72,12,,,,,,,,,,,2,space,2.79644715271,2,2.834,,,,,,,,,,,,,,,,,,2019_Jan_29_1744,60.29884196041611,Cloud_Experiment_FR_REAL,001,13,
images/fcloud80-20_D1.5_8.tif,1.5,2,,,,,,,,,,,,,0,73,73,125,,,,,,,,,,,3,space,2.86204122423,2,2.351,,,,,,,,,,,,,,,,,,2019_Jan_29_1744,60.29884196041611,Cloud_Experiment_FR_REAL,001,13,
images/fcloud80-20_D1.1_9.tif,1.1,2,,,,,,,,,,,,,0,74,74,110,,,,,,,,,,,2,space,1.77343183334,1,1.103,,,,,,,,,,,,,,,,,,2019_Jan_29_1744,60.29884196041611,Cloud_Experiment_FR_REAL,001,13,
images/fcloud_D1.1_9.tif,1.1,0,,,,,,,,,,,,,0,75,75,14,,,,,,,,,,,2,None,,1,1.701,,,,,,,,,,,,,,,,,,2019_Jan_29_1744,60.29884196041611,Cloud_Experiment_FR_REAL,001,13,
images/fcloud65-35_D1.8_9.tif,1.8,1,,,,,,,,,,,,,0,76,76,90,,,,,,,,,,,1,None,,1,7.38,,,,,,,,,,,,,,,,,,2019_Jan_29_1744,60.29884196041611,Cloud_Experiment_FR_REAL,001,13,
images/fcloud65-35_D1_8.tif,1.0,1,,,,,,,,,,,,,0,77,77,57,,,,,,,,,,,2,space,2.64239687906,2,1.253,,,,,,,,,,,,,,,,,,2019_Jan_29_1744,60.29884196041611,Cloud_Experiment_FR_REAL,001,13,
images/fcloud80-20_D1.9_9.tif,1.9,2,,,,,,,,,,,,,0,78,78,142,,,,,,,,,,,3,space,3.58048961786,3,0.985,,,,,,,,,,,,,,,,,,2019_Jan_29_1744,60.29884196041611,Cloud_Experiment_FR_REAL,001,13,
images/fcloud65-35_D0.8_7.tif,0.8,1,,,,,,,,,,,,,0,79,79,48,,,,,,,,,,,1,space,4.31732939635,2,1.602,,,,,,,,,,,,,,,,,,2019_Jan_29_1744,60.29884196041611,Cloud_Experiment_FR_REAL,001,13,
images/fcloud80-20_D1.2_9.tif,1.2,2,,,,,,,,,,,,,0,80,80,114,,,,,,,,,,,None,None,,None,11.128,,,,,,,,,,,,,,,,,,2019_Jan_29_1744,60.29884196041611,Cloud_Experiment_FR_REAL,001,13,
images/fcloud65-35_D0.8_10.tif,0.8,1,,,,,,,,,,,,,0,81,81,51,,,,,,,,,,,None,None,,None,20.717,,,,,,,,,,,,,,,,,,2019_Jan_29_1744,60.29884196041611,Cloud_Experiment_FR_REAL,001,13,
images/fcloud_D1.9_7.tif,1.9,0,,,,,,,,,,,,,0,82,82,44,,,,,,,,,,,4,space,2.06178594395,1,1.284,,,,,,,,,,,,,,,,,,2019_Jan_29_1744,60.29884196041611,Cloud_Experiment_FR_REAL,001,13,
images/fcloud80-20_D1.9_8.tif,1.9,2,,,,,,,,,,,,,0,83,83,141,,,,,,,,,,,2,None,,2,0.453,,,,,,,,,,,,,,,,,,2019_Jan_29_1744,60.29884196041611,Cloud_Experiment_FR_REAL,001,13,
images/fcloud65-35_D1.4_8.tif,1.4,1,,,,,,,,,,,,,0,84,84,73,,,,,,,,,,,1,space,5.57537321755,2,0.785,,,,,,,,,,,,,,,,,,2019_Jan_29_1744,60.29884196041611,Cloud_Experiment_FR_REAL,001,13,
images/fcloud65-35_D1.1_10.tif,1.1,1,,,,,,,,,,,,,0,85,85,63,,,,,,,,,,,3,space,3.65501952643,3,4.567,,,,,,,,,,,,,,,,,,2019_Jan_29_1744,60.29884196041611,Cloud_Experiment_FR_REAL,001,13,
images/fcloud_D1.7_7.tif,1.7,0,,,,,,,,,,,,,0,86,86,36,,,,,,,,,,,3,space,2.40669547781,2,1.369,,,,,,,,,,,,,,,,,,2019_Jan_29_1744,60.29884196041611,Cloud_Experiment_FR_REAL,001,13,
images/fcloud80-20_D1.1_10.tif,1.1,2,,,,,,,,,,,,,0,87,87,111,,,,,,,,,,,None,None,,None,10.61,,,,,,,,,,,,,,,,,,2019_Jan_29_1744,60.29884196041611,Cloud_Experiment_FR_REAL,001,13,
images/fcloud80-20_D1.8_8.tif,1.8,2,,,,,,,,,,,,,0,88,88,137,,,,,,,,,,,3,space,4.63798010911,1,1.668,,,,,,,,,,,,,,,,,,2019_Jan_29_1744,60.29884196041611,Cloud_Experiment_FR_REAL,001,13,
images/fcloud_D1.6_7.tif,1.6,0,,,,,,,,,,,,,0,89,89,32,,,,,,,,,,,1,space,3.1050643264,3,1.12,,,,,,,,,,,,,,,,,,2019_Jan_29_1744,60.29884196041611,Cloud_Experiment_FR_REAL,001,13,
images/fcloud80-20_D0.9_9.tif,0.9,2,,,,,,,,,,,,,0,90,90,102,,,,,,,,,,,2,space,1.67892313472,4,2.601,,,,,,,,,,,,,,,,,,2019_Jan_29_1744,60.29884196041611,Cloud_Experiment_FR_REAL,001,13,
images/fcloud65-35_D1.6_7.tif,1.6,1,,,,,,,,,,,,,0,91,91,80,,,,,,,,,,,1,space,2.12625063423,1,0.553,,,,,,,,,,,,,,,,,,2019_Jan_29_1744,60.29884196041611,Cloud_Experiment_FR_REAL,001,13,
images/fcloud65-35_D1.5_10.tif,1.5,1,,,,,,,,,,,,,0,92,92,79,,,,,,,,,,,4,space,2.60872517689,2,2.118,,,,,,,,,,,,,,,,,,2019_Jan_29_1744,60.29884196041611,Cloud_Experiment_FR_REAL,001,13,
images/fcloud80-20_D1.4_9.tif,1.4,2,,,,,,,,,,,,,0,93,93,122,,,,,,,,,,,1,space,6.07339024619,1,0.518,,,,,,,,,,,,,,,,,,2019_Jan_29_1744,60.29884196041611,Cloud_Experiment_FR_REAL,001,13,
images/fcloud65-35_D1.2_8.tif,1.2,1,,,,,,,,,,,,,0,94,94,65,,,,,,,,,,,3,space,3.56942815887,3,1.252,,,,,,,,,,,,,,,,,,2019_Jan_29_1744,60.29884196041611,Cloud_Experiment_FR_REAL,001,13,
images/fcloud80-20_D1.1_7.tif,1.1,2,,,,,,,,,,,,,0,95,95,108,,,,,,,,,,,None,None,,None,11.409,,,,,,,,,,,,,,,,,,2019_Jan_29_1744,60.29884196041611,Cloud_Experiment_FR_REAL,001,13,
images/fcloud80-20_D1.6_9.tif,1.6,2,,,,,,,,,,,,,0,96,96,130,,,,,,,,,,,1,None,,1,0.419,,,,,,,,,,,,,,,,,,2019_Jan_29_1744,60.29884196041611,Cloud_Experiment_FR_REAL,001,13,
images/fcloud65-35_D1.9_7.tif,1.9,1,,,,,,,,,,,,,0,97,97,92,,,,,,,,,,,3,space,2.10344042323,2,0.603,,,,,,,,,,,,,,,,,,2019_Jan_29_1744,60.29884196041611,Cloud_Experiment_FR_REAL,001,13,
images/fcloud65-35_D1.6_9.tif,1.6,1,,,,,,,,,,,,,0,98,98,82,,,,,,,,,,,1,None,,1,0.652,,,,,,,,,,,,,,,,,,2019_Jan_29_1744,60.29884196041611,Cloud_Experiment_FR_REAL,001,13,
images/fcloud_D1.1_10.tif,1.1,0,,,,,,,,,,,,,0,99,99,15,,,,,,,,,,,3,space,2.58675904595,2,3.0,,,,,,,,,,,,,,,,,,2019_Jan_29_1744,60.29884196041611,Cloud_Experiment_FR_REAL,001,13,
images/fcloud80-20_D1.2_7.tif,1.2,2,,,,,,,,,,,,,0,100,100,112,,,,,,,,,,,1,space,1.5185679631,3,0.801,,,,,,,,,,,,,,,,,,2019_Jan_29_1744,60.29884196041611,Cloud_Experiment_FR_REAL,001,13,
images/fcloud80-20_D0.9_7.tif,0.9,2,,,,,,,,,,,,,0,101,101,100,,,,,,,,,,,None,None,,None,14.623,,,,,,,,,,,,,,,,,,2019_Jan_29_1744,60.29884196041611,Cloud_Experiment_FR_REAL,001,13,
images/fcloud80-20_D1.8_9.tif,1.8,2,,,,,,,,,,,,,0,102,102,138,,,,,,,,,,,3,space,3.21271486903,2,2.185,,,,,,,,,,,,,,,,,,2019_Jan_29_1744,60.29884196041611,Cloud_Experiment_FR_REAL,001,13,
images/fcloud80-20_D1.3_9.tif,1.3,2,,,,,,,,,,,,,0,103,103,118,,,,,,,,,,,1,space,3.81303574285,2,1.269,,,,,,,,,,,,,,,,,,2019_Jan_29_1744,60.29884196041611,Cloud_Experiment_FR_REAL,001,13,
images/fcloud_D1.8_9.tif,1.8,0,,,,,,,,,,,,,0,104,104,42,,,,,,,,,,,2,space,3.34652058562,2,0.769,,,,,,,,,,,,,,,,,,2019_Jan_29_1744,60.29884196041611,Cloud_Experiment_FR_REAL,001,13,
images/fcloud80-20_D1.4_7.tif,1.4,2,,,,,,,,,,,,,0,105,105,120,,,,,,,,,,,3,space,2.85571216559,2,0.851,,,,,,,,,,,,,,,,,,2019_Jan_29_1744,60.29884196041611,Cloud_Experiment_FR_REAL,001,13,
images/fcloud65-35_D1.5_8.tif,1.5,1,,,,,,,,,,,,,0,106,106,77,,,,,,,,,,,3,space,2.39134524882,2,0.885,,,,,,,,,,,,,,,,,,2019_Jan_29_1744,60.29884196041611,Cloud_Experiment_FR_REAL,001,13,
images/fcloud_D1.1_8.tif,1.1,0,,,,,,,,,,,,,0,107,107,13,,,,,,,,,,,2,None,,2,0.801,,,,,,,,,,,,,,,,,,2019_Jan_29_1744,60.29884196041611,Cloud_Experiment_FR_REAL,001,13,
images/fcloud80-20_D0.8_10.tif,0.8,2,,,,,,,,,,,,,0,108,108,99,,,,,,,,,,,None,None,,None,16.538,,,,,,,,,,,,,,,,,,2019_Jan_29_1744,60.29884196041611,Cloud_Experiment_FR_REAL,001,13,
images/fcloud65-35_D1.4_9.tif,1.4,1,,,,,,,,,,,,,0,109,109,74,,,,,,,,,,,2,space,2.98249690409,1,1.003,,,,,,,,,,,,,,,,,,2019_Jan_29_1744,60.29884196041611,Cloud_Experiment_FR_REAL,001,13,
images/fcloud65-35_D0.8_8.tif,0.8,1,,,,,,,,,,,,,0,110,110,49,,,,,,,,,,,None,None,,None,10.728,,,,,,,,,,,,,,,,,,2019_Jan_29_1744,60.29884196041611,Cloud_Experiment_FR_REAL,001,13,
images/fcloud65-35_D1.3_10.tif,1.3,1,,,,,,,,,,,,,0,111,111,71,,,,,,,,,,,4,space,4.83467339189,1,0.536,,,,,,,,,,,,,,,,,,2019_Jan_29_1744,60.29884196041611,Cloud_Experiment_FR_REAL,001,13,
images/fcloud_D1.5_8.tif,1.5,0,,,,,,,,,,,,,0,112,112,29,,,,,,,,,,,3,space,3.48152045454,3,0.519,,,,,,,,,,,,,,,,,,2019_Jan_29_1744,60.29884196041611,Cloud_Experiment_FR_REAL,001,13,
images/fcloud65-35_D1.7_8.tif,1.7,1,,,,,,,,,,,,,0,113,113,85,,,,,,,,,,,None,None,,None,26.029,,,,,,,,,,,,,,,,,,2019_Jan_29_1744,60.29884196041611,Cloud_Experiment_FR_REAL,001,13,
images/fcloud_D1.9_9.tif,1.9,0,,,,,,,,,,,,,0,114,114,46,,,,,,,,,,,2,space,3.68319853925,2,3.267,,,,,,,,,,,,,,,,,,2019_Jan_29_1744,60.29884196041611,Cloud_Experiment_FR_REAL,001,13,
images/fcloud_D1.7_9.tif,1.7,0,,,,,,,,,,,,,0,115,115,38,,,,,,,,,,,2,space,5.04012721858,2,0.985,,,,,,,,,,,,,,,,,,2019_Jan_29_1744,60.29884196041611,Cloud_Experiment_FR_REAL,001,13,
images/fcloud80-20_D0.8_9.tif,0.8,2,,,,,,,,,,,,,0,116,116,98,,,,,,,,,,,1,None,,2,0.835,,,,,,,,,,,,,,,,,,2019_Jan_29_1744,60.29884196041611,Cloud_Experiment_FR_REAL,001,13,
images/fcloud65-35_D1.1_9.tif,1.1,1,,,,,,,,,,,,,0,117,117,62,,,,,,,,,,,3,space,5.36278737662,2,2.568,,,,,,,,,,,,,,,,,,2019_Jan_29_1744,60.29884196041611,Cloud_Experiment_FR_REAL,001,13,
images/fcloud65-35_D1.6_8.tif,1.6,1,,,,,,,,,,,,,0,118,118,81,,,,,,,,,,,2,space,5.37159212941,1,0.752,,,,,,,,,,,,,,,,,,2019_Jan_29_1744,60.29884196041611,Cloud_Experiment_FR_REAL,001,13,
images/fcloud_D1_7.tif,1.0,0,,,,,,,,,,,,,0,119,119,8,,,,,,,,,,,1,space,2.10660443848,2,0.853,,,,,,,,,,,,,,,,,,2019_Jan_29_1744,60.29884196041611,Cloud_Experiment_FR_REAL,001,13,
images/fcloud80-20_D0.9_10.tif,0.9,2,,,,,,,,,,,,,0,120,120,103,,,,,,,,,,,1,space,5.39528394659,2,1.003,,,,,,,,,,,,,,,,,,2019_Jan_29_1744,60.29884196041611,Cloud_Experiment_FR_REAL,001,13,
images/fcloud_D1_8.tif,1.0,0,,,,,,,,,,,,,0,121,121,9,,,,,,,,,,,2,space,2.10575675996,1,0.752,,,,,,,,,,,,,,,,,,2019_Jan_29_1744,60.29884196041611,Cloud_Experiment_FR_REAL,001,13,
images/fcloud_D1.2_10.tif,1.2,0,,,,,,,,,,,,,0,122,122,19,,,,,,,,,,,2,space,3.95748139246,1,0.902,,,,,,,,,,,,,,,,,,2019_Jan_29_1744,60.29884196041611,Cloud_Experiment_FR_REAL,001,13,
images/fcloud80-20_D1_10.tif,1.0,2,,,,,,,,,,,,,0,123,123,107,,,,,,,,,,,1,space,6.48598965822,1,1.435,,,,,,,,,,,,,,,,,,2019_Jan_29_1744,60.29884196041611,Cloud_Experiment_FR_REAL,001,13,
images/fcloud65-35_D0.9_8.tif,0.9,1,,,,,,,,,,,,,0,124,124,53,,,,,,,,,,,2,space,6.57877061429,3,1.484,,,,,,,,,,,,,,,,,,2019_Jan_29_1744,60.29884196041611,Cloud_Experiment_FR_REAL,001,13,
images/fcloud_D1.2_8.tif,1.2,0,,,,,,,,,,,,,0,125,125,17,,,,,,,,,,,2,space,6.25964613407,1,0.87,,,,,,,,,,,,,,,,,,2019_Jan_29_1744,60.29884196041611,Cloud_Experiment_FR_REAL,001,13,
images/fcloud80-20_D1.7_7.tif,1.7,2,,,,,,,,,,,,,0,126,126,132,,,,,,,,,,,2,space,5.0392831385,2,0.853,,,,,,,,,,,,,,,,,,2019_Jan_29_1744,60.29884196041611,Cloud_Experiment_FR_REAL,001,13,
images/fcloud_D1.4_8.tif,1.4,0,,,,,,,,,,,,,0,127,127,25,,,,,,,,,,,3,None,,3,1.769,,,,,,,,,,,,,,,,,,2019_Jan_29_1744,60.29884196041611,Cloud_Experiment_FR_REAL,001,13,
images/fcloud65-35_D1.8_10.tif,1.8,1,,,,,,,,,,,,,0,128,128,91,,,,,,,,,,,1,None,,2,0.854,,,,,,,,,,,,,,,,,,2019_Jan_29_1744,60.29884196041611,Cloud_Experiment_FR_REAL,001,13,
images/fcloud80-20_D1.9_10.tif,1.9,2,,,,,,,,,,,,,0,129,129,143,,,,,,,,,,,1,None,,2,0.853,,,,,,,,,,,,,,,,,,2019_Jan_29_1744,60.29884196041611,Cloud_Experiment_FR_REAL,001,13,
images/fcloud_D1.7_8.tif,1.7,0,,,,,,,,,,,,,0,130,130,37,,,,,,,,,,,4,space,2.68841877888,2,0.919,,,,,,,,,,,,,,,,,,2019_Jan_29_1744,60.29884196041611,Cloud_Experiment_FR_REAL,001,13,
images/fcloud80-20_D1.3_8.tif,1.3,2,,,,,,,,,,,,,0,131,131,117,,,,,,,,,,,None,None,,None,13.391,,,,,,,,,,,,,,,,,,2019_Jan_29_1744,60.29884196041611,Cloud_Experiment_FR_REAL,001,13,
images/fcloud80-20_D1.1_8.tif,1.1,2,,,,,,,,,,,,,0,132,132,109,,,,,,,,,,,None,None,,None,27.863,,,,,,,,,,,,,,,,,,2019_Jan_29_1744,60.29884196041611,Cloud_Experiment_FR_REAL,001,13,
images/fcloud65-35_D1.2_7.tif,1.2,1,,,,,,,,,,,,,0,133,133,64,,,,,,,,,,,2,space,6.23575229282,1,0.802,,,,,,,,,,,,,,,,,,2019_Jan_29_1744,60.29884196041611,Cloud_Experiment_FR_REAL,001,13,
images/fcloud80-20_D1.9_7.tif,1.9,2,,,,,,,,,,,,,0,134,134,140,,,,,,,,,,,2,space,6.8030517454,1,0.453,,,,,,,,,,,,,,,,,,2019_Jan_29_1744,60.29884196041611,Cloud_Experiment_FR_REAL,001,13,
images/fcloud80-20_D1.6_10.tif,1.6,2,,,,,,,,,,,,,0,135,135,131,,,,,,,,,,,2,space,1.64418476616,2,1.036,,,,,,,,,,,,,,,,,,2019_Jan_29_1744,60.29884196041611,Cloud_Experiment_FR_REAL,001,13,
images/fcloud65-35_D1_10.tif,1.0,1,,,,,,,,,,,,,0,136,136,59,,,,,,,,,,,1,None,,1,0.902,,,,,,,,,,,,,,,,,,2019_Jan_29_1744,60.29884196041611,Cloud_Experiment_FR_REAL,001,13,
images/fcloud_D1.3_9.tif,1.3,0,,,,,,,,,,,,,0,137,137,22,,,,,,,,,,,3,None,,1,1.336,,,,,,,,,,,,,,,,,,2019_Jan_29_1744,60.29884196041611,Cloud_Experiment_FR_REAL,001,13,
images/fcloud80-20_D1.6_7.tif,1.6,2,,,,,,,,,,,,,0,138,138,128,,,,,,,,,,,2,space,5.74158811462,3,1.985,,,,,,,,,,,,,,,,,,2019_Jan_29_1744,60.29884196041611,Cloud_Experiment_FR_REAL,001,13,
images/fcloud_D1.2_7.tif,1.2,0,,,,,,,,,,,,,0,139,139,16,,,,,,,,,,,1,space,4.78777039991,1,0.836,,,,,,,,,,,,,,,,,,2019_Jan_29_1744,60.29884196041611,Cloud_Experiment_FR_REAL,001,13,
images/fcloud65-35_D0.8_9.tif,0.8,1,,,,,,,,,,,,,0,140,140,50,,,,,,,,,,,1,None,,1,0.769,,,,,,,,,,,,,,,,,,2019_Jan_29_1744,60.29884196041611,Cloud_Experiment_FR_REAL,001,13,
images/fcloud80-20_D1.4_8.tif,1.4,2,,,,,,,,,,,,,0,141,141,121,,,,,,,,,,,2,space,3.98943306296,2,0.734,,,,,,,,,,,,,,,,,,2019_Jan_29_1744,60.29884196041611,Cloud_Experiment_FR_REAL,001,13,
images/fcloud_D0.9_9.tif,0.9,0,,,,,,,,,,,,,0,142,142,6,,,,,,,,,,,3,space,3.15294865146,3,4.383,,,,,,,,,,,,,,,,,,2019_Jan_29_1744,60.29884196041611,Cloud_Experiment_FR_REAL,001,13,
images/fcloud_D1.6_9.tif,1.6,0,,,,,,,,,,,,,0,143,143,34,,,,,,,,,,,2,space,4.33720331895,1,0.801,,,,,,,,,,,,,,,,,,2019_Jan_29_1744,60.29884196041611,Cloud_Experiment_FR_REAL,001,13,
,,,,,,,,,,,,,,,,,,,,,,,,,5,8.285,,,,,,,,,,,,,,,,,,,,,,,,,2019_Jan_29_1744,60.29884196041611,Cloud_Experiment_FR_REAL,001,13,
,,,,,,,,,,,,,,,,,,,,,,,,,,,,,,,,,,7,,,,,,,,,,,,,,,,,2019_Jan_29_1744,60.29884196041611,Cloud_Experiment_FR_REAL,001,13,
,,,,,,,,,,,,,,,,,,,,,,,,,,,,,,,,,,,7,,,,,,,,,,,,,,,,2019_Jan_29_1744,60.29884196041611,Cloud_Experiment_FR_REAL,001,13,
,,,,,,,,,,,,,,,,,,,,,,,,,,,,,,,,,,,,7,,,,,,,,,,,,,,,2019_Jan_29_1744,60.29884196041611,Cloud_Experiment_FR_REAL,001,13,
,,,,,,,,,,,,,,,,,,,,,,,,,,,,,,,,,,,,,1,,,,,,,,,,,,,,2019_Jan_29_1744,60.29884196041611,Cloud_Experiment_FR_REAL,001,13,
,,,,,,,,,,,,,,,,,,,,,,,,,,,,,,,,,,,,,,7,,,,,,,,,,,,,2019_Jan_29_1744,60.29884196041611,Cloud_Experiment_FR_REAL,001,13,
,,,,,,,,,,,,,,,,,,,,,,,,,,,,,,,,,,,,,,,7,,,,,,,,,,,,2019_Jan_29_1744,60.29884196041611,Cloud_Experiment_FR_REAL,001,13,
,,,,,,,,,,,,,,,,,,,,,,,,,,,,,,,,,,,,,,,,7,,,,,,,,,,,2019_Jan_29_1744,60.29884196041611,Cloud_Experiment_FR_REAL,001,13,
,,,,,,,,,,,,,,,,,,,,,,,,,,,,,,,,,,,,,,,,,4,,,,,,,,,,2019_Jan_29_1744,60.29884196041611,Cloud_Experiment_FR_REAL,001,13,
,,,,,,,,,,,,,,,,,,,,,,,,,,,,,,,,,,,,,,,,,,1,,,,,,,,,2019_Jan_29_1744,60.29884196041611,Cloud_Experiment_FR_REAL,001,13,
,,,,,,,,,,,,,,,,,,,,,,,,,,,,,,,,,,,,,,,,,,,7,,,,,,,,2019_Jan_29_1744,60.29884196041611,Cloud_Experiment_FR_REAL,001,13,
,,,,,,,,,,,,,,,,,,,,,,,,,,,,,,,,,,,,,,,,,,,,,,,,,,4,2019_Jan_29_1744,60.29884196041611,Cloud_Experiment_FR_REAL,001,13,
