ImageFile,FD,Contrast,trials_4.thisRepN,trials_4.thisTrialN,trials_4.thisN,trials_4.thisIndex,trials.thisRepN,trials.thisTrialN,trials.thisN,trials.thisIndex,trials_2.thisRepN,trials_2.thisTrialN,trials_2.thisN,trials_2.thisIndex,trials_3.thisRepN,trials_3.thisTrialN,trials_3.thisN,trials_3.thisIndex,end_instructions.keys,end_instructions.rt,key_resp_4.keys,key_resp_4.rt,key_resp_6.keys,key_resp_6.rt,Fatigue.response,Fatigue.rt,key_resp_5.keys,key_resp_5.rt,n_objets.response,reaction_time.keys,vividness.response,vividness.rt,reaction_time.rt,Flow01.response,Flow02.response,Flow03.response,Flow04.response,Flow05.response,Flow06.response,Flow07.response,Flow08.response,Flow09.response,Flow10.response,key_resp_2.keys,key_resp_2.rt,key_resp_8.keys,key_resp_8.rt,key_resp_3.keys,key_resp_3.rt,Redondance_question.response,date,frameRate,expName,session,participant,
,,,,,,,,,,,,,,,,,,,space,16.745372072,,,,,,,,,,,,,,,,,,,,,,,,,,,,,,,2019_Feb_01_1646,60.07674395815525,Cloud_Experiment_FR_REAL,001,14,
,,,,,,,,,,,,,,,,,,,,,space,179.83068037,,,,,,,,,,,,,,,,,,,,,,,,,,,,,2019_Feb_01_1646,60.07674395815525,Cloud_Experiment_FR_REAL,001,14,
,,,,,,,,,,,,,,,,,,,,,,,space,47.759935311,,,,,,,,,,,,,,,,,,,,,,,,,,,2019_Feb_01_1646,60.07674395815525,Cloud_Experiment_FR_REAL,001,14,
,,,,,,,,,,,,,,,,,,,,,,,,,8,8.581,,,,,,,,,,,,,,,,,,,,,,,,,2019_Feb_01_1646,60.07674395815525,Cloud_Experiment_FR_REAL,001,14,
,,,,,,,,,,,,,,,,,,,,,,,,,,,space,3.21430374301,,,,,,,,,,,,,,,,,,,,,,,2019_Feb_01_1646,60.07674395815525,Cloud_Experiment_FR_REAL,001,14,
pratique/fcloud_D1.6_28,1.6,0,0,0,0,5,,,,,,,,,,,,,,,,,,,,,,,None,None,None,268.73,,,,,,,,,,,,,,,,,,,2019_Feb_01_1646,60.07674395815525,Cloud_Experiment_FR_REAL,001,14,
pratique/fcloud65-35_D1.3_30,1.3,1,0,1,1,6,,,,,,,,,,,,,,,,,,,,,,,None,None,None,278.465,,,,,,,,,,,,,,,,,,,2019_Feb_01_1646,60.07674395815525,Cloud_Experiment_FR_REAL,001,14,
pratique/fcloud80-20_D1.5_30,1.5,2,0,2,2,8,,,,,,,,,,,,,,,,,,,,,,,1,space,1,2.768,10.9250766845,,,,,,,,,,,,,,,,,,2019_Feb_01_1646,60.07674395815525,Cloud_Experiment_FR_REAL,001,14,
pratique/fcloud_D0.8_30,0.8,0,0,3,3,0,,,,,,,,,,,,,,,,,,,,,,,2,None,2,1.502,,,,,,,,,,,,,,,,,,,2019_Feb_01_1646,60.07674395815525,Cloud_Experiment_FR_REAL,001,14,
pratique/fcloud80-20_D1_30,1.0,2,0,4,4,9,,,,,,,,,,,,,,,,,,,,,,,None,None,None,11.007,,,,,,,,,,,,,,,,,,,2019_Feb_01_1646,60.07674395815525,Cloud_Experiment_FR_REAL,001,14,
pratique/fcloud80-20_D1.8_30,1.8,2,0,5,5,4,,,,,,,,,,,,,,,,,,,,,,,None,None,None,19.966,,,,,,,,,,,,,,,,,,,2019_Feb_01_1646,60.07674395815525,Cloud_Experiment_FR_REAL,001,14,
pratique/fcloud65-35_D1.2_30,1.2,1,0,6,6,3,,,,,,,,,,,,,,,,,,,,,,,1,None,1,0.738,,,,,,,,,,,,,,,,,,,2019_Feb_01_1646,60.07674395815525,Cloud_Experiment_FR_REAL,001,14,
pratique/fcloud65-35_D1.9_29,1.9,1,0,7,7,7,,,,,,,,,,,,,,,,,,,,,,,None,None,None,10.441,,,,,,,,,,,,,,,,,,,2019_Feb_01_1646,60.07674395815525,Cloud_Experiment_FR_REAL,001,14,
pratique/fcloud_D1.4_30,1.4,0,0,8,8,1,,,,,,,,,,,,,,,,,,,,,,,1,space,1,2.285,5.67488506967,,,,,,,,,,,,,,,,,,2019_Feb_01_1646,60.07674395815525,Cloud_Experiment_FR_REAL,001,14,
pratique/fcloud65-35_D1.6_30,1.6,1,0,9,9,2,,,,,,,,,,,,,,,,,,,,,,,None,None,None,11.596,,,,,,,,,,,,,,,,,,,2019_Feb_01_1646,60.07674395815525,Cloud_Experiment_FR_REAL,001,14,
,,,,,,,,,,,,,,,,,,,,,,,,,,,,,,,,,,6,,,,,,,,,,,,,,,,,2019_Feb_01_1646,60.07674395815525,Cloud_Experiment_FR_REAL,001,14,
,,,,,,,,,,,,,,,,,,,,,,,,,,,,,,,,,,,4,,,,,,,,,,,,,,,,2019_Feb_01_1646,60.07674395815525,Cloud_Experiment_FR_REAL,001,14,
,,,,,,,,,,,,,,,,,,,,,,,,,,,,,,,,,,,,3,,,,,,,,,,,,,,,2019_Feb_01_1646,60.07674395815525,Cloud_Experiment_FR_REAL,001,14,
,,,,,,,,,,,,,,,,,,,,,,,,,,,,,,,,,,,,,3,,,,,,,,,,,,,,2019_Feb_01_1646,60.07674395815525,Cloud_Experiment_FR_REAL,001,14,
,,,,,,,,,,,,,,,,,,,,,,,,,,,,,,,,,,,,,,5,,,,,,,,,,,,,2019_Feb_01_1646,60.07674395815525,Cloud_Experiment_FR_REAL,001,14,
,,,,,,,,,,,,,,,,,,,,,,,,,,,,,,,,,,,,,,,6,,,,,,,,,,,,2019_Feb_01_1646,60.07674395815525,Cloud_Experiment_FR_REAL,001,14,
,,,,,,,,,,,,,,,,,,,,,,,,,,,,,,,,,,,,,,,,3,,,,,,,,,,,2019_Feb_01_1646,60.07674395815525,Cloud_Experiment_FR_REAL,001,14,
,,,,,,,,,,,,,,,,,,,,,,,,,,,,,,,,,,,,,,,,,7,,,,,,,,,,2019_Feb_01_1646,60.07674395815525,Cloud_Experiment_FR_REAL,001,14,
,,,,,,,,,,,,,,,,,,,,,,,,,,,,,,,,,,,,,,,,,,7,,,,,,,,,2019_Feb_01_1646,60.07674395815525,Cloud_Experiment_FR_REAL,001,14,
,,,,,,,,,,,,,,,,,,,,,,,,,,,,,,,,,,,,,,,,,,,5,,,,,,,,2019_Feb_01_1646,60.07674395815525,Cloud_Experiment_FR_REAL,001,14,
,,,,,,,,,,,,,,,,,,,,,,,,,,,,,,,,,,,,,,,,,,,,space,14.2877661081,,,,,,2019_Feb_01_1646,60.07674395815525,Cloud_Experiment_FR_REAL,001,14,
images/fcloud65-35_D1.7_2.tif,1.7,1,,,,,0,0,0,64,,,,,,,,,,,,,,,,,,,None,None,None,80.83,,,,,,,,,,,,,,,,,,,2019_Feb_01_1646,60.07674395815525,Cloud_Experiment_FR_REAL,001,14,
images/fcloud_D1.4_2.tif,1.4,0,,,,,0,1,1,19,,,,,,,,,,,,,,,,,,,None,None,None,90.055,,,,,,,,,,,,,,,,,,,2019_Feb_01_1646,60.07674395815525,Cloud_Experiment_FR_REAL,001,14,
images/fcloud_D1.2_3.tif,1.2,0,,,,,0,2,2,14,,,,,,,,,,,,,,,,,,,2,space,2,1.486,4.72185190117,,,,,,,,,,,,,,,,,,2019_Feb_01_1646,60.07674395815525,Cloud_Experiment_FR_REAL,001,14,
images/fcloud65-35_D0.9_3.tif,0.9,1,,,,,0,3,3,41,,,,,,,,,,,,,,,,,,,None,None,None,10.878,,,,,,,,,,,,,,,,,,,2019_Feb_01_1646,60.07674395815525,Cloud_Experiment_FR_REAL,001,14,
images/fcloud80-20_D1.2_1.tif,1.2,2,,,,,0,4,4,84,,,,,,,,,,,,,,,,,,,None,None,None,19.835,,,,,,,,,,,,,,,,,,,2019_Feb_01_1646,60.07674395815525,Cloud_Experiment_FR_REAL,001,14,
images/fcloud80-20_D1.6_1.tif,1.6,2,,,,,0,5,5,96,,,,,,,,,,,,,,,,,,,None,None,None,28.696,,,,,,,,,,,,,,,,,,,2019_Feb_01_1646,60.07674395815525,Cloud_Experiment_FR_REAL,001,14,
images/fcloud80-20_D1.6_3.tif,1.6,2,,,,,0,6,6,98,,,,,,,,,,,,,,,,,,,1,space,1,1.488,4.74928507501,,,,,,,,,,,,,,,,,,2019_Feb_01_1646,60.07674395815525,Cloud_Experiment_FR_REAL,001,14,
images/fcloud65-35_D0.8_1.tif,0.8,1,,,,,0,7,7,36,,,,,,,,,,,,,,,,,,,1,None,1,1.435,,,,,,,,,,,,,,,,,,,2019_Feb_01_1646,60.07674395815525,Cloud_Experiment_FR_REAL,001,14,
images/fcloud80-20_D1.3_2.tif,1.3,2,,,,,0,8,8,88,,,,,,,,,,,,,,,,,,,None,None,None,10.558,,,,,,,,,,,,,,,,,,,2019_Feb_01_1646,60.07674395815525,Cloud_Experiment_FR_REAL,001,14,
images/fcloud80-20_D1.1_2.tif,1.1,2,,,,,0,9,9,82,,,,,,,,,,,,,,,,,,,1,space,1,0.95,5.76223880114,,,,,,,,,,,,,,,,,,2019_Feb_01_1646,60.07674395815525,Cloud_Experiment_FR_REAL,001,14,
images/fcloud_D0.9_3.tif,0.9,0,,,,,0,10,10,5,,,,,,,,,,,,,,,,,,,None,None,None,10.192,,,,,,,,,,,,,,,,,,,2019_Feb_01_1646,60.07674395815525,Cloud_Experiment_FR_REAL,001,14,
images/fcloud80-20_D1.1_1.tif,1.1,2,,,,,0,11,11,81,,,,,,,,,,,,,,,,,,,None,None,None,19.567,,,,,,,,,,,,,,,,,,,2019_Feb_01_1646,60.07674395815525,Cloud_Experiment_FR_REAL,001,14,
images/fcloud80-20_D1.4_1.tif,1.4,2,,,,,0,12,12,90,,,,,,,,,,,,,,,,,,,None,None,None,28.51,,,,,,,,,,,,,,,,,,,2019_Feb_01_1646,60.07674395815525,Cloud_Experiment_FR_REAL,001,14,
images/fcloud80-20_D1_3.tif,1.0,2,,,,,0,13,13,80,,,,,,,,,,,,,,,,,,,1,space,1,0.901,6.64687820805,,,,,,,,,,,,,,,,,,2019_Feb_01_1646,60.07674395815525,Cloud_Experiment_FR_REAL,001,14,
images/fcloud_D1.1_3.tif,1.1,0,,,,,0,14,14,11,,,,,,,,,,,,,,,,,,,1,space,3,2.083,2.28524979835,,,,,,,,,,,,,,,,,,2019_Feb_01_1646,60.07674395815525,Cloud_Experiment_FR_REAL,001,14,
images/fcloud_D1.3_1.tif,1.3,0,,,,,0,15,15,15,,,,,,,,,,,,,,,,,,,2,space,2,2.185,3.89008635646,,,,,,,,,,,,,,,,,,2019_Feb_01_1646,60.07674395815525,Cloud_Experiment_FR_REAL,001,14,
images/fcloud65-35_D0.9_2.tif,0.9,1,,,,,0,16,16,40,,,,,,,,,,,,,,,,,,,None,None,None,11.425,,,,,,,,,,,,,,,,,,,2019_Feb_01_1646,60.07674395815525,Cloud_Experiment_FR_REAL,001,14,
images/fcloud65-35_D1.9_3.tif,1.9,1,,,,,0,17,17,71,,,,,,,,,,,,,,,,,,,None,None,None,20.017,,,,,,,,,,,,,,,,,,,2019_Feb_01_1646,60.07674395815525,Cloud_Experiment_FR_REAL,001,14,
images/fcloud65-35_D1.1_3.tif,1.1,1,,,,,0,18,18,47,,,,,,,,,,,,,,,,,,,None,None,None,28.677,,,,,,,,,,,,,,,,,,,2019_Feb_01_1646,60.07674395815525,Cloud_Experiment_FR_REAL,001,14,
images/fcloud_D1.8_2.tif,1.8,0,,,,,0,19,19,31,,,,,,,,,,,,,,,,,,,None,None,None,37.091,,,,,,,,,,,,,,,,,,,2019_Feb_01_1646,60.07674395815525,Cloud_Experiment_FR_REAL,001,14,
images/fcloud_D1.1_2.tif,1.1,0,,,,,0,20,20,10,,,,,,,,,,,,,,,,,,,None,None,None,45.561,,,,,,,,,,,,,,,,,,,2019_Feb_01_1646,60.07674395815525,Cloud_Experiment_FR_REAL,001,14,
images/fcloud65-35_D1.4_2.tif,1.4,1,,,,,0,21,21,55,,,,,,,,,,,,,,,,,,,1,space,1,0.784,6.60324657934,,,,,,,,,,,,,,,,,,2019_Feb_01_1646,60.07674395815525,Cloud_Experiment_FR_REAL,001,14,
images/fcloud_D1_3.tif,1.0,0,,,,,0,22,22,8,,,,,,,,,,,,,,,,,,,None,None,None,9.877,,,,,,,,,,,,,,,,,,,2019_Feb_01_1646,60.07674395815525,Cloud_Experiment_FR_REAL,001,14,
images/fcloud80-20_D0.8_2.tif,0.8,2,,,,,0,23,23,73,,,,,,,,,,,,,,,,,,,1,space,1,0.753,5.52841219569,,,,,,,,,,,,,,,,,,2019_Feb_01_1646,60.07674395815525,Cloud_Experiment_FR_REAL,001,14,
images/fcloud65-35_D1.9_1.tif,1.9,1,,,,,0,24,24,69,,,,,,,,,,,,,,,,,,,None,None,None,9.811,,,,,,,,,,,,,,,,,,,2019_Feb_01_1646,60.07674395815525,Cloud_Experiment_FR_REAL,001,14,
images/fcloud65-35_D1.8_2.tif,1.8,1,,,,,0,25,25,67,,,,,,,,,,,,,,,,,,,1,space,1,1.435,5.28518194282,,,,,,,,,,,,,,,,,,2019_Feb_01_1646,60.07674395815525,Cloud_Experiment_FR_REAL,001,14,
images/fcloud65-35_D1.5_3.tif,1.5,1,,,,,0,26,26,59,,,,,,,,,,,,,,,,,,,None,None,None,11.06,,,,,,,,,,,,,,,,,,,2019_Feb_01_1646,60.07674395815525,Cloud_Experiment_FR_REAL,001,14,
images/fcloud80-20_D1.5_1.tif,1.5,2,,,,,0,27,27,93,,,,,,,,,,,,,,,,,,,None,None,None,20.552,,,,,,,,,,,,,,,,,,,2019_Feb_01_1646,60.07674395815525,Cloud_Experiment_FR_REAL,001,14,
images/fcloud80-20_D0.9_3.tif,0.9,2,,,,,0,28,28,77,,,,,,,,,,,,,,,,,,,None,space,None,29.458,6.32924075301,,,,,,,,,,,,,,,,,,2019_Feb_01_1646,60.07674395815525,Cloud_Experiment_FR_REAL,001,14,
images/fcloud_D1.2_1.tif,1.2,0,,,,,0,29,29,12,,,,,,,,,,,,,,,,,,,1,space,1,1.201,8.00602166545,,,,,,,,,,,,,,,,,,2019_Feb_01_1646,60.07674395815525,Cloud_Experiment_FR_REAL,001,14,
images/fcloud_D1.4_1.tif,1.4,0,,,,,0,30,30,18,,,,,,,,,,,,,,,,,,,None,None,None,10.293,,,,,,,,,,,,,,,,,,,2019_Feb_01_1646,60.07674395815525,Cloud_Experiment_FR_REAL,001,14,
images/fcloud80-20_D1.4_3.tif,1.4,2,,,,,0,31,31,92,,,,,,,,,,,,,,,,,,,None,None,None,19.468,,,,,,,,,,,,,,,,,,,2019_Feb_01_1646,60.07674395815525,Cloud_Experiment_FR_REAL,001,14,
images/fcloud_D1.8_1.tif,1.8,0,,,,,0,32,32,30,,,,,,,,,,,,,,,,,,,1,space,1,2.349,6.64352244296,,,,,,,,,,,,,,,,,,2019_Feb_01_1646,60.07674395815525,Cloud_Experiment_FR_REAL,001,14,
images/fcloud80-20_D1.9_1.tif,1.9,2,,,,,0,33,33,105,,,,,,,,,,,,,,,,,,,1,None,2,2.916,,,,,,,,,,,,,,,,,,,2019_Feb_01_1646,60.07674395815525,Cloud_Experiment_FR_REAL,001,14,
images/fcloud_D1_2.tif,1.0,0,,,,,0,34,34,7,,,,,,,,,,,,,,,,,,,None,None,None,11.364,,,,,,,,,,,,,,,,,,,2019_Feb_01_1646,60.07674395815525,Cloud_Experiment_FR_REAL,001,14,
images/fcloud_D0.8_1.tif,0.8,0,,,,,0,35,35,0,,,,,,,,,,,,,,,,,,,None,None,None,20.432,,,,,,,,,,,,,,,,,,,2019_Feb_01_1646,60.07674395815525,Cloud_Experiment_FR_REAL,001,14,
images/fcloud80-20_D1.7_3.tif,1.7,2,,,,,0,36,36,101,,,,,,,,,,,,,,,,,,,None,None,None,29.51,,,,,,,,,,,,,,,,,,,2019_Feb_01_1646,60.07674395815525,Cloud_Experiment_FR_REAL,001,14,
images/fcloud80-20_D1.9_3.tif,1.9,2,,,,,0,37,37,107,,,,,,,,,,,,,,,,,,,None,None,None,38.087,,,,,,,,,,,,,,,,,,,2019_Feb_01_1646,60.07674395815525,Cloud_Experiment_FR_REAL,001,14,
images/fcloud_D1.7_3.tif,1.7,0,,,,,0,38,38,29,,,,,,,,,,,,,,,,,,,1,None,None,None,,,,,,,,,,,,,,,,,,,2019_Feb_01_1646,60.07674395815525,Cloud_Experiment_FR_REAL,001,14,
images/fcloud65-35_D0.9_1.tif,0.9,1,,,,,0,39,39,39,,,,,,,,,,,,,,,,,,,None,None,None,9.708,,,,,,,,,,,,,,,,,,,2019_Feb_01_1646,60.07674395815525,Cloud_Experiment_FR_REAL,001,14,
images/fcloud80-20_D1.3_3.tif,1.3,2,,,,,0,40,40,89,,,,,,,,,,,,,,,,,,,1,space,1,1.484,2.14043373059,,,,,,,,,,,,,,,,,,2019_Feb_01_1646,60.07674395815525,Cloud_Experiment_FR_REAL,001,14,
images/fcloud_D1.4_3.tif,1.4,0,,,,,0,41,41,20,,,,,,,,,,,,,,,,,,,1,space,2,1.304,7.06050298437,,,,,,,,,,,,,,,,,,2019_Feb_01_1646,60.07674395815525,Cloud_Experiment_FR_REAL,001,14,
images/fcloud65-35_D1_1.tif,1.0,1,,,,,0,42,42,42,,,,,,,,,,,,,,,,,,,None,None,None,10.096,,,,,,,,,,,,,,,,,,,2019_Feb_01_1646,60.07674395815525,Cloud_Experiment_FR_REAL,001,14,
images/fcloud65-35_D1.2_1.tif,1.2,1,,,,,0,43,43,48,,,,,,,,,,,,,,,,,,,2,space,1,1.405,5.91078486759,,,,,,,,,,,,,,,,,,2019_Feb_01_1646,60.07674395815525,Cloud_Experiment_FR_REAL,001,14,
images/fcloud_D1.6_3.tif,1.6,0,,,,,0,44,44,26,,,,,,,,,,,,,,,,,,,1,space,1,0.953,6.05161442218,,,,,,,,,,,,,,,,,,2019_Feb_01_1646,60.07674395815525,Cloud_Experiment_FR_REAL,001,14,
images/fcloud_D1.7_1.tif,1.7,0,,,,,0,45,45,27,,,,,,,,,,,,,,,,,,,None,None,None,10.264,,,,,,,,,,,,,,,,,,,2019_Feb_01_1646,60.07674395815525,Cloud_Experiment_FR_REAL,001,14,
images/fcloud_D1.9_2.tif,1.9,0,,,,,0,46,46,34,,,,,,,,,,,,,,,,,,,1,space,3,2.265,7.39778564742,,,,,,,,,,,,,,,,,,2019_Feb_01_1646,60.07674395815525,Cloud_Experiment_FR_REAL,001,14,
images/fcloud80-20_D1.8_2.tif,1.8,2,,,,,0,47,47,103,,,,,,,,,,,,,,,,,,,None,None,None,11.225,,,,,,,,,,,,,,,,,,,2019_Feb_01_1646,60.07674395815525,Cloud_Experiment_FR_REAL,001,14,
images/fcloud65-35_D1_2.tif,1.0,1,,,,,0,48,48,43,,,,,,,,,,,,,,,,,,,None,None,None,19.987,,,,,,,,,,,,,,,,,,,2019_Feb_01_1646,60.07674395815525,Cloud_Experiment_FR_REAL,001,14,
images/fcloud_D1.7_2.tif,1.7,0,,,,,0,49,49,28,,,,,,,,,,,,,,,,,,,None,None,None,28.796,,,,,,,,,,,,,,,,,,,2019_Feb_01_1646,60.07674395815525,Cloud_Experiment_FR_REAL,001,14,
images/fcloud80-20_D1.1_3.tif,1.1,2,,,,,0,50,50,83,,,,,,,,,,,,,,,,,,,None,None,None,37.883,,,,,,,,,,,,,,,,,,,2019_Feb_01_1646,60.07674395815525,Cloud_Experiment_FR_REAL,001,14,
images/fcloud65-35_D1.6_1.tif,1.6,1,,,,,0,51,51,60,,,,,,,,,,,,,,,,,,,None,None,None,46.576,,,,,,,,,,,,,,,,,,,2019_Feb_01_1646,60.07674395815525,Cloud_Experiment_FR_REAL,001,14,
images/fcloud80-20_D1_1.tif,1.0,2,,,,,0,52,52,78,,,,,,,,,,,,,,,,,,,None,None,None,56.451,,,,,,,,,,,,,,,,,,,2019_Feb_01_1646,60.07674395815525,Cloud_Experiment_FR_REAL,001,14,
images/fcloud80-20_D1.8_1.tif,1.8,2,,,,,0,53,53,102,,,,,,,,,,,,,,,,,,,1,space,2,2.782,6.24365692033,,,,,,,,,,,,,,,,,,2019_Feb_01_1646,60.07674395815525,Cloud_Experiment_FR_REAL,001,14,
images/fcloud_D0.9_1.tif,0.9,0,,,,,0,54,54,3,,,,,,,,,,,,,,,,,,,2,space,2,1.067,6.12278306429,,,,,,,,,,,,,,,,,,2019_Feb_01_1646,60.07674395815525,Cloud_Experiment_FR_REAL,001,14,
images/fcloud80-20_D0.9_2.tif,0.9,2,,,,,0,55,55,76,,,,,,,,,,,,,,,,,,,None,None,None,10.343,,,,,,,,,,,,,,,,,,,2019_Feb_01_1646,60.07674395815525,Cloud_Experiment_FR_REAL,001,14,
images/fcloud65-35_D1.6_3.tif,1.6,1,,,,,0,56,56,62,,,,,,,,,,,,,,,,,,,None,None,None,19.184,,,,,,,,,,,,,,,,,,,2019_Feb_01_1646,60.07674395815525,Cloud_Experiment_FR_REAL,001,14,
images/fcloud65-35_D1.2_3.tif,1.2,1,,,,,0,57,57,50,,,,,,,,,,,,,,,,,,,1,space,2,1.201,5.12788713771,,,,,,,,,,,,,,,,,,2019_Feb_01_1646,60.07674395815525,Cloud_Experiment_FR_REAL,001,14,
images/fcloud65-35_D1.6_2.tif,1.6,1,,,,,0,58,58,61,,,,,,,,,,,,,,,,,,,None,None,None,10.711,,,,,,,,,,,,,,,,,,,2019_Feb_01_1646,60.07674395815525,Cloud_Experiment_FR_REAL,001,14,
images/fcloud_D1.3_2.tif,1.3,0,,,,,0,59,59,16,,,,,,,,,,,,,,,,,,,None,None,None,19.622,,,,,,,,,,,,,,,,,,,2019_Feb_01_1646,60.07674395815525,Cloud_Experiment_FR_REAL,001,14,
images/fcloud80-20_D1.8_3.tif,1.8,2,,,,,0,60,60,104,,,,,,,,,,,,,,,,,,,1,space,3,1.285,3.9567641953,,,,,,,,,,,,,,,,,,2019_Feb_01_1646,60.07674395815525,Cloud_Experiment_FR_REAL,001,14,
images/fcloud80-20_D1.2_2.tif,1.2,2,,,,,0,61,61,85,,,,,,,,,,,,,,,,,,,None,None,None,9.759,,,,,,,,,,,,,,,,,,,2019_Feb_01_1646,60.07674395815525,Cloud_Experiment_FR_REAL,001,14,
images/fcloud65-35_D1_3.tif,1.0,1,,,,,0,62,62,44,,,,,,,,,,,,,,,,,,,None,None,None,18.318,,,,,,,,,,,,,,,,,,,2019_Feb_01_1646,60.07674395815525,Cloud_Experiment_FR_REAL,001,14,
images/fcloud80-20_D1_2.tif,1.0,2,,,,,0,63,63,79,,,,,,,,,,,,,,,,,,,1,space,1,0.936,6.62154392952,,,,,,,,,,,,,,,,,,2019_Feb_01_1646,60.07674395815525,Cloud_Experiment_FR_REAL,001,14,
images/fcloud65-35_D1.3_3.tif,1.3,1,,,,,0,64,64,53,,,,,,,,,,,,,,,,,,,None,None,None,9.925,,,,,,,,,,,,,,,,,,,2019_Feb_01_1646,60.07674395815525,Cloud_Experiment_FR_REAL,001,14,
images/fcloud65-35_D1.1_2.tif,1.1,1,,,,,0,65,65,46,,,,,,,,,,,,,,,,,,,1,space,1,0.897,5.39245333261,,,,,,,,,,,,,,,,,,2019_Feb_01_1646,60.07674395815525,Cloud_Experiment_FR_REAL,001,14,
images/fcloud_D1.5_2.tif,1.5,0,,,,,0,66,66,22,,,,,,,,,,,,,,,,,,,None,space,None,10.921,7.93190490561,,,,,,,,,,,,,,,,,,2019_Feb_01_1646,60.07674395815525,Cloud_Experiment_FR_REAL,001,14,
images/fcloud80-20_D0.9_1.tif,0.9,2,,,,,0,67,67,75,,,,,,,,,,,,,,,,,,,1,space,3,2.617,5.16990668321,,,,,,,,,,,,,,,,,,2019_Feb_01_1646,60.07674395815525,Cloud_Experiment_FR_REAL,001,14,
images/fcloud65-35_D1.8_1.tif,1.8,1,,,,,0,68,68,66,,,,,,,,,,,,,,,,,,,None,None,None,11.762,,,,,,,,,,,,,,,,,,,2019_Feb_01_1646,60.07674395815525,Cloud_Experiment_FR_REAL,001,14,
images/fcloud_D1.5_3.tif,1.5,0,,,,,0,69,69,23,,,,,,,,,,,,,,,,,,,1,space,3,1.367,4.21434383946,,,,,,,,,,,,,,,,,,2019_Feb_01_1646,60.07674395815525,Cloud_Experiment_FR_REAL,001,14,
images/fcloud80-20_D1.7_2.tif,1.7,2,,,,,0,70,70,100,,,,,,,,,,,,,,,,,,,None,None,None,10.325,,,,,,,,,,,,,,,,,,,2019_Feb_01_1646,60.07674395815525,Cloud_Experiment_FR_REAL,001,14,
images/fcloud80-20_D1.5_3.tif,1.5,2,,,,,0,71,71,95,,,,,,,,,,,,,,,,,,,None,None,None,19.238,,,,,,,,,,,,,,,,,,,2019_Feb_01_1646,60.07674395815525,Cloud_Experiment_FR_REAL,001,14,
images/fcloud80-20_D1.6_2.tif,1.6,2,,,,,0,72,72,97,,,,,,,,,,,,,,,,,,,None,None,None,28.043,,,,,,,,,,,,,,,,,,,2019_Feb_01_1646,60.07674395815525,Cloud_Experiment_FR_REAL,001,14,
images/fcloud_D1.1_1.tif,1.1,0,,,,,0,73,73,9,,,,,,,,,,,,,,,,,,,None,None,None,36.438,,,,,,,,,,,,,,,,,,,2019_Feb_01_1646,60.07674395815525,Cloud_Experiment_FR_REAL,001,14,
images/fcloud65-35_D0.8_2.tif,0.8,1,,,,,0,74,74,37,,,,,,,,,,,,,,,,,,,1,space,4,2.651,2.94590833641,,,,,,,,,,,,,,,,,,2019_Feb_01_1646,60.07674395815525,Cloud_Experiment_FR_REAL,001,14,
images/fcloud80-20_D1.9_2.tif,1.9,2,,,,,0,75,75,106,,,,,,,,,,,,,,,,,,,None,None,None,11.691,,,,,,,,,,,,,,,,,,,2019_Feb_01_1646,60.07674395815525,Cloud_Experiment_FR_REAL,001,14,
images/fcloud65-35_D0.8_3.tif,0.8,1,,,,,0,76,76,38,,,,,,,,,,,,,,,,,,,None,None,None,20.316,,,,,,,,,,,,,,,,,,,2019_Feb_01_1646,60.07674395815525,Cloud_Experiment_FR_REAL,001,14,
images/fcloud65-35_D1.5_1.tif,1.5,1,,,,,0,77,77,57,,,,,,,,,,,,,,,,,,,None,None,None,28.977,,,,,,,,,,,,,,,,,,,2019_Feb_01_1646,60.07674395815525,Cloud_Experiment_FR_REAL,001,14,
images/fcloud_D1.6_2.tif,1.6,0,,,,,0,78,78,25,,,,,,,,,,,,,,,,,,,2,space,2,1.517,5.01231732336,,,,,,,,,,,,,,,,,,2019_Feb_01_1646,60.07674395815525,Cloud_Experiment_FR_REAL,001,14,
images/fcloud65-35_D1.8_3.tif,1.8,1,,,,,0,79,79,68,,,,,,,,,,,,,,,,,,,None,None,None,10.329,,,,,,,,,,,,,,,,,,,2019_Feb_01_1646,60.07674395815525,Cloud_Experiment_FR_REAL,001,14,
images/fcloud_D1_1.tif,1.0,0,,,,,0,80,80,6,,,,,,,,,,,,,,,,,,,None,None,None,18.953,,,,,,,,,,,,,,,,,,,2019_Feb_01_1646,60.07674395815525,Cloud_Experiment_FR_REAL,001,14,
images/fcloud_D1.9_1.tif,1.9,0,,,,,0,81,81,33,,,,,,,,,,,,,,,,,,,1,space,2,1.585,7.56932857454,,,,,,,,,,,,,,,,,,2019_Feb_01_1646,60.07674395815525,Cloud_Experiment_FR_REAL,001,14,
images/fcloud65-35_D1.4_3.tif,1.4,1,,,,,0,82,82,56,,,,,,,,,,,,,,,,,,,1,space,2,1.172,6.58268069493,,,,,,,,,,,,,,,,,,2019_Feb_01_1646,60.07674395815525,Cloud_Experiment_FR_REAL,001,14,
images/fcloud_D1.8_3.tif,1.8,0,,,,,0,83,83,32,,,,,,,,,,,,,,,,,,,None,None,None,10.425,,,,,,,,,,,,,,,,,,,2019_Feb_01_1646,60.07674395815525,Cloud_Experiment_FR_REAL,001,14,
images/fcloud65-35_D1.9_2.tif,1.9,1,,,,,0,84,84,70,,,,,,,,,,,,,,,,,,,2,space,2,1.85,5.79015570278,,,,,,,,,,,,,,,,,,2019_Feb_01_1646,60.07674395815525,Cloud_Experiment_FR_REAL,001,14,
images/fcloud_D1.2_2.tif,1.2,0,,,,,0,85,85,13,,,,,,,,,,,,,,,,,,,3,space,3,3.434,2.94285278072,,,,,,,,,,,,,,,,,,2019_Feb_01_1646,60.07674395815525,Cloud_Experiment_FR_REAL,001,14,
images/fcloud_D1.9_3.tif,1.9,0,,,,,0,86,86,35,,,,,,,,,,,,,,,,,,,None,None,None,12.591,,,,,,,,,,,,,,,,,,,2019_Feb_01_1646,60.07674395815525,Cloud_Experiment_FR_REAL,001,14,
images/fcloud_D0.8_3.tif,0.8,0,,,,,0,87,87,2,,,,,,,,,,,,,,,,,,,1,space,None,None,4.23104607032,,,,,,,,,,,,,,,,,,2019_Feb_01_1646,60.07674395815525,Cloud_Experiment_FR_REAL,001,14,
images/fcloud_D1.5_1.tif,1.5,0,,,,,0,88,88,21,,,,,,,,,,,,,,,,,,,1,space,1,1.333,6.64556787636,,,,,,,,,,,,,,,,,,2019_Feb_01_1646,60.07674395815525,Cloud_Experiment_FR_REAL,001,14,
images/fcloud80-20_D0.8_3.tif,0.8,2,,,,,0,89,89,74,,,,,,,,,,,,,,,,,,,1,space,2,0.79,4.60830284547,,,,,,,,,,,,,,,,,,2019_Feb_01_1646,60.07674395815525,Cloud_Experiment_FR_REAL,001,14,
images/fcloud80-20_D0.8_1.tif,0.8,2,,,,,0,90,90,72,,,,,,,,,,,,,,,,,,,None,None,None,9.945,,,,,,,,,,,,,,,,,,,2019_Feb_01_1646,60.07674395815525,Cloud_Experiment_FR_REAL,001,14,
images/fcloud65-35_D1.4_1.tif,1.4,1,,,,,0,91,91,54,,,,,,,,,,,,,,,,,,,None,None,None,18.65,,,,,,,,,,,,,,,,,,,2019_Feb_01_1646,60.07674395815525,Cloud_Experiment_FR_REAL,001,14,
images/fcloud65-35_D1.7_3.tif,1.7,1,,,,,0,92,92,65,,,,,,,,,,,,,,,,,,,1,space,2,1.434,4.51677754022,,,,,,,,,,,,,,,,,,2019_Feb_01_1646,60.07674395815525,Cloud_Experiment_FR_REAL,001,14,
images/fcloud_D1.3_3.tif,1.3,0,,,,,0,93,93,17,,,,,,,,,,,,,,,,,,,3,space,3,1.251,4.70453537202,,,,,,,,,,,,,,,,,,2019_Feb_01_1646,60.07674395815525,Cloud_Experiment_FR_REAL,001,14,
images/fcloud_D1.6_1.tif,1.6,0,,,,,0,94,94,24,,,,,,,,,,,,,,,,,,,None,None,None,10.277,,,,,,,,,,,,,,,,,,,2019_Feb_01_1646,60.07674395815525,Cloud_Experiment_FR_REAL,001,14,
images/fcloud80-20_D1.7_1.tif,1.7,2,,,,,0,95,95,99,,,,,,,,,,,,,,,,,,,None,None,None,19.135,,,,,,,,,,,,,,,,,,,2019_Feb_01_1646,60.07674395815525,Cloud_Experiment_FR_REAL,001,14,
images/fcloud65-35_D1.5_2.tif,1.5,1,,,,,0,96,96,58,,,,,,,,,,,,,,,,,,,None,None,None,27.895,,,,,,,,,,,,,,,,,,,2019_Feb_01_1646,60.07674395815525,Cloud_Experiment_FR_REAL,001,14,
images/fcloud80-20_D1.5_2.tif,1.5,2,,,,,0,97,97,94,,,,,,,,,,,,,,,,,,,1,space,1,1.351,2.84051839579,,,,,,,,,,,,,,,,,,2019_Feb_01_1646,60.07674395815525,Cloud_Experiment_FR_REAL,001,14,
images/fcloud80-20_D1.3_1.tif,1.3,2,,,,,0,98,98,87,,,,,,,,,,,,,,,,,,,None,None,None,10.775,,,,,,,,,,,,,,,,,,,2019_Feb_01_1646,60.07674395815525,Cloud_Experiment_FR_REAL,001,14,
images/fcloud80-20_D1.4_2.tif,1.4,2,,,,,0,99,99,91,,,,,,,,,,,,,,,,,,,None,None,None,19.483,,,,,,,,,,,,,,,,,,,2019_Feb_01_1646,60.07674395815525,Cloud_Experiment_FR_REAL,001,14,
images/fcloud_D0.9_2.tif,0.9,0,,,,,0,100,100,4,,,,,,,,,,,,,,,,,,,1,space,1,0.967,6.96347366922,,,,,,,,,,,,,,,,,,2019_Feb_01_1646,60.07674395815525,Cloud_Experiment_FR_REAL,001,14,
images/fcloud65-35_D1.3_2.tif,1.3,1,,,,,0,101,101,52,,,,,,,,,,,,,,,,,,,2,space,2,0.918,3.39312417719,,,,,,,,,,,,,,,,,,2019_Feb_01_1646,60.07674395815525,Cloud_Experiment_FR_REAL,001,14,
images/fcloud_D0.8_2.tif,0.8,0,,,,,0,102,102,1,,,,,,,,,,,,,,,,,,,1,space,3,1.103,4.69676642631,,,,,,,,,,,,,,,,,,2019_Feb_01_1646,60.07674395815525,Cloud_Experiment_FR_REAL,001,14,
images/fcloud65-35_D1.1_1.tif,1.1,1,,,,,0,103,103,45,,,,,,,,,,,,,,,,,,,None,None,None,9.559,,,,,,,,,,,,,,,,,,,2019_Feb_01_1646,60.07674395815525,Cloud_Experiment_FR_REAL,001,14,
images/fcloud65-35_D1.3_1.tif,1.3,1,,,,,0,104,104,51,,,,,,,,,,,,,,,,,,,None,None,None,18.038,,,,,,,,,,,,,,,,,,,2019_Feb_01_1646,60.07674395815525,Cloud_Experiment_FR_REAL,001,14,
images/fcloud80-20_D1.2_3.tif,1.2,2,,,,,0,105,105,86,,,,,,,,,,,,,,,,,,,1,space,2,0.735,7.10303555887,,,,,,,,,,,,,,,,,,2019_Feb_01_1646,60.07674395815525,Cloud_Experiment_FR_REAL,001,14,
images/fcloud65-35_D1.2_2.tif,1.2,1,,,,,0,106,106,49,,,,,,,,,,,,,,,,,,,None,None,None,9.842,,,,,,,,,,,,,,,,,,,2019_Feb_01_1646,60.07674395815525,Cloud_Experiment_FR_REAL,001,14,
images/fcloud65-35_D1.7_1.tif,1.7,1,,,,,0,107,107,63,,,,,,,,,,,,,,,,,,,1,space,3,2.235,3.95657090981,,,,,,,,,,,,,,,,,,2019_Feb_01_1646,60.07674395815525,Cloud_Experiment_FR_REAL,001,14,
,,,,,,,,,,,,,,,,,,,,,,,,,,,,,,,,,,,,,,,,,,,,,,space,1.89885565737,,,,2019_Feb_01_1646,60.07674395815525,Cloud_Experiment_FR_REAL,001,14,
,,,,,,,,,,,,,,,,,,,,,,,,,3,10.997,,,,,,,,,,,,,,,,,,,,,,,,,2019_Feb_01_1646,60.07674395815525,Cloud_Experiment_FR_REAL,001,14,
,,,,,,,,,,,,,,,,,,,,,,,,,,,,,,,,,,6,,,,,,,,,,,,,,,,,2019_Feb_01_1646,60.07674395815525,Cloud_Experiment_FR_REAL,001,14,
,,,,,,,,,,,,,,,,,,,,,,,,,,,,,,,,,,,3,,,,,,,,,,,,,,,,2019_Feb_01_1646,60.07674395815525,Cloud_Experiment_FR_REAL,001,14,
,,,,,,,,,,,,,,,,,,,,,,,,,,,,,,,,,,,,6,,,,,,,,,,,,,,,2019_Feb_01_1646,60.07674395815525,Cloud_Experiment_FR_REAL,001,14,
,,,,,,,,,,,,,,,,,,,,,,,,,,,,,,,,,,,,,6,,,,,,,,,,,,,,2019_Feb_01_1646,60.07674395815525,Cloud_Experiment_FR_REAL,001,14,
,,,,,,,,,,,,,,,,,,,,,,,,,,,,,,,,,,,,,,3,,,,,,,,,,,,,2019_Feb_01_1646,60.07674395815525,Cloud_Experiment_FR_REAL,001,14,
,,,,,,,,,,,,,,,,,,,,,,,,,,,,,,,,,,,,,,,4,,,,,,,,,,,,2019_Feb_01_1646,60.07674395815525,Cloud_Experiment_FR_REAL,001,14,
,,,,,,,,,,,,,,,,,,,,,,,,,,,,,,,,,,,,,,,,2,,,,,,,,,,,2019_Feb_01_1646,60.07674395815525,Cloud_Experiment_FR_REAL,001,14,
,,,,,,,,,,,,,,,,,,,,,,,,,,,,,,,,,,,,,,,,,7,,,,,,,,,,2019_Feb_01_1646,60.07674395815525,Cloud_Experiment_FR_REAL,001,14,
,,,,,,,,,,,,,,,,,,,,,,,,,,,,,,,,,,,,,,,,,,7,,,,,,,,,2019_Feb_01_1646,60.07674395815525,Cloud_Experiment_FR_REAL,001,14,
,,,,,,,,,,,,,,,,,,,,,,,,,,,,,,,,,,,,,,,,,,,5,,,,,,,,2019_Feb_01_1646,60.07674395815525,Cloud_Experiment_FR_REAL,001,14,
,,,,,,,,,,,,,,,,,,,,,,,,,,,,,,,,,,,,,,,,,,,,,,,,space,61.1824414528,,2019_Feb_01_1646,60.07674395815525,Cloud_Experiment_FR_REAL,001,14,
images/fcloud_D1.3_6.tif,1.3,0,,,,,,,,,0,0,0,17,,,,,,,,,,,,,,,2,space,2,1.751,0.0728963881702,,,,,,,,,,,,,,,,,,2019_Feb_01_1646,60.07674395815525,Cloud_Experiment_FR_REAL,001,14,
images/fcloud65-35_D1.3_5.tif,1.3,1,,,,,,,,,0,1,1,52,,,,,,,,,,,,,,,None,None,None,10.312,,,,,,,,,,,,,,,,,,,2019_Feb_01_1646,60.07674395815525,Cloud_Experiment_FR_REAL,001,14,
images/fcloud65-35_D1.3_6.tif,1.3,1,,,,,,,,,0,2,2,53,,,,,,,,,,,,,,,1,space,1,1.022,5.20311271885,,,,,,,,,,,,,,,,,,2019_Feb_01_1646,60.07674395815525,Cloud_Experiment_FR_REAL,001,14,
images/fcloud65-35_D1.6_5.tif,1.6,1,,,,,,,,,0,3,3,61,,,,,,,,,,,,,,,None,None,None,10.125,,,,,,,,,,,,,,,,,,,2019_Feb_01_1646,60.07674395815525,Cloud_Experiment_FR_REAL,001,14,
images/fcloud80-20_D1.1_4.tif,1.1,2,,,,,,,,,0,4,4,81,,,,,,,,,,,,,,,1,space,2,1.004,6.12192818725,,,,,,,,,,,,,,,,,,2019_Feb_01_1646,60.07674395815525,Cloud_Experiment_FR_REAL,001,14,
images/fcloud65-35_D1.1_6.tif,1.1,1,,,,,,,,,0,5,5,47,,,,,,,,,,,,,,,None,None,None,10.209,,,,,,,,,,,,,,,,,,,2019_Feb_01_1646,60.07674395815525,Cloud_Experiment_FR_REAL,001,14,
images/fcloud80-20_D1.8_4.tif,1.8,2,,,,,,,,,0,6,6,102,,,,,,,,,,,,,,,None,None,None,18.835,,,,,,,,,,,,,,,,,,,2019_Feb_01_1646,60.07674395815525,Cloud_Experiment_FR_REAL,001,14,
images/fcloud_D1.6_4.tif,1.6,0,,,,,,,,,0,7,7,24,,,,,,,,,,,,,,,None,None,None,27.766,,,,,,,,,,,,,,,,,,,2019_Feb_01_1646,60.07674395815525,Cloud_Experiment_FR_REAL,001,14,
images/fcloud_D1.9_6.tif,1.9,0,,,,,,,,,0,8,8,35,,,,,,,,,,,,,,,None,None,None,36.354,,,,,,,,,,,,,,,,,,,2019_Feb_01_1646,60.07674395815525,Cloud_Experiment_FR_REAL,001,14,
images/fcloud_D1.3_5.tif,1.3,0,,,,,,,,,0,9,9,16,,,,,,,,,,,,,,,None,None,None,44.812,,,,,,,,,,,,,,,,,,,2019_Feb_01_1646,60.07674395815525,Cloud_Experiment_FR_REAL,001,14,
images/fcloud65-35_D1.1_4.tif,1.1,1,,,,,,,,,0,10,10,45,,,,,,,,,,,,,,,None,None,None,53.472,,,,,,,,,,,,,,,,,,,2019_Feb_01_1646,60.07674395815525,Cloud_Experiment_FR_REAL,001,14,
images/fcloud80-20_D1.8_5.tif,1.8,2,,,,,,,,,0,11,11,103,,,,,,,,,,,,,,,None,None,None,62.2,,,,,,,,,,,,,,,,,,,2019_Feb_01_1646,60.07674395815525,Cloud_Experiment_FR_REAL,001,14,
images/fcloud65-35_D0.8_4.tif,0.8,1,,,,,,,,,0,12,12,36,,,,,,,,,,,,,,,2,space,2,1.485,4.05556443732,,,,,,,,,,,,,,,,,,2019_Feb_01_1646,60.07674395815525,Cloud_Experiment_FR_REAL,001,14,
images/fcloud80-20_D1.3_6.tif,1.3,2,,,,,,,,,0,13,13,89,,,,,,,,,,,,,,,None,None,None,10.391,,,,,,,,,,,,,,,,,,,2019_Feb_01_1646,60.07674395815525,Cloud_Experiment_FR_REAL,001,14,
images/fcloud80-20_D1.9_6.tif,1.9,2,,,,,,,,,0,14,14,107,,,,,,,,,,,,,,,None,None,None,19.35,,,,,,,,,,,,,,,,,,,2019_Feb_01_1646,60.07674395815525,Cloud_Experiment_FR_REAL,001,14,
images/fcloud65-35_D1.9_6.tif,1.9,1,,,,,,,,,0,15,15,71,,,,,,,,,,,,,,,1,space,2,1.149,6.67240114552,,,,,,,,,,,,,,,,,,2019_Feb_01_1646,60.07674395815525,Cloud_Experiment_FR_REAL,001,14,
images/fcloud80-20_D0.9_6.tif,0.9,2,,,,,,,,,0,16,16,77,,,,,,,,,,,,,,,None,None,None,9.792,,,,,,,,,,,,,,,,,,,2019_Feb_01_1646,60.07674395815525,Cloud_Experiment_FR_REAL,001,14,
images/fcloud65-35_D1_5.tif,1.0,1,,,,,,,,,0,17,17,43,,,,,,,,,,,,,,,None,None,None,18.567,,,,,,,,,,,,,,,,,,,2019_Feb_01_1646,60.07674395815525,Cloud_Experiment_FR_REAL,001,14,
images/fcloud65-35_D1.4_4.tif,1.4,1,,,,,,,,,0,18,18,54,,,,,,,,,,,,,,,None,None,None,27.142,,,,,,,,,,,,,,,,,,,2019_Feb_01_1646,60.07674395815525,Cloud_Experiment_FR_REAL,001,14,
images/fcloud65-35_D0.9_6.tif,0.9,1,,,,,,,,,0,19,19,41,,,,,,,,,,,,,,,None,None,None,36.167,,,,,,,,,,,,,,,,,,,2019_Feb_01_1646,60.07674395815525,Cloud_Experiment_FR_REAL,001,14,
images/fcloud_D1.2_6.tif,1.2,0,,,,,,,,,0,20,20,14,,,,,,,,,,,,,,,None,None,None,44.913,,,,,,,,,,,,,,,,,,,2019_Feb_01_1646,60.07674395815525,Cloud_Experiment_FR_REAL,001,14,
images/fcloud_D0.8_6.tif,0.8,0,,,,,,,,,0,21,21,2,,,,,,,,,,,,,,,None,None,None,53.743,,,,,,,,,,,,,,,,,,,2019_Feb_01_1646,60.07674395815525,Cloud_Experiment_FR_REAL,001,14,
images/fcloud_D0.8_4.tif,0.8,0,,,,,,,,,0,22,22,0,,,,,,,,,,,,,,,None,None,None,62.311,,,,,,,,,,,,,,,,,,,2019_Feb_01_1646,60.07674395815525,Cloud_Experiment_FR_REAL,001,14,
images/fcloud65-35_D0.9_5.tif,0.9,1,,,,,,,,,0,23,23,40,,,,,,,,,,,,,,,None,None,None,71.303,,,,,,,,,,,,,,,,,,,2019_Feb_01_1646,60.07674395815525,Cloud_Experiment_FR_REAL,001,14,
images/fcloud80-20_D0.9_4.tif,0.9,2,,,,,,,,,0,24,24,75,,,,,,,,,,,,,,,1,space,3,1.088,3.34700348377,,,,,,,,,,,,,,,,,,2019_Feb_01_1646,60.07674395815525,Cloud_Experiment_FR_REAL,001,14,
images/fcloud65-35_D0.8_5.tif,0.8,1,,,,,,,,,0,25,25,37,,,,,,,,,,,,,,,None,None,None,10.142,,,,,,,,,,,,,,,,,,,2019_Feb_01_1646,60.07674395815525,Cloud_Experiment_FR_REAL,001,14,
images/fcloud80-20_D1.4_4.tif,1.4,2,,,,,,,,,0,26,26,90,,,,,,,,,,,,,,,None,None,None,18.538,,,,,,,,,,,,,,,,,,,2019_Feb_01_1646,60.07674395815525,Cloud_Experiment_FR_REAL,001,14,
images/fcloud65-35_D1.5_4.tif,1.5,1,,,,,,,,,0,27,27,57,,,,,,,,,,,,,,,None,None,None,27.43,,,,,,,,,,,,,,,,,,,2019_Feb_01_1646,60.07674395815525,Cloud_Experiment_FR_REAL,001,14,
images/fcloud_D0.9_6.tif,0.9,0,,,,,,,,,0,28,28,5,,,,,,,,,,,,,,,1,space,2,1.034,7.43720869024,,,,,,,,,,,,,,,,,,2019_Feb_01_1646,60.07674395815525,Cloud_Experiment_FR_REAL,001,14,
images/fcloud80-20_D1.7_5.tif,1.7,2,,,,,,,,,0,29,29,100,,,,,,,,,,,,,,,1,space,1,0.967,7.27654681081,,,,,,,,,,,,,,,,,,2019_Feb_01_1646,60.07674395815525,Cloud_Experiment_FR_REAL,001,14,
images/fcloud_D1_4.tif,1.0,0,,,,,,,,,0,30,30,6,,,,,,,,,,,,,,,None,None,None,9.961,,,,,,,,,,,,,,,,,,,2019_Feb_01_1646,60.07674395815525,Cloud_Experiment_FR_REAL,001,14,
images/fcloud65-35_D1.7_4.tif,1.7,1,,,,,,,,,0,31,31,63,,,,,,,,,,,,,,,1,space,1,0.603,3.91734475088,,,,,,,,,,,,,,,,,,2019_Feb_01_1646,60.07674395815525,Cloud_Experiment_FR_REAL,001,14,
images/fcloud_D0.9_5.tif,0.9,0,,,,,,,,,0,32,32,4,,,,,,,,,,,,,,,None,space,None,9.376,7.35139970051,,,,,,,,,,,,,,,,,,2019_Feb_01_1646,60.07674395815525,Cloud_Experiment_FR_REAL,001,14,
images/fcloud65-35_D1.6_6.tif,1.6,1,,,,,,,,,0,33,33,62,,,,,,,,,,,,,,,None,None,None,18.685,,,,,,,,,,,,,,,,,,,2019_Feb_01_1646,60.07674395815525,Cloud_Experiment_FR_REAL,001,14,
images/fcloud80-20_D1_5.tif,1.0,2,,,,,,,,,0,34,34,79,,,,,,,,,,,,,,,None,None,None,27.111,,,,,,,,,,,,,,,,,,,2019_Feb_01_1646,60.07674395815525,Cloud_Experiment_FR_REAL,001,14,
images/fcloud80-20_D1.5_4.tif,1.5,2,,,,,,,,,0,35,35,93,,,,,,,,,,,,,,,1,space,2,1.016,6.85935602004,,,,,,,,,,,,,,,,,,2019_Feb_01_1646,60.07674395815525,Cloud_Experiment_FR_REAL,001,14,
images/fcloud80-20_D0.8_5.tif,0.8,2,,,,,,,,,0,36,36,73,,,,,,,,,,,,,,,None,None,None,10.007,,,,,,,,,,,,,,,,,,,2019_Feb_01_1646,60.07674395815525,Cloud_Experiment_FR_REAL,001,14,
images/fcloud_D1.5_6.tif,1.5,0,,,,,,,,,0,37,37,23,,,,,,,,,,,,,,,1,space,3,1.419,3.7241738973,,,,,,,,,,,,,,,,,,2019_Feb_01_1646,60.07674395815525,Cloud_Experiment_FR_REAL,001,14,
images/fcloud65-35_D1.2_6.tif,1.2,1,,,,,,,,,0,38,38,50,,,,,,,,,,,,,,,1,space,2,0.937,4.06743401691,,,,,,,,,,,,,,,,,,2019_Feb_01_1646,60.07674395815525,Cloud_Experiment_FR_REAL,001,14,
images/fcloud_D1.8_5.tif,1.8,0,,,,,,,,,0,39,39,31,,,,,,,,,,,,,,,None,None,None,9.965,,,,,,,,,,,,,,,,,,,2019_Feb_01_1646,60.07674395815525,Cloud_Experiment_FR_REAL,001,14,
images/fcloud_D1.5_5.tif,1.5,0,,,,,,,,,0,40,40,22,,,,,,,,,,,,,,,1,space,2,0.668,6.40240907742,,,,,,,,,,,,,,,,,,2019_Feb_01_1646,60.07674395815525,Cloud_Experiment_FR_REAL,001,14,
images/fcloud_D1.3_4.tif,1.3,0,,,,,,,,,0,41,41,15,,,,,,,,,,,,,,,None,None,None,9.711,,,,,,,,,,,,,,,,,,,2019_Feb_01_1646,60.07674395815525,Cloud_Experiment_FR_REAL,001,14,
images/fcloud65-35_D1.1_5.tif,1.1,1,,,,,,,,,0,42,42,46,,,,,,,,,,,,,,,None,None,None,18.202,,,,,,,,,,,,,,,,,,,2019_Feb_01_1646,60.07674395815525,Cloud_Experiment_FR_REAL,001,14,
images/fcloud80-20_D1.5_5.tif,1.5,2,,,,,,,,,0,43,43,94,,,,,,,,,,,,,,,1,space,2,1.201,7.02300302933,,,,,,,,,,,,,,,,,,2019_Feb_01_1646,60.07674395815525,Cloud_Experiment_FR_REAL,001,14,
images/fcloud80-20_D1_6.tif,1.0,2,,,,,,,,,0,44,44,80,,,,,,,,,,,,,,,None,None,None,10.558,,,,,,,,,,,,,,,,,,,2019_Feb_01_1646,60.07674395815525,Cloud_Experiment_FR_REAL,001,14,
images/fcloud65-35_D0.9_4.tif,0.9,1,,,,,,,,,0,45,45,39,,,,,,,,,,,,,,,2,space,2,1.054,5.44494113789,,,,,,,,,,,,,,,,,,2019_Feb_01_1646,60.07674395815525,Cloud_Experiment_FR_REAL,001,14,
images/fcloud65-35_D1_4.tif,1.0,1,,,,,,,,,0,46,46,42,,,,,,,,,,,,,,,1,None,1,0.82,,,,,,,,,,,,,,,,,,,2019_Feb_01_1646,60.07674395815525,Cloud_Experiment_FR_REAL,001,14,
images/fcloud_D1_6.tif,1.0,0,,,,,,,,,0,47,47,8,,,,,,,,,,,,,,,None,None,None,9.335,,,,,,,,,,,,,,,,,,,2019_Feb_01_1646,60.07674395815525,Cloud_Experiment_FR_REAL,001,14,
images/fcloud_D1.2_5.tif,1.2,0,,,,,,,,,0,48,48,13,,,,,,,,,,,,,,,None,None,None,17.918,,,,,,,,,,,,,,,,,,,2019_Feb_01_1646,60.07674395815525,Cloud_Experiment_FR_REAL,001,14,
images/fcloud65-35_D0.8_6.tif,0.8,1,,,,,,,,,0,49,49,38,,,,,,,,,,,,,,,1,space,1,0.951,4.90024566792,,,,,,,,,,,,,,,,,,2019_Feb_01_1646,60.07674395815525,Cloud_Experiment_FR_REAL,001,14,
images/fcloud80-20_D1.2_4.tif,1.2,2,,,,,,,,,0,50,50,84,,,,,,,,,,,,,,,None,None,None,9.761,,,,,,,,,,,,,,,,,,,2019_Feb_01_1646,60.07674395815525,Cloud_Experiment_FR_REAL,001,14,
images/fcloud_D1.6_5.tif,1.6,0,,,,,,,,,0,51,51,25,,,,,,,,,,,,,,,None,None,None,18.52,,,,,,,,,,,,,,,,,,,2019_Feb_01_1646,60.07674395815525,Cloud_Experiment_FR_REAL,001,14,
images/fcloud_D1.1_6.tif,1.1,0,,,,,,,,,0,52,52,11,,,,,,,,,,,,,,,None,None,None,27.129,,,,,,,,,,,,,,,,,,,2019_Feb_01_1646,60.07674395815525,Cloud_Experiment_FR_REAL,001,14,
images/fcloud65-35_D1.9_4.tif,1.9,1,,,,,,,,,0,53,53,69,,,,,,,,,,,,,,,1,space,1,0.901,5.7686717123,,,,,,,,,,,,,,,,,,2019_Feb_01_1646,60.07674395815525,Cloud_Experiment_FR_REAL,001,14,
images/fcloud65-35_D1.5_6.tif,1.5,1,,,,,,,,,0,54,54,59,,,,,,,,,,,,,,,None,None,None,9.892,,,,,,,,,,,,,,,,,,,2019_Feb_01_1646,60.07674395815525,Cloud_Experiment_FR_REAL,001,14,
images/fcloud80-20_D1.6_6.tif,1.6,2,,,,,,,,,0,55,55,98,,,,,,,,,,,,,,,1,space,2,0.852,4.53125081927,,,,,,,,,,,,,,,,,,2019_Feb_01_1646,60.07674395815525,Cloud_Experiment_FR_REAL,001,14,
images/fcloud80-20_D0.8_6.tif,0.8,2,,,,,,,,,0,56,56,74,,,,,,,,,,,,,,,2,space,3,1.069,3.90835646162,,,,,,,,,,,,,,,,,,2019_Feb_01_1646,60.07674395815525,Cloud_Experiment_FR_REAL,001,14,
images/fcloud65-35_D1.2_4.tif,1.2,1,,,,,,,,,0,57,57,48,,,,,,,,,,,,,,,None,None,None,10.341,,,,,,,,,,,,,,,,,,,2019_Feb_01_1646,60.07674395815525,Cloud_Experiment_FR_REAL,001,14,
images/fcloud80-20_D1_4.tif,1.0,2,,,,,,,,,0,58,58,78,,,,,,,,,,,,,,,1,space,2,0.954,4.56206957353,,,,,,,,,,,,,,,,,,2019_Feb_01_1646,60.07674395815525,Cloud_Experiment_FR_REAL,001,14,
images/fcloud80-20_D1.9_5.tif,1.9,2,,,,,,,,,0,59,59,106,,,,,,,,,,,,,,,None,None,None,9.875,,,,,,,,,,,,,,,,,,,2019_Feb_01_1646,60.07674395815525,Cloud_Experiment_FR_REAL,001,14,
images/fcloud_D1.1_5.tif,1.1,0,,,,,,,,,0,60,60,10,,,,,,,,,,,,,,,1,space,2,0.603,5.80113287915,,,,,,,,,,,,,,,,,,2019_Feb_01_1646,60.07674395815525,Cloud_Experiment_FR_REAL,001,14,
images/fcloud_D1.8_6.tif,1.8,0,,,,,,,,,0,61,61,32,,,,,,,,,,,,,,,1,space,1,0.736,4.74606193669,,,,,,,,,,,,,,,,,,2019_Feb_01_1646,60.07674395815525,Cloud_Experiment_FR_REAL,001,14,
images/fcloud65-35_D1.6_4.tif,1.6,1,,,,,,,,,0,62,62,60,,,,,,,,,,,,,,,None,None,None,9.81,,,,,,,,,,,,,,,,,,,2019_Feb_01_1646,60.07674395815525,Cloud_Experiment_FR_REAL,001,14,
images/fcloud65-35_D1.8_4.tif,1.8,1,,,,,,,,,0,63,63,66,,,,,,,,,,,,,,,None,None,None,18.655,,,,,,,,,,,,,,,,,,,2019_Feb_01_1646,60.07674395815525,Cloud_Experiment_FR_REAL,001,14,
images/fcloud65-35_D1.8_5.tif,1.8,1,,,,,,,,,0,64,64,67,,,,,,,,,,,,,,,1,space,2,0.699,7.476577243,,,,,,,,,,,,,,,,,,2019_Feb_01_1646,60.07674395815525,Cloud_Experiment_FR_REAL,001,14,
images/fcloud80-20_D1.6_5.tif,1.6,2,,,,,,,,,0,65,65,97,,,,,,,,,,,,,,,None,None,None,9.358,,,,,,,,,,,,,,,,,,,2019_Feb_01_1646,60.07674395815525,Cloud_Experiment_FR_REAL,001,14,
images/fcloud_D0.8_5.tif,0.8,0,,,,,,,,,0,66,66,1,,,,,,,,,,,,,,,1,space,3,1.369,3.9274876125,,,,,,,,,,,,,,,,,,2019_Feb_01_1646,60.07674395815525,Cloud_Experiment_FR_REAL,001,14,
images/fcloud_D1.8_4.tif,1.8,0,,,,,,,,,0,67,67,30,,,,,,,,,,,,,,,1,space,2,0.584,7.01776530105,,,,,,,,,,,,,,,,,,2019_Feb_01_1646,60.07674395815525,Cloud_Experiment_FR_REAL,001,14,
images/fcloud65-35_D1_6.tif,1.0,1,,,,,,,,,0,68,68,44,,,,,,,,,,,,,,,None,None,None,10.342,,,,,,,,,,,,,,,,,,,2019_Feb_01_1646,60.07674395815525,Cloud_Experiment_FR_REAL,001,14,
images/fcloud80-20_D1.7_6.tif,1.7,2,,,,,,,,,0,69,69,101,,,,,,,,,,,,,,,None,None,None,19.833,,,,,,,,,,,,,,,,,,,2019_Feb_01_1646,60.07674395815525,Cloud_Experiment_FR_REAL,001,14,
images/fcloud_D1.7_5.tif,1.7,0,,,,,,,,,0,70,70,28,,,,,,,,,,,,,,,None,None,None,29.014,,,,,,,,,,,,,,,,,,,2019_Feb_01_1646,60.07674395815525,Cloud_Experiment_FR_REAL,001,14,
images/fcloud_D1.9_4.tif,1.9,0,,,,,,,,,0,71,71,33,,,,,,,,,,,,,,,1,space,2,0.768,7.8802308528,,,,,,,,,,,,,,,,,,2019_Feb_01_1646,60.07674395815525,Cloud_Experiment_FR_REAL,001,14,
images/fcloud_D1.1_4.tif,1.1,0,,,,,,,,,0,72,72,9,,,,,,,,,,,,,,,2,space,2,1.951,6.54394237626,,,,,,,,,,,,,,,,,,2019_Feb_01_1646,60.07674395815525,Cloud_Experiment_FR_REAL,001,14,
images/fcloud_D1.5_4.tif,1.5,0,,,,,,,,,0,73,73,21,,,,,,,,,,,,,,,None,None,None,11.009,,,,,,,,,,,,,,,,,,,2019_Feb_01_1646,60.07674395815525,Cloud_Experiment_FR_REAL,001,14,
images/fcloud65-35_D1.9_5.tif,1.9,1,,,,,,,,,0,74,74,70,,,,,,,,,,,,,,,1,None,2,0.919,,,,,,,,,,,,,,,,,,,2019_Feb_01_1646,60.07674395815525,Cloud_Experiment_FR_REAL,001,14,
images/fcloud80-20_D1.5_6.tif,1.5,2,,,,,,,,,0,75,75,95,,,,,,,,,,,,,,,None,None,None,10.177,,,,,,,,,,,,,,,,,,,2019_Feb_01_1646,60.07674395815525,Cloud_Experiment_FR_REAL,001,14,
images/fcloud65-35_D1.7_6.tif,1.7,1,,,,,,,,,0,76,76,65,,,,,,,,,,,,,,,1,space,2,1.167,5.80652585271,,,,,,,,,,,,,,,,,,2019_Feb_01_1646,60.07674395815525,Cloud_Experiment_FR_REAL,001,14,
images/fcloud80-20_D1.6_4.tif,1.6,2,,,,,,,,,0,77,77,96,,,,,,,,,,,,,,,None,None,None,10.208,,,,,,,,,,,,,,,,,,,2019_Feb_01_1646,60.07674395815525,Cloud_Experiment_FR_REAL,001,14,
images/fcloud80-20_D1.1_6.tif,1.1,2,,,,,,,,,0,78,78,83,,,,,,,,,,,,,,,1,space,3,0.903,5.09513244426,,,,,,,,,,,,,,,,,,2019_Feb_01_1646,60.07674395815525,Cloud_Experiment_FR_REAL,001,14,
images/fcloud_D1.6_6.tif,1.6,0,,,,,,,,,0,79,79,26,,,,,,,,,,,,,,,None,None,None,9.73,,,,,,,,,,,,,,,,,,,2019_Feb_01_1646,60.07674395815525,Cloud_Experiment_FR_REAL,001,14,
images/fcloud80-20_D1.7_4.tif,1.7,2,,,,,,,,,0,80,80,99,,,,,,,,,,,,,,,None,None,None,18.818,,,,,,,,,,,,,,,,,,,2019_Feb_01_1646,60.07674395815525,Cloud_Experiment_FR_REAL,001,14,
images/fcloud_D1.9_5.tif,1.9,0,,,,,,,,,0,81,81,34,,,,,,,,,,,,,,,None,None,None,27.529,,,,,,,,,,,,,,,,,,,2019_Feb_01_1646,60.07674395815525,Cloud_Experiment_FR_REAL,001,14,
images/fcloud65-35_D1.3_4.tif,1.3,1,,,,,,,,,0,82,82,51,,,,,,,,,,,,,,,None,None,None,36.569,,,,,,,,,,,,,,,,,,,2019_Feb_01_1646,60.07674395815525,Cloud_Experiment_FR_REAL,001,14,
images/fcloud80-20_D1.8_6.tif,1.8,2,,,,,,,,,0,83,83,104,,,,,,,,,,,,,,,None,None,None,45.265,,,,,,,,,,,,,,,,,,,2019_Feb_01_1646,60.07674395815525,Cloud_Experiment_FR_REAL,001,14,
images/fcloud_D1_5.tif,1.0,0,,,,,,,,,0,84,84,7,,,,,,,,,,,,,,,None,None,None,54.087,,,,,,,,,,,,,,,,,,,2019_Feb_01_1646,60.07674395815525,Cloud_Experiment_FR_REAL,001,14,
images/fcloud_D1.4_4.tif,1.4,0,,,,,,,,,0,85,85,18,,,,,,,,,,,,,,,2,space,2,1.799,3.74017289797,,,,,,,,,,,,,,,,,,2019_Feb_01_1646,60.07674395815525,Cloud_Experiment_FR_REAL,001,14,
images/fcloud65-35_D1.2_5.tif,1.2,1,,,,,,,,,0,86,86,49,,,,,,,,,,,,,,,1,space,2,1.385,7.03495074563,,,,,,,,,,,,,,,,,,2019_Feb_01_1646,60.07674395815525,Cloud_Experiment_FR_REAL,001,14,
images/fcloud80-20_D1.2_6.tif,1.2,2,,,,,,,,,0,87,87,86,,,,,,,,,,,,,,,None,None,None,10.908,,,,,,,,,,,,,,,,,,,2019_Feb_01_1646,60.07674395815525,Cloud_Experiment_FR_REAL,001,14,
images/fcloud65-35_D1.7_5.tif,1.7,1,,,,,,,,,0,88,88,64,,,,,,,,,,,,,,,None,None,None,20.103,,,,,,,,,,,,,,,,,,,2019_Feb_01_1646,60.07674395815525,Cloud_Experiment_FR_REAL,001,14,
images/fcloud80-20_D1.4_5.tif,1.4,2,,,,,,,,,0,89,89,91,,,,,,,,,,,,,,,2,space,3,1.901,2.85491096787,,,,,,,,,,,,,,,,,,2019_Feb_01_1646,60.07674395815525,Cloud_Experiment_FR_REAL,001,14,
images/fcloud80-20_D1.4_6.tif,1.4,2,,,,,,,,,0,90,90,92,,,,,,,,,,,,,,,1,space,3,1.784,4.29538700536,,,,,,,,,,,,,,,,,,2019_Feb_01_1646,60.07674395815525,Cloud_Experiment_FR_REAL,001,14,
images/fcloud_D1.7_6.tif,1.7,0,,,,,,,,,0,91,91,29,,,,,,,,,,,,,,,None,None,None,10.708,,,,,,,,,,,,,,,,,,,2019_Feb_01_1646,60.07674395815525,Cloud_Experiment_FR_REAL,001,14,
images/fcloud_D1.4_5.tif,1.4,0,,,,,,,,,0,92,92,19,,,,,,,,,,,,,,,None,None,None,19.269,,,,,,,,,,,,,,,,,,,2019_Feb_01_1646,60.07674395815525,Cloud_Experiment_FR_REAL,001,14,
images/fcloud80-20_D1.9_4.tif,1.9,2,,,,,,,,,0,93,93,105,,,,,,,,,,,,,,,None,None,None,28.044,,,,,,,,,,,,,,,,,,,2019_Feb_01_1646,60.07674395815525,Cloud_Experiment_FR_REAL,001,14,
images/fcloud_D1.4_6.tif,1.4,0,,,,,,,,,0,94,94,20,,,,,,,,,,,,,,,1,space,2,2.549,5.77746928637,,,,,,,,,,,,,,,,,,2019_Feb_01_1646,60.07674395815525,Cloud_Experiment_FR_REAL,001,14,
images/fcloud_D0.9_4.tif,0.9,0,,,,,,,,,0,95,95,3,,,,,,,,,,,,,,,None,None,None,11.107,,,,,,,,,,,,,,,,,,,2019_Feb_01_1646,60.07674395815525,Cloud_Experiment_FR_REAL,001,14,
images/fcloud65-35_D1.4_6.tif,1.4,1,,,,,,,,,0,96,96,56,,,,,,,,,,,,,,,None,None,None,20.253,,,,,,,,,,,,,,,,,,,2019_Feb_01_1646,60.07674395815525,Cloud_Experiment_FR_REAL,001,14,
images/fcloud80-20_D1.1_5.tif,1.1,2,,,,,,,,,0,97,97,82,,,,,,,,,,,,,,,None,None,None,28.86,,,,,,,,,,,,,,,,,,,2019_Feb_01_1646,60.07674395815525,Cloud_Experiment_FR_REAL,001,14,
images/fcloud65-35_D1.5_5.tif,1.5,1,,,,,,,,,0,98,98,58,,,,,,,,,,,,,,,1,space,1,1.603,7.75125802636,,,,,,,,,,,,,,,,,,2019_Feb_01_1646,60.07674395815525,Cloud_Experiment_FR_REAL,001,14,
images/fcloud_D1.7_4.tif,1.7,0,,,,,,,,,0,99,99,27,,,,,,,,,,,,,,,None,None,None,10.975,,,,,,,,,,,,,,,,,,,2019_Feb_01_1646,60.07674395815525,Cloud_Experiment_FR_REAL,001,14,
images/fcloud80-20_D0.8_4.tif,0.8,2,,,,,,,,,0,100,100,72,,,,,,,,,,,,,,,None,None,None,19.434,,,,,,,,,,,,,,,,,,,2019_Feb_01_1646,60.07674395815525,Cloud_Experiment_FR_REAL,001,14,
images/fcloud80-20_D1.3_4.tif,1.3,2,,,,,,,,,0,101,101,87,,,,,,,,,,,,,,,None,None,None,28.043,,,,,,,,,,,,,,,,,,,2019_Feb_01_1646,60.07674395815525,Cloud_Experiment_FR_REAL,001,14,
images/fcloud_D1.2_4.tif,1.2,0,,,,,,,,,0,102,102,12,,,,,,,,,,,,,,,3,space,3,2.583,5.66881302661,,,,,,,,,,,,,,,,,,2019_Feb_01_1646,60.07674395815525,Cloud_Experiment_FR_REAL,001,14,
images/fcloud65-35_D1.4_5.tif,1.4,1,,,,,,,,,0,103,103,55,,,,,,,,,,,,,,,None,None,None,11.94,,,,,,,,,,,,,,,,,,,2019_Feb_01_1646,60.07674395815525,Cloud_Experiment_FR_REAL,001,14,
images/fcloud80-20_D0.9_5.tif,0.9,2,,,,,,,,,0,104,104,76,,,,,,,,,,,,,,,None,None,None,20.47,,,,,,,,,,,,,,,,,,,2019_Feb_01_1646,60.07674395815525,Cloud_Experiment_FR_REAL,001,14,
images/fcloud80-20_D1.2_5.tif,1.2,2,,,,,,,,,0,105,105,85,,,,,,,,,,,,,,,None,None,None,29.008,,,,,,,,,,,,,,,,,,,2019_Feb_01_1646,60.07674395815525,Cloud_Experiment_FR_REAL,001,14,
images/fcloud65-35_D1.8_6.tif,1.8,1,,,,,,,,,0,106,106,68,,,,,,,,,,,,,,,1,space,3,1.602,4.73108539569,,,,,,,,,,,,,,,,,,2019_Feb_01_1646,60.07674395815525,Cloud_Experiment_FR_REAL,001,14,
images/fcloud80-20_D1.3_5.tif,1.3,2,,,,,,,,,0,107,107,88,,,,,,,,,,,,,,,None,None,None,10.745,,,,,,,,,,,,,,,,,,,2019_Feb_01_1646,60.07674395815525,Cloud_Experiment_FR_REAL,001,14,
,,,,,,,,,,,,,,,,,,,,,,,,,,,,,,,,,,,,,,,,,,,,,,space,2.14900357733,,,,2019_Feb_01_1646,60.07674395815525,Cloud_Experiment_FR_REAL,001,14,
,,,,,,,,,,,,,,,,,,,,,,,,,3,4.24,,,,,,,,,,,,,,,,,,,,,,,,,2019_Feb_01_1646,60.07674395815525,Cloud_Experiment_FR_REAL,001,14,
,,,,,,,,,,,,,,,,,,,,,,,,,,,,,,,,,,6,,,,,,,,,,,,,,,,,2019_Feb_01_1646,60.07674395815525,Cloud_Experiment_FR_REAL,001,14,
,,,,,,,,,,,,,,,,,,,,,,,,,,,,,,,,,,,3,,,,,,,,,,,,,,,,2019_Feb_01_1646,60.07674395815525,Cloud_Experiment_FR_REAL,001,14,
,,,,,,,,,,,,,,,,,,,,,,,,,,,,,,,,,,,,6,,,,,,,,,,,,,,,2019_Feb_01_1646,60.07674395815525,Cloud_Experiment_FR_REAL,001,14,
,,,,,,,,,,,,,,,,,,,,,,,,,,,,,,,,,,,,,3,,,,,,,,,,,,,,2019_Feb_01_1646,60.07674395815525,Cloud_Experiment_FR_REAL,001,14,
,,,,,,,,,,,,,,,,,,,,,,,,,,,,,,,,,,,,,,3,,,,,,,,,,,,,2019_Feb_01_1646,60.07674395815525,Cloud_Experiment_FR_REAL,001,14,
,,,,,,,,,,,,,,,,,,,,,,,,,,,,,,,,,,,,,,,5,,,,,,,,,,,,2019_Feb_01_1646,60.07674395815525,Cloud_Experiment_FR_REAL,001,14,
,,,,,,,,,,,,,,,,,,,,,,,,,,,,,,,,,,,,,,,,4,,,,,,,,,,,2019_Feb_01_1646,60.07674395815525,Cloud_Experiment_FR_REAL,001,14,
,,,,,,,,,,,,,,,,,,,,,,,,,,,,,,,,,,,,,,,,,7,,,,,,,,,,2019_Feb_01_1646,60.07674395815525,Cloud_Experiment_FR_REAL,001,14,
,,,,,,,,,,,,,,,,,,,,,,,,,,,,,,,,,,,,,,,,,,7,,,,,,,,,2019_Feb_01_1646,60.07674395815525,Cloud_Experiment_FR_REAL,001,14,
,,,,,,,,,,,,,,,,,,,,,,,,,,,,,,,,,,,,,,,,,,,5,,,,,,,,2019_Feb_01_1646,60.07674395815525,Cloud_Experiment_FR_REAL,001,14,
,,,,,,,,,,,,,,,,,,,,,,,,,,,,,,,,,,,,,,,,,,,,,,,,space,114.916523802,,2019_Feb_01_1646,60.07674395815525,Cloud_Experiment_FR_REAL,001,14,
images/fcloud80-20_D0.8_7.tif,0.8,2,,,,,,,,,,,,,0,0,0,96,,,,,,,,,,,1,space,3,1.667,4.71586210726,,,,,,,,,,,,,,,,,,2019_Feb_01_1646,60.07674395815525,Cloud_Experiment_FR_REAL,001,14,
images/fcloud_D1.6_7.tif,1.6,0,,,,,,,,,,,,,0,1,1,32,,,,,,,,,,,None,None,None,10.591,,,,,,,,,,,,,,,,,,,2019_Feb_01_1646,60.07674395815525,Cloud_Experiment_FR_REAL,001,14,
images/fcloud_D1.1_9.tif,1.1,0,,,,,,,,,,,,,0,2,2,14,,,,,,,,,,,2,space,3,2.571,4.85015439706,,,,,,,,,,,,,,,,,,2019_Feb_01_1646,60.07674395815525,Cloud_Experiment_FR_REAL,001,14,
images/fcloud_D1_7.tif,1.0,0,,,,,,,,,,,,,0,3,3,8,,,,,,,,,,,None,None,None,11.641,,,,,,,,,,,,,,,,,,,2019_Feb_01_1646,60.07674395815525,Cloud_Experiment_FR_REAL,001,14,
images/fcloud_D1.5_9.tif,1.5,0,,,,,,,,,,,,,0,4,4,30,,,,,,,,,,,None,None,None,20.604,,,,,,,,,,,,,,,,,,,2019_Feb_01_1646,60.07674395815525,Cloud_Experiment_FR_REAL,001,14,
images/fcloud80-20_D0.9_7.tif,0.9,2,,,,,,,,,,,,,0,5,5,100,,,,,,,,,,,None,None,None,29.21,,,,,,,,,,,,,,,,,,,2019_Feb_01_1646,60.07674395815525,Cloud_Experiment_FR_REAL,001,14,
images/fcloud80-20_D1.1_10.tif,1.1,2,,,,,,,,,,,,,0,6,6,111,,,,,,,,,,,None,None,None,37.819,,,,,,,,,,,,,,,,,,,2019_Feb_01_1646,60.07674395815525,Cloud_Experiment_FR_REAL,001,14,
images/fcloud_D0.9_9.tif,0.9,0,,,,,,,,,,,,,0,7,7,6,,,,,,,,,,,None,None,None,46.262,,,,,,,,,,,,,,,,,,,2019_Feb_01_1646,60.07674395815525,Cloud_Experiment_FR_REAL,001,14,
images/fcloud_D0.9_10.tif,0.9,0,,,,,,,,,,,,,0,8,8,7,,,,,,,,,,,None,None,None,54.736,,,,,,,,,,,,,,,,,,,2019_Feb_01_1646,60.07674395815525,Cloud_Experiment_FR_REAL,001,14,
images/fcloud80-20_D1_8.tif,1.0,2,,,,,,,,,,,,,0,9,9,105,,,,,,,,,,,None,None,None,63.263,,,,,,,,,,,,,,,,,,,2019_Feb_01_1646,60.07674395815525,Cloud_Experiment_FR_REAL,001,14,
images/fcloud80-20_D1.8_8.tif,1.8,2,,,,,,,,,,,,,0,10,10,137,,,,,,,,,,,None,None,None,71.806,,,,,,,,,,,,,,,,,,,2019_Feb_01_1646,60.07674395815525,Cloud_Experiment_FR_REAL,001,14,
images/fcloud65-35_D1.9_9.tif,1.9,1,,,,,,,,,,,,,0,11,11,94,,,,,,,,,,,None,None,None,80.47,,,,,,,,,,,,,,,,,,,2019_Feb_01_1646,60.07674395815525,Cloud_Experiment_FR_REAL,001,14,
images/fcloud_D1.7_10.tif,1.7,0,,,,,,,,,,,,,0,12,12,39,,,,,,,,,,,None,None,None,89.512,,,,,,,,,,,,,,,,,,,2019_Feb_01_1646,60.07674395815525,Cloud_Experiment_FR_REAL,001,14,
images/fcloud65-35_D1.6_9.tif,1.6,1,,,,,,,,,,,,,0,13,13,82,,,,,,,,,,,1,space,2,0.653,6.29107920645,,,,,,,,,,,,,,,,,,2019_Feb_01_1646,60.07674395815525,Cloud_Experiment_FR_REAL,001,14,
images/fcloud_D1.8_7.tif,1.8,0,,,,,,,,,,,,,0,14,14,40,,,,,,,,,,,None,None,None,9.527,,,,,,,,,,,,,,,,,,,2019_Feb_01_1646,60.07674395815525,Cloud_Experiment_FR_REAL,001,14,
images/fcloud80-20_D0.9_9.tif,0.9,2,,,,,,,,,,,,,0,15,15,102,,,,,,,,,,,None,None,None,18.039,,,,,,,,,,,,,,,,,,,2019_Feb_01_1646,60.07674395815525,Cloud_Experiment_FR_REAL,001,14,
images/fcloud80-20_D1.7_10.tif,1.7,2,,,,,,,,,,,,,0,16,16,135,,,,,,,,,,,None,None,None,26.594,,,,,,,,,,,,,,,,,,,2019_Feb_01_1646,60.07674395815525,Cloud_Experiment_FR_REAL,001,14,
images/fcloud80-20_D1.4_9.tif,1.4,2,,,,,,,,,,,,,0,17,17,122,,,,,,,,,,,1,space,2,1.199,4.46405326866,,,,,,,,,,,,,,,,,,2019_Feb_01_1646,60.07674395815525,Cloud_Experiment_FR_REAL,001,14,
images/fcloud65-35_D1.7_8.tif,1.7,1,,,,,,,,,,,,,0,18,18,85,,,,,,,,,,,1,space,2,0.735,5.4976325098,,,,,,,,,,,,,,,,,,2019_Feb_01_1646,60.07674395815525,Cloud_Experiment_FR_REAL,001,14,
images/fcloud65-35_D1.2_7.tif,1.2,1,,,,,,,,,,,,,0,19,19,64,,,,,,,,,,,None,None,None,9.799,,,,,,,,,,,,,,,,,,,2019_Feb_01_1646,60.07674395815525,Cloud_Experiment_FR_REAL,001,14,
images/fcloud_D1.9_10.tif,1.9,0,,,,,,,,,,,,,0,20,20,47,,,,,,,,,,,None,None,None,18.721,,,,,,,,,,,,,,,,,,,2019_Feb_01_1646,60.07674395815525,Cloud_Experiment_FR_REAL,001,14,
images/fcloud65-35_D1.4_8.tif,1.4,1,,,,,,,,,,,,,0,21,21,73,,,,,,,,,,,None,None,None,27.144,,,,,,,,,,,,,,,,,,,2019_Feb_01_1646,60.07674395815525,Cloud_Experiment_FR_REAL,001,14,
images/fcloud65-35_D1_8.tif,1.0,1,,,,,,,,,,,,,0,22,22,57,,,,,,,,,,,None,None,None,35.723,,,,,,,,,,,,,,,,,,,2019_Feb_01_1646,60.07674395815525,Cloud_Experiment_FR_REAL,001,14,
images/fcloud_D1.6_8.tif,1.6,0,,,,,,,,,,,,,0,23,23,33,,,,,,,,,,,None,None,None,44.497,,,,,,,,,,,,,,,,,,,2019_Feb_01_1646,60.07674395815525,Cloud_Experiment_FR_REAL,001,14,
images/fcloud_D1.2_8.tif,1.2,0,,,,,,,,,,,,,0,24,24,17,,,,,,,,,,,1,space,3,1.433,4.17340124371,,,,,,,,,,,,,,,,,,2019_Feb_01_1646,60.07674395815525,Cloud_Experiment_FR_REAL,001,14,
images/fcloud_D1.7_8.tif,1.7,0,,,,,,,,,,,,,0,25,25,37,,,,,,,,,,,None,None,None,10.377,,,,,,,,,,,,,,,,,,,2019_Feb_01_1646,60.07674395815525,Cloud_Experiment_FR_REAL,001,14,
images/fcloud80-20_D1.5_10.tif,1.5,2,,,,,,,,,,,,,0,26,26,127,,,,,,,,,,,None,None,None,18.8,,,,,,,,,,,,,,,,,,,2019_Feb_01_1646,60.07674395815525,Cloud_Experiment_FR_REAL,001,14,
images/fcloud65-35_D0.8_7.tif,0.8,1,,,,,,,,,,,,,0,27,27,48,,,,,,,,,,,None,None,None,27.209,,,,,,,,,,,,,,,,,,,2019_Feb_01_1646,60.07674395815525,Cloud_Experiment_FR_REAL,001,14,
images/fcloud_D1.4_10.tif,1.4,0,,,,,,,,,,,,,0,28,28,27,,,,,,,,,,,None,None,None,36.068,,,,,,,,,,,,,,,,,,,2019_Feb_01_1646,60.07674395815525,Cloud_Experiment_FR_REAL,001,14,
images/fcloud80-20_D1.8_10.tif,1.8,2,,,,,,,,,,,,,0,29,29,139,,,,,,,,,,,None,None,None,44.598,,,,,,,,,,,,,,,,,,,2019_Feb_01_1646,60.07674395815525,Cloud_Experiment_FR_REAL,001,14,
images/fcloud80-20_D1.7_7.tif,1.7,2,,,,,,,,,,,,,0,30,30,132,,,,,,,,,,,1,space,3,1.581,5.34559393906,,,,,,,,,,,,,,,,,,2019_Feb_01_1646,60.07674395815525,Cloud_Experiment_FR_REAL,001,14,
images/fcloud80-20_D1.8_7.tif,1.8,2,,,,,,,,,,,,,0,31,31,136,,,,,,,,,,,None,None,None,10.538,,,,,,,,,,,,,,,,,,,2019_Feb_01_1646,60.07674395815525,Cloud_Experiment_FR_REAL,001,14,
images/fcloud_D1_9.tif,1.0,0,,,,,,,,,,,,,0,32,32,10,,,,,,,,,,,None,None,None,19.186,,,,,,,,,,,,,,,,,,,2019_Feb_01_1646,60.07674395815525,Cloud_Experiment_FR_REAL,001,14,
images/fcloud80-20_D0.8_8.tif,0.8,2,,,,,,,,,,,,,0,33,33,97,,,,,,,,,,,None,None,None,29.006,,,,,,,,,,,,,,,,,,,2019_Feb_01_1646,60.07674395815525,Cloud_Experiment_FR_REAL,001,14,
images/fcloud_D1.9_8.tif,1.9,0,,,,,,,,,,,,,0,34,34,45,,,,,,,,,,,None,space,None,37.866,6.15884520145,,,,,,,,,,,,,,,,,,2019_Feb_01_1646,60.07674395815525,Cloud_Experiment_FR_REAL,001,14,
images/fcloud65-35_D1.9_10.tif,1.9,1,,,,,,,,,,,,,0,35,35,95,,,,,,,,,,,1,space,2,0.635,7.88697579665,,,,,,,,,,,,,,,,,,2019_Feb_01_1646,60.07674395815525,Cloud_Experiment_FR_REAL,001,14,
images/fcloud_D1.4_9.tif,1.4,0,,,,,,,,,,,,,0,36,36,26,,,,,,,,,,,2,space,3,1.817,6.77823985803,,,,,,,,,,,,,,,,,,2019_Feb_01_1646,60.07674395815525,Cloud_Experiment_FR_REAL,001,14,
images/fcloud_D1.6_10.tif,1.6,0,,,,,,,,,,,,,0,37,37,35,,,,,,,,,,,None,None,None,10.844,,,,,,,,,,,,,,,,,,,2019_Feb_01_1646,60.07674395815525,Cloud_Experiment_FR_REAL,001,14,
images/fcloud_D1.1_8.tif,1.1,0,,,,,,,,,,,,,0,38,38,13,,,,,,,,,,,None,None,None,19.871,,,,,,,,,,,,,,,,,,,2019_Feb_01_1646,60.07674395815525,Cloud_Experiment_FR_REAL,001,14,
images/fcloud_D0.9_8.tif,0.9,0,,,,,,,,,,,,,0,39,39,5,,,,,,,,,,,None,None,None,28.965,,,,,,,,,,,,,,,,,,,2019_Feb_01_1646,60.07674395815525,Cloud_Experiment_FR_REAL,001,14,
images/fcloud65-35_D1_10.tif,1.0,1,,,,,,,,,,,,,0,40,40,59,,,,,,,,,,,None,None,None,37.901,,,,,,,,,,,,,,,,,,,2019_Feb_01_1646,60.07674395815525,Cloud_Experiment_FR_REAL,001,14,
images/fcloud65-35_D1.3_8.tif,1.3,1,,,,,,,,,,,,,0,41,41,69,,,,,,,,,,,1,space,3,2.385,3.69669137397,,,,,,,,,,,,,,,,,,2019_Feb_01_1646,60.07674395815525,Cloud_Experiment_FR_REAL,001,14,
images/fcloud_D1.6_9.tif,1.6,0,,,,,,,,,,,,,0,42,42,34,,,,,,,,,,,None,None,None,11.776,,,,,,,,,,,,,,,,,,,2019_Feb_01_1646,60.07674395815525,Cloud_Experiment_FR_REAL,001,14,
images/fcloud80-20_D1_7.tif,1.0,2,,,,,,,,,,,,,0,43,43,104,,,,,,,,,,,None,None,None,20.386,,,,,,,,,,,,,,,,,,,2019_Feb_01_1646,60.07674395815525,Cloud_Experiment_FR_REAL,001,14,
images/fcloud80-20_D1.9_8.tif,1.9,2,,,,,,,,,,,,,0,44,44,141,,,,,,,,,,,None,None,None,29.095,,,,,,,,,,,,,,,,,,,2019_Feb_01_1646,60.07674395815525,Cloud_Experiment_FR_REAL,001,14,
images/fcloud80-20_D1.9_7.tif,1.9,2,,,,,,,,,,,,,0,45,45,140,,,,,,,,,,,None,space,None,40.57,9.11158946985,,,,,,,,,,,,,,,,,,2019_Feb_01_1646,60.07674395815525,Cloud_Experiment_FR_REAL,001,14,
images/fcloud_D1.3_10.tif,1.3,0,,,,,,,,,,,,,0,46,46,23,,,,,,,,,,,3,space,4,2.034,4.00011257851,,,,,,,,,,,,,,,,,,2019_Feb_01_1646,60.07674395815525,Cloud_Experiment_FR_REAL,001,14,
images/fcloud80-20_D1.6_9.tif,1.6,2,,,,,,,,,,,,,0,47,47,130,,,,,,,,,,,None,None,None,10.894,,,,,,,,,,,,,,,,,,,2019_Feb_01_1646,60.07674395815525,Cloud_Experiment_FR_REAL,001,14,
images/fcloud65-35_D1.3_10.tif,1.3,1,,,,,,,,,,,,,0,48,48,71,,,,,,,,,,,None,None,None,19.808,,,,,,,,,,,,,,,,,,,2019_Feb_01_1646,60.07674395815525,Cloud_Experiment_FR_REAL,001,14,
images/fcloud65-35_D0.8_8.tif,0.8,1,,,,,,,,,,,,,0,49,49,49,,,,,,,,,,,None,None,None,28.711,,,,,,,,,,,,,,,,,,,2019_Feb_01_1646,60.07674395815525,Cloud_Experiment_FR_REAL,001,14,
images/fcloud65-35_D1.9_8.tif,1.9,1,,,,,,,,,,,,,0,50,50,93,,,,,,,,,,,None,None,None,37.686,,,,,,,,,,,,,,,,,,,2019_Feb_01_1646,60.07674395815525,Cloud_Experiment_FR_REAL,001,14,
images/fcloud_D1.3_9.tif,1.3,0,,,,,,,,,,,,,0,51,51,22,,,,,,,,,,,None,None,None,46.843,,,,,,,,,,,,,,,,,,,2019_Feb_01_1646,60.07674395815525,Cloud_Experiment_FR_REAL,001,14,
images/fcloud80-20_D1.5_8.tif,1.5,2,,,,,,,,,,,,,0,52,52,125,,,,,,,,,,,None,None,None,55.489,,,,,,,,,,,,,,,,,,,2019_Feb_01_1646,60.07674395815525,Cloud_Experiment_FR_REAL,001,14,
images/fcloud_D1.5_8.tif,1.5,0,,,,,,,,,,,,,0,53,53,29,,,,,,,,,,,3,space,3,1.652,5.15987485793,,,,,,,,,,,,,,,,,,2019_Feb_01_1646,60.07674395815525,Cloud_Experiment_FR_REAL,001,14,
images/fcloud65-35_D0.9_7.tif,0.9,1,,,,,,,,,,,,,0,54,54,52,,,,,,,,,,,None,None,None,10.565,,,,,,,,,,,,,,,,,,,2019_Feb_01_1646,60.07674395815525,Cloud_Experiment_FR_REAL,001,14,
images/fcloud65-35_D1.8_8.tif,1.8,1,,,,,,,,,,,,,0,55,55,89,,,,,,,,,,,None,None,None,19.657,,,,,,,,,,,,,,,,,,,2019_Feb_01_1646,60.07674395815525,Cloud_Experiment_FR_REAL,001,14,
images/fcloud80-20_D1.7_9.tif,1.7,2,,,,,,,,,,,,,0,56,56,134,,,,,,,,,,,None,None,None,28.36,,,,,,,,,,,,,,,,,,,2019_Feb_01_1646,60.07674395815525,Cloud_Experiment_FR_REAL,001,14,
images/fcloud80-20_D1.8_9.tif,1.8,2,,,,,,,,,,,,,0,57,57,138,,,,,,,,,,,1,space,2,0.701,5.14770147056,,,,,,,,,,,,,,,,,,2019_Feb_01_1646,60.07674395815525,Cloud_Experiment_FR_REAL,001,14,
images/fcloud80-20_D1_9.tif,1.0,2,,,,,,,,,,,,,0,58,58,106,,,,,,,,,,,None,None,None,9.742,,,,,,,,,,,,,,,,,,,2019_Feb_01_1646,60.07674395815525,Cloud_Experiment_FR_REAL,001,14,
images/fcloud_D1.4_8.tif,1.4,0,,,,,,,,,,,,,0,59,59,25,,,,,,,,,,,1,space,3,0.752,4.40050706596,,,,,,,,,,,,,,,,,,2019_Feb_01_1646,60.07674395815525,Cloud_Experiment_FR_REAL,001,14,
images/fcloud80-20_D0.8_9.tif,0.8,2,,,,,,,,,,,,,0,60,60,98,,,,,,,,,,,None,None,None,9.744,,,,,,,,,,,,,,,,,,,2019_Feb_01_1646,60.07674395815525,Cloud_Experiment_FR_REAL,001,14,
images/fcloud80-20_D1.5_7.tif,1.5,2,,,,,,,,,,,,,0,61,61,124,,,,,,,,,,,None,None,None,18.602,,,,,,,,,,,,,,,,,,,2019_Feb_01_1646,60.07674395815525,Cloud_Experiment_FR_REAL,001,14,
images/fcloud65-35_D1.5_9.tif,1.5,1,,,,,,,,,,,,,0,62,62,78,,,,,,,,,,,2,space,3,0.551,5.0617284966,,,,,,,,,,,,,,,,,,2019_Feb_01_1646,60.07674395815525,Cloud_Experiment_FR_REAL,001,14,
images/fcloud_D1_8.tif,1.0,0,,,,,,,,,,,,,0,63,63,9,,,,,,,,,,,1,space,4,1.067,3.52036463103,,,,,,,,,,,,,,,,,,2019_Feb_01_1646,60.07674395815525,Cloud_Experiment_FR_REAL,001,14,
images/fcloud65-35_D1.4_10.tif,1.4,1,,,,,,,,,,,,,0,64,64,75,,,,,,,,,,,2,space,3,0.973,5.01893735133,,,,,,,,,,,,,,,,,,2019_Feb_01_1646,60.07674395815525,Cloud_Experiment_FR_REAL,001,14,
images/fcloud65-35_D0.8_10.tif,0.8,1,,,,,,,,,,,,,0,65,65,51,,,,,,,,,,,None,space,None,11.942,8.83471006405,,,,,,,,,,,,,,,,,,2019_Feb_01_1646,60.07674395815525,Cloud_Experiment_FR_REAL,001,14,
images/fcloud65-35_D1.3_7.tif,1.3,1,,,,,,,,,,,,,0,66,66,68,,,,,,,,,,,None,None,None,20.972,,,,,,,,,,,,,,,,,,,2019_Feb_01_1646,60.07674395815525,Cloud_Experiment_FR_REAL,001,14,
images/fcloud65-35_D1.5_8.tif,1.5,1,,,,,,,,,,,,,0,67,67,77,,,,,,,,,,,None,None,None,29.812,,,,,,,,,,,,,,,,,,,2019_Feb_01_1646,60.07674395815525,Cloud_Experiment_FR_REAL,001,14,
images/fcloud65-35_D1.2_9.tif,1.2,1,,,,,,,,,,,,,0,68,68,66,,,,,,,,,,,None,None,None,38.234,,,,,,,,,,,,,,,,,,,2019_Feb_01_1646,60.07674395815525,Cloud_Experiment_FR_REAL,001,14,
images/fcloud_D1.5_7.tif,1.5,0,,,,,,,,,,,,,0,69,69,28,,,,,,,,,,,None,None,None,46.797,,,,,,,,,,,,,,,,,,,2019_Feb_01_1646,60.07674395815525,Cloud_Experiment_FR_REAL,001,14,
images/fcloud65-35_D1.6_10.tif,1.6,1,,,,,,,,,,,,,0,70,70,83,,,,,,,,,,,None,None,None,55.336,,,,,,,,,,,,,,,,,,,2019_Feb_01_1646,60.07674395815525,Cloud_Experiment_FR_REAL,001,14,
images/fcloud80-20_D1.3_9.tif,1.3,2,,,,,,,,,,,,,0,71,71,118,,,,,,,,,,,None,None,None,63.786,,,,,,,,,,,,,,,,,,,2019_Feb_01_1646,60.07674395815525,Cloud_Experiment_FR_REAL,001,14,
images/fcloud65-35_D1_7.tif,1.0,1,,,,,,,,,,,,,0,72,72,56,,,,,,,,,,,None,None,None,72.376,,,,,,,,,,,,,,,,,,,2019_Feb_01_1646,60.07674395815525,Cloud_Experiment_FR_REAL,001,14,
images/fcloud80-20_D1.6_7.tif,1.6,2,,,,,,,,,,,,,0,73,73,128,,,,,,,,,,,None,None,None,81.099,,,,,,,,,,,,,,,,,,,2019_Feb_01_1646,60.07674395815525,Cloud_Experiment_FR_REAL,001,14,
images/fcloud80-20_D1.2_10.tif,1.2,2,,,,,,,,,,,,,0,74,74,115,,,,,,,,,,,None,None,None,90.072,,,,,,,,,,,,,,,,,,,2019_Feb_01_1646,60.07674395815525,Cloud_Experiment_FR_REAL,001,14,
images/fcloud_D0.8_9.tif,0.8,0,,,,,,,,,,,,,0,75,75,2,,,,,,,,,,,1,space,2,1.354,6.99970852959,,,,,,,,,,,,,,,,,,2019_Feb_01_1646,60.07674395815525,Cloud_Experiment_FR_REAL,001,14,
images/fcloud80-20_D1.1_8.tif,1.1,2,,,,,,,,,,,,,0,76,76,109,,,,,,,,,,,None,None,None,10.309,,,,,,,,,,,,,,,,,,,2019_Feb_01_1646,60.07674395815525,Cloud_Experiment_FR_REAL,001,14,
images/fcloud80-20_D1.6_10.tif,1.6,2,,,,,,,,,,,,,0,77,77,131,,,,,,,,,,,None,None,None,19.167,,,,,,,,,,,,,,,,,,,2019_Feb_01_1646,60.07674395815525,Cloud_Experiment_FR_REAL,001,14,
images/fcloud65-35_D1.7_7.tif,1.7,1,,,,,,,,,,,,,0,78,78,84,,,,,,,,,,,1,space,1,0.758,7.52810581763,,,,,,,,,,,,,,,,,,2019_Feb_01_1646,60.07674395815525,Cloud_Experiment_FR_REAL,001,14,
images/fcloud65-35_D1.8_9.tif,1.8,1,,,,,,,,,,,,,0,79,79,90,,,,,,,,,,,None,None,None,10.692,,,,,,,,,,,,,,,,,,,2019_Feb_01_1646,60.07674395815525,Cloud_Experiment_FR_REAL,001,14,
images/fcloud_D1.2_9.tif,1.2,0,,,,,,,,,,,,,0,80,80,18,,,,,,,,,,,None,None,None,19.769,,,,,,,,,,,,,,,,,,,2019_Feb_01_1646,60.07674395815525,Cloud_Experiment_FR_REAL,001,14,
images/fcloud80-20_D0.9_8.tif,0.9,2,,,,,,,,,,,,,0,81,81,101,,,,,,,,,,,None,None,None,28.925,,,,,,,,,,,,,,,,,,,2019_Feb_01_1646,60.07674395815525,Cloud_Experiment_FR_REAL,001,14,
images/fcloud65-35_D1.4_7.tif,1.4,1,,,,,,,,,,,,,0,82,82,72,,,,,,,,,,,None,None,None,37.473,,,,,,,,,,,,,,,,,,,2019_Feb_01_1646,60.07674395815525,Cloud_Experiment_FR_REAL,001,14,
images/fcloud_D1_10.tif,1.0,0,,,,,,,,,,,,,0,83,83,11,,,,,,,,,,,1,space,4,1.817,2.65727809824,,,,,,,,,,,,,,,,,,2019_Feb_01_1646,60.07674395815525,Cloud_Experiment_FR_REAL,001,14,
images/fcloud_D1.4_7.tif,1.4,0,,,,,,,,,,,,,0,84,84,24,,,,,,,,,,,1,space,3,0.584,3.89091450252,,,,,,,,,,,,,,,,,,2019_Feb_01_1646,60.07674395815525,Cloud_Experiment_FR_REAL,001,14,
images/fcloud65-35_D1.1_8.tif,1.1,1,,,,,,,,,,,,,0,85,85,61,,,,,,,,,,,None,None,None,9.593,,,,,,,,,,,,,,,,,,,2019_Feb_01_1646,60.07674395815525,Cloud_Experiment_FR_REAL,001,14,
images/fcloud65-35_D1.1_7.tif,1.1,1,,,,,,,,,,,,,0,86,86,60,,,,,,,,,,,None,None,None,18.189,,,,,,,,,,,,,,,,,,,2019_Feb_01_1646,60.07674395815525,Cloud_Experiment_FR_REAL,001,14,
images/fcloud_D1.3_7.tif,1.3,0,,,,,,,,,,,,,0,87,87,20,,,,,,,,,,,None,None,None,27.18,,,,,,,,,,,,,,,,,,,2019_Feb_01_1646,60.07674395815525,Cloud_Experiment_FR_REAL,001,14,
images/fcloud65-35_D1.5_7.tif,1.5,1,,,,,,,,,,,,,0,88,88,76,,,,,,,,,,,None,None,None,35.671,,,,,,,,,,,,,,,,,,,2019_Feb_01_1646,60.07674395815525,Cloud_Experiment_FR_REAL,001,14,
images/fcloud80-20_D0.8_10.tif,0.8,2,,,,,,,,,,,,,0,89,89,99,,,,,,,,,,,None,None,None,44.115,,,,,,,,,,,,,,,,,,,2019_Feb_01_1646,60.07674395815525,Cloud_Experiment_FR_REAL,001,14,
images/fcloud80-20_D1.9_9.tif,1.9,2,,,,,,,,,,,,,0,90,90,142,,,,,,,,,,,None,None,None,52.89,,,,,,,,,,,,,,,,,,,2019_Feb_01_1646,60.07674395815525,Cloud_Experiment_FR_REAL,001,14,
images/fcloud65-35_D0.8_9.tif,0.8,1,,,,,,,,,,,,,0,91,91,50,,,,,,,,,,,None,None,None,61.563,,,,,,,,,,,,,,,,,,,2019_Feb_01_1646,60.07674395815525,Cloud_Experiment_FR_REAL,001,14,
images/fcloud80-20_D1.5_9.tif,1.5,2,,,,,,,,,,,,,0,92,92,126,,,,,,,,,,,None,None,None,70.141,,,,,,,,,,,,,,,,,,,2019_Feb_01_1646,60.07674395815525,Cloud_Experiment_FR_REAL,001,14,
images/fcloud65-35_D1.5_10.tif,1.5,1,,,,,,,,,,,,,0,93,93,79,,,,,,,,,,,1,space,2,0.851,7.05802420079,,,,,,,,,,,,,,,,,,2019_Feb_01_1646,60.07674395815525,Cloud_Experiment_FR_REAL,001,14,
images/fcloud_D1.7_9.tif,1.7,0,,,,,,,,,,,,,0,94,94,38,,,,,,,,,,,None,None,None,9.878,,,,,,,,,,,,,,,,,,,2019_Feb_01_1646,60.07674395815525,Cloud_Experiment_FR_REAL,001,14,
images/fcloud80-20_D1.2_9.tif,1.2,2,,,,,,,,,,,,,0,95,95,114,,,,,,,,,,,None,None,None,19.17,,,,,,,,,,,,,,,,,,,2019_Feb_01_1646,60.07674395815525,Cloud_Experiment_FR_REAL,001,14,
images/fcloud65-35_D1.8_10.tif,1.8,1,,,,,,,,,,,,,0,96,96,91,,,,,,,,,,,None,None,None,27.763,,,,,,,,,,,,,,,,,,,2019_Feb_01_1646,60.07674395815525,Cloud_Experiment_FR_REAL,001,14,
images/fcloud65-35_D1.3_9.tif,1.3,1,,,,,,,,,,,,,0,97,97,70,,,,,,,,,,,2,space,3,0.801,5.67397724475,,,,,,,,,,,,,,,,,,2019_Feb_01_1646,60.07674395815525,Cloud_Experiment_FR_REAL,001,14,
images/fcloud80-20_D1.2_8.tif,1.2,2,,,,,,,,,,,,,0,98,98,113,,,,,,,,,,,None,None,None,9.811,,,,,,,,,,,,,,,,,,,2019_Feb_01_1646,60.07674395815525,Cloud_Experiment_FR_REAL,001,14,
images/fcloud65-35_D0.9_10.tif,0.9,1,,,,,,,,,,,,,0,99,99,55,,,,,,,,,,,1,space,3,1.068,6.29409003917,,,,,,,,,,,,,,,,,,2019_Feb_01_1646,60.07674395815525,Cloud_Experiment_FR_REAL,001,14,
images/fcloud_D1.1_7.tif,1.1,0,,,,,,,,,,,,,0,100,100,12,,,,,,,,,,,1,space,3,1.433,7.19443594823,,,,,,,,,,,,,,,,,,2019_Feb_01_1646,60.07674395815525,Cloud_Experiment_FR_REAL,001,14,
images/fcloud_D0.8_7.tif,0.8,0,,,,,,,,,,,,,0,101,101,0,,,,,,,,,,,None,None,None,10.724,,,,,,,,,,,,,,,,,,,2019_Feb_01_1646,60.07674395815525,Cloud_Experiment_FR_REAL,001,14,
images/fcloud_D0.8_10.tif,0.8,0,,,,,,,,,,,,,0,102,102,3,,,,,,,,,,,None,None,None,19.333,,,,,,,,,,,,,,,,,,,2019_Feb_01_1646,60.07674395815525,Cloud_Experiment_FR_REAL,001,14,
images/fcloud80-20_D1.7_8.tif,1.7,2,,,,,,,,,,,,,0,103,103,133,,,,,,,,,,,None,None,None,28.145,,,,,,,,,,,,,,,,,,,2019_Feb_01_1646,60.07674395815525,Cloud_Experiment_FR_REAL,001,14,
images/fcloud65-35_D1.1_9.tif,1.1,1,,,,,,,,,,,,,0,104,104,62,,,,,,,,,,,None,None,None,37.039,,,,,,,,,,,,,,,,,,,2019_Feb_01_1646,60.07674395815525,Cloud_Experiment_FR_REAL,001,14,
images/fcloud65-35_D1.2_10.tif,1.2,1,,,,,,,,,,,,,0,105,105,67,,,,,,,,,,,None,None,None,45.677,,,,,,,,,,,,,,,,,,,2019_Feb_01_1646,60.07674395815525,Cloud_Experiment_FR_REAL,001,14,
images/fcloud65-35_D1.9_7.tif,1.9,1,,,,,,,,,,,,,0,106,106,92,,,,,,,,,,,1,space,2,0.65,7.89546545048,,,,,,,,,,,,,,,,,,2019_Feb_01_1646,60.07674395815525,Cloud_Experiment_FR_REAL,001,14,
images/fcloud_D1.5_10.tif,1.5,0,,,,,,,,,,,,,0,107,107,31,,,,,,,,,,,None,None,None,9.642,,,,,,,,,,,,,,,,,,,2019_Feb_01_1646,60.07674395815525,Cloud_Experiment_FR_REAL,001,14,
images/fcloud_D1.2_10.tif,1.2,0,,,,,,,,,,,,,0,108,108,19,,,,,,,,,,,None,None,None,18.488,,,,,,,,,,,,,,,,,,,2019_Feb_01_1646,60.07674395815525,Cloud_Experiment_FR_REAL,001,14,
images/fcloud65-35_D1.6_8.tif,1.6,1,,,,,,,,,,,,,0,109,109,81,,,,,,,,,,,None,None,None,27.393,,,,,,,,,,,,,,,,,,,2019_Feb_01_1646,60.07674395815525,Cloud_Experiment_FR_REAL,001,14,
images/fcloud65-35_D1.8_7.tif,1.8,1,,,,,,,,,,,,,0,110,110,88,,,,,,,,,,,None,None,None,36.352,,,,,,,,,,,,,,,,,,,2019_Feb_01_1646,60.07674395815525,Cloud_Experiment_FR_REAL,001,14,
images/fcloud_D1.1_10.tif,1.1,0,,,,,,,,,,,,,0,111,111,15,,,,,,,,,,,None,None,None,45.295,,,,,,,,,,,,,,,,,,,2019_Feb_01_1646,60.07674395815525,Cloud_Experiment_FR_REAL,001,14,
images/fcloud_D1.9_9.tif,1.9,0,,,,,,,,,,,,,0,112,112,46,,,,,,,,,,,None,None,None,53.786,,,,,,,,,,,,,,,,,,,2019_Feb_01_1646,60.07674395815525,Cloud_Experiment_FR_REAL,001,14,
images/fcloud65-35_D1.2_8.tif,1.2,1,,,,,,,,,,,,,0,113,113,65,,,,,,,,,,,None,None,None,62.479,,,,,,,,,,,,,,,,,,,2019_Feb_01_1646,60.07674395815525,Cloud_Experiment_FR_REAL,001,14,
images/fcloud65-35_D1.4_9.tif,1.4,1,,,,,,,,,,,,,0,114,114,74,,,,,,,,,,,None,None,None,70.973,,,,,,,,,,,,,,,,,,,2019_Feb_01_1646,60.07674395815525,Cloud_Experiment_FR_REAL,001,14,
images/fcloud65-35_D1_9.tif,1.0,1,,,,,,,,,,,,,0,115,115,58,,,,,,,,,,,1,space,3,0.719,2.39642596626,,,,,,,,,,,,,,,,,,2019_Feb_01_1646,60.07674395815525,Cloud_Experiment_FR_REAL,001,14,
images/fcloud80-20_D1.1_7.tif,1.1,2,,,,,,,,,,,,,0,116,116,108,,,,,,,,,,,None,None,None,11.757,,,,,,,,,,,,,,,,,,,2019_Feb_01_1646,60.07674395815525,Cloud_Experiment_FR_REAL,001,14,
images/fcloud80-20_D1.3_7.tif,1.3,2,,,,,,,,,,,,,0,117,117,116,,,,,,,,,,,None,None,None,20.233,,,,,,,,,,,,,,,,,,,2019_Feb_01_1646,60.07674395815525,Cloud_Experiment_FR_REAL,001,14,
images/fcloud65-35_D1.7_9.tif,1.7,1,,,,,,,,,,,,,0,118,118,86,,,,,,,,,,,None,None,None,29.877,,,,,,,,,,,,,,,,,,,2019_Feb_01_1646,60.07674395815525,Cloud_Experiment_FR_REAL,001,14,
images/fcloud80-20_D1.4_10.tif,1.4,2,,,,,,,,,,,,,0,119,119,123,,,,,,,,,,,1,space,1,0.903,2.72552586762,,,,,,,,,,,,,,,,,,2019_Feb_01_1646,60.07674395815525,Cloud_Experiment_FR_REAL,001,14,
images/fcloud65-35_D1.1_10.tif,1.1,1,,,,,,,,,,,,,0,120,120,63,,,,,,,,,,,None,None,None,9.826,,,,,,,,,,,,,,,,,,,2019_Feb_01_1646,60.07674395815525,Cloud_Experiment_FR_REAL,001,14,
images/fcloud_D1.8_9.tif,1.8,0,,,,,,,,,,,,,0,121,121,42,,,,,,,,,,,None,None,None,18.401,,,,,,,,,,,,,,,,,,,2019_Feb_01_1646,60.07674395815525,Cloud_Experiment_FR_REAL,001,14,
images/fcloud_D1.8_10.tif,1.8,0,,,,,,,,,,,,,0,122,122,43,,,,,,,,,,,None,None,None,27.027,,,,,,,,,,,,,,,,,,,2019_Feb_01_1646,60.07674395815525,Cloud_Experiment_FR_REAL,001,14,
images/fcloud_D1.7_7.tif,1.7,0,,,,,,,,,,,,,0,123,123,36,,,,,,,,,,,1,space,3,0.571,3.30547229257,,,,,,,,,,,,,,,,,,2019_Feb_01_1646,60.07674395815525,Cloud_Experiment_FR_REAL,001,14,
images/fcloud80-20_D1.6_8.tif,1.6,2,,,,,,,,,,,,,0,124,124,129,,,,,,,,,,,None,None,None,9.611,,,,,,,,,,,,,,,,,,,2019_Feb_01_1646,60.07674395815525,Cloud_Experiment_FR_REAL,001,14,
images/fcloud80-20_D1.2_7.tif,1.2,2,,,,,,,,,,,,,0,125,125,112,,,,,,,,,,,None,None,None,18.184,,,,,,,,,,,,,,,,,,,2019_Feb_01_1646,60.07674395815525,Cloud_Experiment_FR_REAL,001,14,
images/fcloud80-20_D1.1_9.tif,1.1,2,,,,,,,,,,,,,0,126,126,110,,,,,,,,,,,None,None,None,26.694,,,,,,,,,,,,,,,,,,,2019_Feb_01_1646,60.07674395815525,Cloud_Experiment_FR_REAL,001,14,
images/fcloud80-20_D1.4_8.tif,1.4,2,,,,,,,,,,,,,0,127,127,121,,,,,,,,,,,None,None,None,35.353,,,,,,,,,,,,,,,,,,,2019_Feb_01_1646,60.07674395815525,Cloud_Experiment_FR_REAL,001,14,
images/fcloud65-35_D0.9_8.tif,0.9,1,,,,,,,,,,,,,0,128,128,53,,,,,,,,,,,None,None,None,44.378,,,,,,,,,,,,,,,,,,,2019_Feb_01_1646,60.07674395815525,Cloud_Experiment_FR_REAL,001,14,
images/fcloud65-35_D0.9_9.tif,0.9,1,,,,,,,,,,,,,0,129,129,54,,,,,,,,,,,None,None,None,53.271,,,,,,,,,,,,,,,,,,,2019_Feb_01_1646,60.07674395815525,Cloud_Experiment_FR_REAL,001,14,
images/fcloud80-20_D1.3_8.tif,1.3,2,,,,,,,,,,,,,0,130,130,117,,,,,,,,,,,None,None,None,61.864,,,,,,,,,,,,,,,,,,,2019_Feb_01_1646,60.07674395815525,Cloud_Experiment_FR_REAL,001,14,
images/fcloud_D0.9_7.tif,0.9,0,,,,,,,,,,,,,0,131,131,4,,,,,,,,,,,None,None,None,70.689,,,,,,,,,,,,,,,,,,,2019_Feb_01_1646,60.07674395815525,Cloud_Experiment_FR_REAL,001,14,
images/fcloud_D1.9_7.tif,1.9,0,,,,,,,,,,,,,0,132,132,44,,,,,,,,,,,1,space,2,1.535,3.62586920639,,,,,,,,,,,,,,,,,,2019_Feb_01_1646,60.07674395815525,Cloud_Experiment_FR_REAL,001,14,
images/fcloud_D0.8_8.tif,0.8,0,,,,,,,,,,,,,0,133,133,1,,,,,,,,,,,None,None,None,10.691,,,,,,,,,,,,,,,,,,,2019_Feb_01_1646,60.07674395815525,Cloud_Experiment_FR_REAL,001,14,
images/fcloud65-35_D1.6_7.tif,1.6,1,,,,,,,,,,,,,0,134,134,80,,,,,,,,,,,None,None,None,19.367,,,,,,,,,,,,,,,,,,,2019_Feb_01_1646,60.07674395815525,Cloud_Experiment_FR_REAL,001,14,
images/fcloud80-20_D0.9_10.tif,0.9,2,,,,,,,,,,,,,0,135,135,103,,,,,,,,,,,None,None,None,27.846,,,,,,,,,,,,,,,,,,,2019_Feb_01_1646,60.07674395815525,Cloud_Experiment_FR_REAL,001,14,
images/fcloud65-35_D1.7_10.tif,1.7,1,,,,,,,,,,,,,0,136,136,87,,,,,,,,,,,None,None,None,36.769,,,,,,,,,,,,,,,,,,,2019_Feb_01_1646,60.07674395815525,Cloud_Experiment_FR_REAL,001,14,
images/fcloud_D1.8_8.tif,1.8,0,,,,,,,,,,,,,0,137,137,41,,,,,,,,,,,1,space,2,0.902,4.76596108895,,,,,,,,,,,,,,,,,,2019_Feb_01_1646,60.07674395815525,Cloud_Experiment_FR_REAL,001,14,
images/fcloud80-20_D1.3_10.tif,1.3,2,,,,,,,,,,,,,0,138,138,119,,,,,,,,,,,None,None,None,9.725,,,,,,,,,,,,,,,,,,,2019_Feb_01_1646,60.07674395815525,Cloud_Experiment_FR_REAL,001,14,
images/fcloud_D1.3_8.tif,1.3,0,,,,,,,,,,,,,0,139,139,21,,,,,,,,,,,1,space,2,2.0,3.66781884008,,,,,,,,,,,,,,,,,,2019_Feb_01_1646,60.07674395815525,Cloud_Experiment_FR_REAL,001,14,
images/fcloud_D1.2_7.tif,1.2,0,,,,,,,,,,,,,0,140,140,16,,,,,,,,,,,None,None,None,11.043,,,,,,,,,,,,,,,,,,,2019_Feb_01_1646,60.07674395815525,Cloud_Experiment_FR_REAL,001,14,
images/fcloud80-20_D1_10.tif,1.0,2,,,,,,,,,,,,,0,141,141,107,,,,,,,,,,,None,None,None,20.0,,,,,,,,,,,,,,,,,,,2019_Feb_01_1646,60.07674395815525,Cloud_Experiment_FR_REAL,001,14,
images/fcloud80-20_D1.4_7.tif,1.4,2,,,,,,,,,,,,,0,142,142,120,,,,,,,,,,,None,None,None,28.576,,,,,,,,,,,,,,,,,,,2019_Feb_01_1646,60.07674395815525,Cloud_Experiment_FR_REAL,001,14,
images/fcloud80-20_D1.9_10.tif,1.9,2,,,,,,,,,,,,,0,143,143,143,,,,,,,,,,,None,None,None,37.102,,,,,,,,,,,,,,,,,,,2019_Feb_01_1646,60.07674395815525,Cloud_Experiment_FR_REAL,001,14,
,,,,,,,,,,,,,,,,,,,,,,,,,3,7.986,,,,,,,,,,,,,,,,,,,,,,,,,2019_Feb_01_1646,60.07674395815525,Cloud_Experiment_FR_REAL,001,14,
,,,,,,,,,,,,,,,,,,,,,,,,,,,,,,,,,,5,,,,,,,,,,,,,,,,,2019_Feb_01_1646,60.07674395815525,Cloud_Experiment_FR_REAL,001,14,
,,,,,,,,,,,,,,,,,,,,,,,,,,,,,,,,,,,5,,,,,,,,,,,,,,,,2019_Feb_01_1646,60.07674395815525,Cloud_Experiment_FR_REAL,001,14,
,,,,,,,,,,,,,,,,,,,,,,,,,,,,,,,,,,,,3,,,,,,,,,,,,,,,2019_Feb_01_1646,60.07674395815525,Cloud_Experiment_FR_REAL,001,14,
,,,,,,,,,,,,,,,,,,,,,,,,,,,,,,,,,,,,,5,,,,,,,,,,,,,,2019_Feb_01_1646,60.07674395815525,Cloud_Experiment_FR_REAL,001,14,
,,,,,,,,,,,,,,,,,,,,,,,,,,,,,,,,,,,,,,4,,,,,,,,,,,,,2019_Feb_01_1646,60.07674395815525,Cloud_Experiment_FR_REAL,001,14,
,,,,,,,,,,,,,,,,,,,,,,,,,,,,,,,,,,,,,,,3,,,,,,,,,,,,2019_Feb_01_1646,60.07674395815525,Cloud_Experiment_FR_REAL,001,14,
,,,,,,,,,,,,,,,,,,,,,,,,,,,,,,,,,,,,,,,,6,,,,,,,,,,,2019_Feb_01_1646,60.07674395815525,Cloud_Experiment_FR_REAL,001,14,
,,,,,,,,,,,,,,,,,,,,,,,,,,,,,,,,,,,,,,,,,7,,,,,,,,,,2019_Feb_01_1646,60.07674395815525,Cloud_Experiment_FR_REAL,001,14,
,,,,,,,,,,,,,,,,,,,,,,,,,,,,,,,,,,,,,,,,,,7,,,,,,,,,2019_Feb_01_1646,60.07674395815525,Cloud_Experiment_FR_REAL,001,14,
,,,,,,,,,,,,,,,,,,,,,,,,,,,,,,,,,,,,,,,,,,,5,,,,,,,,2019_Feb_01_1646,60.07674395815525,Cloud_Experiment_FR_REAL,001,14,
,,,,,,,,,,,,,,,,,,,,,,,,,,,,,,,,,,,,,,,,,,,,,,,,,,2,2019_Feb_01_1646,60.07674395815525,Cloud_Experiment_FR_REAL,001,14,
