ImageFile,FD,Contrast,trials_4.thisRepN,trials_4.thisTrialN,trials_4.thisN,trials_4.thisIndex,trials.thisRepN,trials.thisTrialN,trials.thisN,trials.thisIndex,trials_2.thisRepN,trials_2.thisTrialN,trials_2.thisN,trials_2.thisIndex,trials_3.thisRepN,trials_3.thisTrialN,trials_3.thisN,trials_3.thisIndex,end_instructions.keys,end_instructions.rt,key_resp_4.keys,key_resp_4.rt,key_resp_6.keys,key_resp_6.rt,Fatigue.response,Fatigue.rt,key_resp_5.keys,key_resp_5.rt,n_objets.response,reaction_time.keys,vividness.response,vividness.rt,reaction_time.rt,Flow01.response,Flow02.response,Flow03.response,Flow04.response,Flow05.response,Flow06.response,Flow07.response,Flow08.response,Flow09.response,Flow10.response,key_resp_2.keys,key_resp_2.rt,key_resp_8.keys,key_resp_8.rt,key_resp_3.keys,key_resp_3.rt,Redondance_question.response,date,frameRate,expName,session,participant,
,,,,,,,,,,,,,,,,,,,space,13.3235208391,,,,,,,,,,,,,,,,,,,,,,,,,,,,,,,2019_Feb_07_1733,59.76316654956823,Cloud_Experiment_FR_REAL,001,16,
,,,,,,,,,,,,,,,,,,,,,space,158.631107963,,,,,,,,,,,,,,,,,,,,,,,,,,,,,2019_Feb_07_1733,59.76316654956823,Cloud_Experiment_FR_REAL,001,16,
,,,,,,,,,,,,,,,,,,,,,,,space,49.7911262427,,,,,,,,,,,,,,,,,,,,,,,,,,,2019_Feb_07_1733,59.76316654956823,Cloud_Experiment_FR_REAL,001,16,
,,,,,,,,,,,,,,,,,,,,,,,,,5,15.172,,,,,,,,,,,,,,,,,,,,,,,,,2019_Feb_07_1733,59.76316654956823,Cloud_Experiment_FR_REAL,001,16,
,,,,,,,,,,,,,,,,,,,,,,,,,,,space,5.54695269489,,,,,,,,,,,,,,,,,,,,,,,2019_Feb_07_1733,59.76316654956823,Cloud_Experiment_FR_REAL,001,16,
pratique/fcloud80-20_D1.8_30,1.8,2,0,0,0,4,,,,,,,,,,,,,,,,,,,,,,,None,None,None,255.86,,,,,,,,,,,,,,,,,,,2019_Feb_07_1733,59.76316654956823,Cloud_Experiment_FR_REAL,001,16,
pratique/fcloud80-20_D1_30,1.0,2,0,1,1,9,,,,,,,,,,,,,,,,,,,,,,,None,None,None,266.633,,,,,,,,,,,,,,,,,,,2019_Feb_07_1733,59.76316654956823,Cloud_Experiment_FR_REAL,001,16,
pratique/fcloud80-20_D1.5_30,1.5,2,0,2,2,8,,,,,,,,,,,,,,,,,,,,,,,1,space,2,8.512,5.53157056274,,,,,,,,,,,,,,,,,,2019_Feb_07_1733,59.76316654956823,Cloud_Experiment_FR_REAL,001,16,
pratique/fcloud65-35_D1.3_30,1.3,1,0,3,3,6,,,,,,,,,,,,,,,,,,,,,,,2,space,4,6.579,2.72345061891,,,,,,,,,,,,,,,,,,2019_Feb_07_1733,59.76316654956823,Cloud_Experiment_FR_REAL,001,16,
pratique/fcloud65-35_D1.9_29,1.9,1,0,4,4,7,,,,,,,,,,,,,,,,,,,,,,,None,None,None,18.152,,,,,,,,,,,,,,,,,,,2019_Feb_07_1733,59.76316654956823,Cloud_Experiment_FR_REAL,001,16,
pratique/fcloud_D1.4_30,1.4,0,0,5,5,1,,,,,,,,,,,,,,,,,,,,,,,1,space,3,3.782,6.7317644651,,,,,,,,,,,,,,,,,,2019_Feb_07_1733,59.76316654956823,Cloud_Experiment_FR_REAL,001,16,
pratique/fcloud65-35_D1.6_30,1.6,1,0,6,6,2,,,,,,,,,,,,,,,,,,,,,,,2,space,2,2.302,4.12790667196,,,,,,,,,,,,,,,,,,2019_Feb_07_1733,59.76316654956823,Cloud_Experiment_FR_REAL,001,16,
pratique/fcloud_D1.6_28,1.6,0,0,7,7,5,,,,,,,,,,,,,,,,,,,,,,,2,space,5,3.001,1.20365607727,,,,,,,,,,,,,,,,,,2019_Feb_07_1733,59.76316654956823,Cloud_Experiment_FR_REAL,001,16,
pratique/fcloud65-35_D1.2_30,1.2,1,0,8,8,3,,,,,,,,,,,,,,,,,,,,,,,4,space,4,5.114,4.12688832474,,,,,,,,,,,,,,,,,,2019_Feb_07_1733,59.76316654956823,Cloud_Experiment_FR_REAL,001,16,
pratique/fcloud_D0.8_30,0.8,0,0,9,9,0,,,,,,,,,,,,,,,,,,,,,,,2,space,3,4.184,4.09247733909,,,,,,,,,,,,,,,,,,2019_Feb_07_1733,59.76316654956823,Cloud_Experiment_FR_REAL,001,16,
,,,,,,,,,,,,,,,,,,,,,,,,,,,,,,,,,,6,,,,,,,,,,,,,,,,,2019_Feb_07_1733,59.76316654956823,Cloud_Experiment_FR_REAL,001,16,
,,,,,,,,,,,,,,,,,,,,,,,,,,,,,,,,,,,3,,,,,,,,,,,,,,,,2019_Feb_07_1733,59.76316654956823,Cloud_Experiment_FR_REAL,001,16,
,,,,,,,,,,,,,,,,,,,,,,,,,,,,,,,,,,,,5,,,,,,,,,,,,,,,2019_Feb_07_1733,59.76316654956823,Cloud_Experiment_FR_REAL,001,16,
,,,,,,,,,,,,,,,,,,,,,,,,,,,,,,,,,,,,,4,,,,,,,,,,,,,,2019_Feb_07_1733,59.76316654956823,Cloud_Experiment_FR_REAL,001,16,
,,,,,,,,,,,,,,,,,,,,,,,,,,,,,,,,,,,,,,2,,,,,,,,,,,,,2019_Feb_07_1733,59.76316654956823,Cloud_Experiment_FR_REAL,001,16,
,,,,,,,,,,,,,,,,,,,,,,,,,,,,,,,,,,,,,,,6,,,,,,,,,,,,2019_Feb_07_1733,59.76316654956823,Cloud_Experiment_FR_REAL,001,16,
,,,,,,,,,,,,,,,,,,,,,,,,,,,,,,,,,,,,,,,,5,,,,,,,,,,,2019_Feb_07_1733,59.76316654956823,Cloud_Experiment_FR_REAL,001,16,
,,,,,,,,,,,,,,,,,,,,,,,,,,,,,,,,,,,,,,,,,5,,,,,,,,,,2019_Feb_07_1733,59.76316654956823,Cloud_Experiment_FR_REAL,001,16,
,,,,,,,,,,,,,,,,,,,,,,,,,,,,,,,,,,,,,,,,,,4,,,,,,,,,2019_Feb_07_1733,59.76316654956823,Cloud_Experiment_FR_REAL,001,16,
,,,,,,,,,,,,,,,,,,,,,,,,,,,,,,,,,,,,,,,,,,,6,,,,,,,,2019_Feb_07_1733,59.76316654956823,Cloud_Experiment_FR_REAL,001,16,
,,,,,,,,,,,,,,,,,,,,,,,,,,,,,,,,,,,,,,,,,,,,space,1.36790967395,,,,,,2019_Feb_07_1733,59.76316654956823,Cloud_Experiment_FR_REAL,001,16,
images/fcloud80-20_D1.3_2.tif,1.3,2,,,,,0,0,0,88,,,,,,,,,,,,,,,,,,,1,space,2,2.001,5.23828348087,,,,,,,,,,,,,,,,,,2019_Feb_07_1733,59.76316654956823,Cloud_Experiment_FR_REAL,001,16,
images/fcloud65-35_D1.2_3.tif,1.2,1,,,,,0,1,1,50,,,,,,,,,,,,,,,,,,,2,space,5,2.532,4.60371231509,,,,,,,,,,,,,,,,,,2019_Feb_07_1733,59.76316654956823,Cloud_Experiment_FR_REAL,001,16,
images/fcloud65-35_D1_2.tif,1.0,1,,,,,0,2,2,43,,,,,,,,,,,,,,,,,,,1,space,4,3.715,5.33028891555,,,,,,,,,,,,,,,,,,2019_Feb_07_1733,59.76316654956823,Cloud_Experiment_FR_REAL,001,16,
images/fcloud_D1.3_3.tif,1.3,0,,,,,0,3,3,17,,,,,,,,,,,,,,,,,,,2,space,2,1.184,6.39208012715,,,,,,,,,,,,,,,,,,2019_Feb_07_1733,59.76316654956823,Cloud_Experiment_FR_REAL,001,16,
images/fcloud65-35_D1.4_3.tif,1.4,1,,,,,0,4,4,56,,,,,,,,,,,,,,,,,,,1,space,1,0.752,5.63060984144,,,,,,,,,,,,,,,,,,2019_Feb_07_1733,59.76316654956823,Cloud_Experiment_FR_REAL,001,16,
images/fcloud_D1.4_1.tif,1.4,0,,,,,0,5,5,18,,,,,,,,,,,,,,,,,,,None,None,None,10.093,,,,,,,,,,,,,,,,,,,2019_Feb_07_1733,59.76316654956823,Cloud_Experiment_FR_REAL,001,16,
images/fcloud80-20_D1.9_3.tif,1.9,2,,,,,0,6,6,107,,,,,,,,,,,,,,,,,,,None,None,None,19.368,,,,,,,,,,,,,,,,,,,2019_Feb_07_1733,59.76316654956823,Cloud_Experiment_FR_REAL,001,16,
images/fcloud80-20_D1.8_3.tif,1.8,2,,,,,0,7,7,104,,,,,,,,,,,,,,,,,,,None,None,None,28.743,,,,,,,,,,,,,,,,,,,2019_Feb_07_1733,59.76316654956823,Cloud_Experiment_FR_REAL,001,16,
images/fcloud65-35_D1.3_3.tif,1.3,1,,,,,0,8,8,53,,,,,,,,,,,,,,,,,,,2,space,5,1.417,3.4368745531,,,,,,,,,,,,,,,,,,2019_Feb_07_1733,59.76316654956823,Cloud_Experiment_FR_REAL,001,16,
images/fcloud_D1.5_2.tif,1.5,0,,,,,0,9,9,22,,,,,,,,,,,,,,,,,,,None,None,None,10.443,,,,,,,,,,,,,,,,,,,2019_Feb_07_1733,59.76316654956823,Cloud_Experiment_FR_REAL,001,16,
images/fcloud80-20_D1.3_3.tif,1.3,2,,,,,0,10,10,89,,,,,,,,,,,,,,,,,,,1,space,1,2.683,6.25248122541,,,,,,,,,,,,,,,,,,2019_Feb_07_1733,59.76316654956823,Cloud_Experiment_FR_REAL,001,16,
images/fcloud80-20_D0.8_1.tif,0.8,2,,,,,0,11,11,72,,,,,,,,,,,,,,,,,,,1,space,5,1.367,1.23242682777,,,,,,,,,,,,,,,,,,2019_Feb_07_1733,59.76316654956823,Cloud_Experiment_FR_REAL,001,16,
images/fcloud_D1.6_1.tif,1.6,0,,,,,0,12,12,24,,,,,,,,,,,,,,,,,,,1,space,2,0.784,7.99034292228,,,,,,,,,,,,,,,,,,2019_Feb_07_1733,59.76316654956823,Cloud_Experiment_FR_REAL,001,16,
images/fcloud65-35_D1.3_1.tif,1.3,1,,,,,0,13,13,51,,,,,,,,,,,,,,,,,,,1,space,2,0.803,7.62716514443,,,,,,,,,,,,,,,,,,2019_Feb_07_1733,59.76316654956823,Cloud_Experiment_FR_REAL,001,16,
images/fcloud65-35_D1.1_2.tif,1.1,1,,,,,0,14,14,46,,,,,,,,,,,,,,,,,,,1,space,3,0.755,5.44210302841,,,,,,,,,,,,,,,,,,2019_Feb_07_1733,59.76316654956823,Cloud_Experiment_FR_REAL,001,16,
images/fcloud65-35_D1.8_3.tif,1.8,1,,,,,0,15,15,68,,,,,,,,,,,,,,,,,,,1,space,5,0.754,1.56316862768,,,,,,,,,,,,,,,,,,2019_Feb_07_1733,59.76316654956823,Cloud_Experiment_FR_REAL,001,16,
images/fcloud80-20_D1.3_1.tif,1.3,2,,,,,0,16,16,87,,,,,,,,,,,,,,,,,,,2,space,3,1.783,5.62178502232,,,,,,,,,,,,,,,,,,2019_Feb_07_1733,59.76316654956823,Cloud_Experiment_FR_REAL,001,16,
images/fcloud65-35_D1.1_3.tif,1.1,1,,,,,0,17,17,47,,,,,,,,,,,,,,,,,,,1,space,4,1.436,2.8896365565,,,,,,,,,,,,,,,,,,2019_Feb_07_1733,59.76316654956823,Cloud_Experiment_FR_REAL,001,16,
images/fcloud65-35_D0.9_2.tif,0.9,1,,,,,0,18,18,40,,,,,,,,,,,,,,,,,,,None,None,None,10.624,,,,,,,,,,,,,,,,,,,2019_Feb_07_1733,59.76316654956823,Cloud_Experiment_FR_REAL,001,16,
images/fcloud65-35_D1.5_1.tif,1.5,1,,,,,0,19,19,57,,,,,,,,,,,,,,,,,,,None,None,None,19.733,,,,,,,,,,,,,,,,,,,2019_Feb_07_1733,59.76316654956823,Cloud_Experiment_FR_REAL,001,16,
images/fcloud80-20_D0.9_2.tif,0.9,2,,,,,0,20,20,76,,,,,,,,,,,,,,,,,,,2,space,5,1.417,2.4931931122,,,,,,,,,,,,,,,,,,2019_Feb_07_1733,59.76316654956823,Cloud_Experiment_FR_REAL,001,16,
images/fcloud65-35_D1.8_1.tif,1.8,1,,,,,0,21,21,66,,,,,,,,,,,,,,,,,,,1,space,4,0.968,6.57163977541,,,,,,,,,,,,,,,,,,2019_Feb_07_1733,59.76316654956823,Cloud_Experiment_FR_REAL,001,16,
images/fcloud65-35_D1.4_2.tif,1.4,1,,,,,0,22,22,55,,,,,,,,,,,,,,,,,,,1,space,3,2.268,0.80277631979,,,,,,,,,,,,,,,,,,2019_Feb_07_1733,59.76316654956823,Cloud_Experiment_FR_REAL,001,16,
images/fcloud_D1.4_2.tif,1.4,0,,,,,0,23,23,19,,,,,,,,,,,,,,,,,,,1,space,2,1.235,4.81401977781,,,,,,,,,,,,,,,,,,2019_Feb_07_1733,59.76316654956823,Cloud_Experiment_FR_REAL,001,16,
images/fcloud65-35_D1.7_2.tif,1.7,1,,,,,0,24,24,64,,,,,,,,,,,,,,,,,,,None,None,None,10.458,,,,,,,,,,,,,,,,,,,2019_Feb_07_1733,59.76316654956823,Cloud_Experiment_FR_REAL,001,16,
images/fcloud80-20_D1.4_3.tif,1.4,2,,,,,0,25,25,92,,,,,,,,,,,,,,,,,,,None,None,None,19.434,,,,,,,,,,,,,,,,,,,2019_Feb_07_1733,59.76316654956823,Cloud_Experiment_FR_REAL,001,16,
images/fcloud_D1.1_1.tif,1.1,0,,,,,0,26,26,9,,,,,,,,,,,,,,,,,,,1,space,2,1.585,5.09077375371,,,,,,,,,,,,,,,,,,2019_Feb_07_1733,59.76316654956823,Cloud_Experiment_FR_REAL,001,16,
images/fcloud80-20_D1.7_2.tif,1.7,2,,,,,0,27,27,100,,,,,,,,,,,,,,,,,,,None,None,None,10.642,,,,,,,,,,,,,,,,,,,2019_Feb_07_1733,59.76316654956823,Cloud_Experiment_FR_REAL,001,16,
images/fcloud80-20_D0.9_1.tif,0.9,2,,,,,0,28,28,75,,,,,,,,,,,,,,,,,,,2,space,3,1.121,4.51790075505,,,,,,,,,,,,,,,,,,2019_Feb_07_1733,59.76316654956823,Cloud_Experiment_FR_REAL,001,16,
images/fcloud65-35_D1.4_1.tif,1.4,1,,,,,0,29,29,54,,,,,,,,,,,,,,,,,,,4,space,4,2.1,6.16717344138,,,,,,,,,,,,,,,,,,2019_Feb_07_1733,59.76316654956823,Cloud_Experiment_FR_REAL,001,16,
images/fcloud80-20_D1.8_2.tif,1.8,2,,,,,0,30,30,103,,,,,,,,,,,,,,,,,,,2,space,2,1.536,7.47615006147,,,,,,,,,,,,,,,,,,2019_Feb_07_1733,59.76316654956823,Cloud_Experiment_FR_REAL,001,16,
images/fcloud_D1.6_3.tif,1.6,0,,,,,0,31,31,26,,,,,,,,,,,,,,,,,,,1,None,2,1.136,,,,,,,,,,,,,,,,,,,2019_Feb_07_1733,59.76316654956823,Cloud_Experiment_FR_REAL,001,16,
images/fcloud_D1_2.tif,1.0,0,,,,,0,32,32,7,,,,,,,,,,,,,,,,,,,2,space,3,1.918,2.31154844805,,,,,,,,,,,,,,,,,,2019_Feb_07_1733,59.76316654956823,Cloud_Experiment_FR_REAL,001,16,
images/fcloud_D0.9_3.tif,0.9,0,,,,,0,33,33,5,,,,,,,,,,,,,,,,,,,None,None,None,12.043,,,,,,,,,,,,,,,,,,,2019_Feb_07_1733,59.76316654956823,Cloud_Experiment_FR_REAL,001,16,
images/fcloud65-35_D0.8_1.tif,0.8,1,,,,,0,34,34,36,,,,,,,,,,,,,,,,,,,2,space,5,1.002,6.30272825551,,,,,,,,,,,,,,,,,,2019_Feb_07_1733,59.76316654956823,Cloud_Experiment_FR_REAL,001,16,
images/fcloud65-35_D1.7_3.tif,1.7,1,,,,,0,35,35,65,,,,,,,,,,,,,,,,,,,1,space,5,0.885,6.06040120102,,,,,,,,,,,,,,,,,,2019_Feb_07_1733,59.76316654956823,Cloud_Experiment_FR_REAL,001,16,
images/fcloud80-20_D1.2_2.tif,1.2,2,,,,,0,36,36,85,,,,,,,,,,,,,,,,,,,1,space,2,0.935,7.4244914304,,,,,,,,,,,,,,,,,,2019_Feb_07_1733,59.76316654956823,Cloud_Experiment_FR_REAL,001,16,
images/fcloud_D1.7_1.tif,1.7,0,,,,,0,37,37,27,,,,,,,,,,,,,,,,,,,2,space,2,2.684,3.04913820885,,,,,,,,,,,,,,,,,,2019_Feb_07_1733,59.76316654956823,Cloud_Experiment_FR_REAL,001,16,
images/fcloud_D1_1.tif,1.0,0,,,,,0,38,38,6,,,,,,,,,,,,,,,,,,,1,None,1,0.536,,,,,,,,,,,,,,,,,,,2019_Feb_07_1733,59.76316654956823,Cloud_Experiment_FR_REAL,001,16,
images/fcloud_D1.2_2.tif,1.2,0,,,,,0,39,39,13,,,,,,,,,,,,,,,,,,,1,space,2,1.201,8.14115084033,,,,,,,,,,,,,,,,,,2019_Feb_07_1733,59.76316654956823,Cloud_Experiment_FR_REAL,001,16,
images/fcloud80-20_D1_2.tif,1.0,2,,,,,0,40,40,79,,,,,,,,,,,,,,,,,,,None,None,None,10.059,,,,,,,,,,,,,,,,,,,2019_Feb_07_1733,59.76316654956823,Cloud_Experiment_FR_REAL,001,16,
images/fcloud_D1.2_1.tif,1.2,0,,,,,0,41,41,12,,,,,,,,,,,,,,,,,,,1,None,2,1.053,,,,,,,,,,,,,,,,,,,2019_Feb_07_1733,59.76316654956823,Cloud_Experiment_FR_REAL,001,16,
images/fcloud_D1.1_2.tif,1.1,0,,,,,0,42,42,10,,,,,,,,,,,,,,,,,,,1,space,5,1.235,2.91304928937,,,,,,,,,,,,,,,,,,2019_Feb_07_1733,59.76316654956823,Cloud_Experiment_FR_REAL,001,16,
images/fcloud80-20_D1.1_2.tif,1.1,2,,,,,0,43,43,82,,,,,,,,,,,,,,,,,,,2,space,3,0.818,4.82965174166,,,,,,,,,,,,,,,,,,2019_Feb_07_1733,59.76316654956823,Cloud_Experiment_FR_REAL,001,16,
images/fcloud65-35_D0.8_3.tif,0.8,1,,,,,0,44,44,38,,,,,,,,,,,,,,,,,,,3,space,3,1.519,1.53999904392,,,,,,,,,,,,,,,,,,2019_Feb_07_1733,59.76316654956823,Cloud_Experiment_FR_REAL,001,16,
images/fcloud65-35_D1_3.tif,1.0,1,,,,,0,45,45,44,,,,,,,,,,,,,,,,,,,1,None,2,1.352,,,,,,,,,,,,,,,,,,,2019_Feb_07_1733,59.76316654956823,Cloud_Experiment_FR_REAL,001,16,
images/fcloud_D0.8_2.tif,0.8,0,,,,,0,46,46,1,,,,,,,,,,,,,,,,,,,3,None,3,2.783,,,,,,,,,,,,,,,,,,,2019_Feb_07_1733,59.76316654956823,Cloud_Experiment_FR_REAL,001,16,
images/fcloud65-35_D1.9_3.tif,1.9,1,,,,,0,47,47,71,,,,,,,,,,,,,,,,,,,2,space,2,0.903,7.5186430536,,,,,,,,,,,,,,,,,,2019_Feb_07_1733,59.76316654956823,Cloud_Experiment_FR_REAL,001,16,
images/fcloud65-35_D1.9_1.tif,1.9,1,,,,,0,48,48,69,,,,,,,,,,,,,,,,,,,None,None,None,10.841,,,,,,,,,,,,,,,,,,,2019_Feb_07_1733,59.76316654956823,Cloud_Experiment_FR_REAL,001,16,
images/fcloud65-35_D1.5_2.tif,1.5,1,,,,,0,49,49,58,,,,,,,,,,,,,,,,,,,1,space,2,0.77,3.88201617333,,,,,,,,,,,,,,,,,,2019_Feb_07_1733,59.76316654956823,Cloud_Experiment_FR_REAL,001,16,
images/fcloud_D1.9_1.tif,1.9,0,,,,,0,50,50,33,,,,,,,,,,,,,,,,,,,1,space,3,2.482,5.70967080293,,,,,,,,,,,,,,,,,,2019_Feb_07_1733,59.76316654956823,Cloud_Experiment_FR_REAL,001,16,
images/fcloud80-20_D1.2_1.tif,1.2,2,,,,,0,51,51,84,,,,,,,,,,,,,,,,,,,None,None,None,11.807,,,,,,,,,,,,,,,,,,,2019_Feb_07_1733,59.76316654956823,Cloud_Experiment_FR_REAL,001,16,
images/fcloud80-20_D1.1_1.tif,1.1,2,,,,,0,52,52,81,,,,,,,,,,,,,,,,,,,1,space,2,0.668,4.23363846052,,,,,,,,,,,,,,,,,,2019_Feb_07_1733,59.76316654956823,Cloud_Experiment_FR_REAL,001,16,
images/fcloud65-35_D1_1.tif,1.0,1,,,,,0,53,53,42,,,,,,,,,,,,,,,,,,,2,space,5,1.736,4.19281923841,,,,,,,,,,,,,,,,,,2019_Feb_07_1733,59.76316654956823,Cloud_Experiment_FR_REAL,001,16,
images/fcloud_D1.3_1.tif,1.3,0,,,,,0,54,54,15,,,,,,,,,,,,,,,,,,,2,space,5,1.484,1.9116942347,,,,,,,,,,,,,,,,,,2019_Feb_07_1733,59.76316654956823,Cloud_Experiment_FR_REAL,001,16,
images/fcloud_D1.7_2.tif,1.7,0,,,,,0,55,55,28,,,,,,,,,,,,,,,,,,,2,space,3,2.75,5.93722128472,,,,,,,,,,,,,,,,,,2019_Feb_07_1733,59.76316654956823,Cloud_Experiment_FR_REAL,001,16,
images/fcloud80-20_D1.5_1.tif,1.5,2,,,,,0,56,56,93,,,,,,,,,,,,,,,,,,,2,space,3,2.483,2.49154761538,,,,,,,,,,,,,,,,,,2019_Feb_07_1733,59.76316654956823,Cloud_Experiment_FR_REAL,001,16,
images/fcloud65-35_D1.7_1.tif,1.7,1,,,,,0,57,57,63,,,,,,,,,,,,,,,,,,,1,space,4,1.983,8.735774111,,,,,,,,,,,,,,,,,,2019_Feb_07_1733,59.76316654956823,Cloud_Experiment_FR_REAL,001,16,
images/fcloud80-20_D1.9_1.tif,1.9,2,,,,,0,58,58,105,,,,,,,,,,,,,,,,,,,None,None,None,None,,,,,,,,,,,,,,,,,,,2019_Feb_07_1733,59.76316654956823,Cloud_Experiment_FR_REAL,001,16,
images/fcloud_D1.7_3.tif,1.7,0,,,,,0,59,59,29,,,,,,,,,,,,,,,,,,,None,None,None,11.71,,,,,,,,,,,,,,,,,,,2019_Feb_07_1733,59.76316654956823,Cloud_Experiment_FR_REAL,001,16,
images/fcloud80-20_D1_1.tif,1.0,2,,,,,0,60,60,78,,,,,,,,,,,,,,,,,,,2,space,4,1.001,3.85543016554,,,,,,,,,,,,,,,,,,2019_Feb_07_1733,59.76316654956823,Cloud_Experiment_FR_REAL,001,16,
images/fcloud_D1.9_3.tif,1.9,0,,,,,0,61,61,35,,,,,,,,,,,,,,,,,,,2,space,2,1.371,6.70932432835,,,,,,,,,,,,,,,,,,2019_Feb_07_1733,59.76316654956823,Cloud_Experiment_FR_REAL,001,16,
images/fcloud65-35_D1.6_3.tif,1.6,1,,,,,0,62,62,62,,,,,,,,,,,,,,,,,,,2,space,2,0.853,4.42073213053,,,,,,,,,,,,,,,,,,2019_Feb_07_1733,59.76316654956823,Cloud_Experiment_FR_REAL,001,16,
images/fcloud65-35_D1.6_1.tif,1.6,1,,,,,0,63,63,60,,,,,,,,,,,,,,,,,,,None,None,None,11.942,,,,,,,,,,,,,,,,,,,2019_Feb_07_1733,59.76316654956823,Cloud_Experiment_FR_REAL,001,16,
images/fcloud80-20_D1.6_1.tif,1.6,2,,,,,0,64,64,96,,,,,,,,,,,,,,,,,,,None,space,None,21.682,8.79675311223,,,,,,,,,,,,,,,,,,2019_Feb_07_1733,59.76316654956823,Cloud_Experiment_FR_REAL,001,16,
images/fcloud65-35_D1.8_2.tif,1.8,1,,,,,0,65,65,67,,,,,,,,,,,,,,,,,,,1,space,2,1.317,4.20100148616,,,,,,,,,,,,,,,,,,2019_Feb_07_1733,59.76316654956823,Cloud_Experiment_FR_REAL,001,16,
images/fcloud65-35_D0.8_2.tif,0.8,1,,,,,0,66,66,37,,,,,,,,,,,,,,,,,,,2,space,4,0.921,2.14551261521,,,,,,,,,,,,,,,,,,2019_Feb_07_1733,59.76316654956823,Cloud_Experiment_FR_REAL,001,16,
images/fcloud_D0.8_1.tif,0.8,0,,,,,0,67,67,0,,,,,,,,,,,,,,,,,,,3,space,4,1.317,6.48940810945,,,,,,,,,,,,,,,,,,2019_Feb_07_1733,59.76316654956823,Cloud_Experiment_FR_REAL,001,16,
images/fcloud_D1.2_3.tif,1.2,0,,,,,0,68,68,14,,,,,,,,,,,,,,,,,,,2,space,3,0.902,8.48990417458,,,,,,,,,,,,,,,,,,2019_Feb_07_1733,59.76316654956823,Cloud_Experiment_FR_REAL,001,16,
images/fcloud_D1.8_2.tif,1.8,0,,,,,0,69,69,31,,,,,,,,,,,,,,,,,,,2,None,2,1.184,,,,,,,,,,,,,,,,,,,2019_Feb_07_1733,59.76316654956823,Cloud_Experiment_FR_REAL,001,16,
images/fcloud_D0.8_3.tif,0.8,0,,,,,0,70,70,2,,,,,,,,,,,,,,,,,,,3,space,4,0.902,7.46122955275,,,,,,,,,,,,,,,,,,2019_Feb_07_1733,59.76316654956823,Cloud_Experiment_FR_REAL,001,16,
images/fcloud80-20_D1.4_1.tif,1.4,2,,,,,0,71,71,90,,,,,,,,,,,,,,,,,,,None,None,None,9.661,,,,,,,,,,,,,,,,,,,2019_Feb_07_1733,59.76316654956823,Cloud_Experiment_FR_REAL,001,16,
images/fcloud80-20_D0.9_3.tif,0.9,2,,,,,0,72,72,77,,,,,,,,,,,,,,,,,,,None,None,None,18.885,,,,,,,,,,,,,,,,,,,2019_Feb_07_1733,59.76316654956823,Cloud_Experiment_FR_REAL,001,16,
images/fcloud_D1.5_1.tif,1.5,0,,,,,0,73,73,21,,,,,,,,,,,,,,,,,,,2,space,2,1.251,5.8306654623,,,,,,,,,,,,,,,,,,2019_Feb_07_1733,59.76316654956823,Cloud_Experiment_FR_REAL,001,16,
images/fcloud65-35_D0.9_1.tif,0.9,1,,,,,0,74,74,39,,,,,,,,,,,,,,,,,,,1,space,3,0.634,5.30312767788,,,,,,,,,,,,,,,,,,2019_Feb_07_1733,59.76316654956823,Cloud_Experiment_FR_REAL,001,16,
images/fcloud65-35_D1.2_2.tif,1.2,1,,,,,0,75,75,49,,,,,,,,,,,,,,,,,,,1,space,4,0.818,5.87937083526,,,,,,,,,,,,,,,,,,2019_Feb_07_1733,59.76316654956823,Cloud_Experiment_FR_REAL,001,16,
images/fcloud65-35_D1.3_2.tif,1.3,1,,,,,0,76,76,52,,,,,,,,,,,,,,,,,,,2,space,5,1.484,4.82922044781,,,,,,,,,,,,,,,,,,2019_Feb_07_1733,59.76316654956823,Cloud_Experiment_FR_REAL,001,16,
images/fcloud80-20_D1.5_2.tif,1.5,2,,,,,0,77,77,94,,,,,,,,,,,,,,,,,,,1,space,3,1.219,6.89133705758,,,,,,,,,,,,,,,,,,2019_Feb_07_1733,59.76316654956823,Cloud_Experiment_FR_REAL,001,16,
images/fcloud_D1.9_2.tif,1.9,0,,,,,0,78,78,34,,,,,,,,,,,,,,,,,,,1,space,2,0.602,8.85706949385,,,,,,,,,,,,,,,,,,2019_Feb_07_1733,59.76316654956823,Cloud_Experiment_FR_REAL,001,16,
images/fcloud65-35_D1.6_2.tif,1.6,1,,,,,0,79,79,61,,,,,,,,,,,,,,,,,,,None,None,None,9.759,,,,,,,,,,,,,,,,,,,2019_Feb_07_1733,59.76316654956823,Cloud_Experiment_FR_REAL,001,16,
images/fcloud_D0.9_2.tif,0.9,0,,,,,0,80,80,4,,,,,,,,,,,,,,,,,,,2,None,3,0.666,,,,,,,,,,,,,,,,,,,2019_Feb_07_1733,59.76316654956823,Cloud_Experiment_FR_REAL,001,16,
images/fcloud_D1.3_2.tif,1.3,0,,,,,0,81,81,16,,,,,,,,,,,,,,,,,,,3,space,2,1.034,6.36787163385,,,,,,,,,,,,,,,,,,2019_Feb_07_1733,59.76316654956823,Cloud_Experiment_FR_REAL,001,16,
images/fcloud_D1.5_3.tif,1.5,0,,,,,0,82,82,23,,,,,,,,,,,,,,,,,,,3,space,4,0.901,2.14990934602,,,,,,,,,,,,,,,,,,2019_Feb_07_1733,59.76316654956823,Cloud_Experiment_FR_REAL,001,16,
images/fcloud80-20_D1.6_2.tif,1.6,2,,,,,0,83,83,97,,,,,,,,,,,,,,,,,,,None,None,None,12.972,,,,,,,,,,,,,,,,,,,2019_Feb_07_1733,59.76316654956823,Cloud_Experiment_FR_REAL,001,16,
images/fcloud65-35_D1.5_3.tif,1.5,1,,,,,0,84,84,59,,,,,,,,,,,,,,,,,,,2,space,3,0.518,4.56428156153,,,,,,,,,,,,,,,,,,2019_Feb_07_1733,59.76316654956823,Cloud_Experiment_FR_REAL,001,16,
images/fcloud80-20_D1.5_3.tif,1.5,2,,,,,0,85,85,95,,,,,,,,,,,,,,,,,,,1,space,4,0.95,4.83009074652,,,,,,,,,,,,,,,,,,2019_Feb_07_1733,59.76316654956823,Cloud_Experiment_FR_REAL,001,16,
images/fcloud_D1.8_1.tif,1.8,0,,,,,0,86,86,30,,,,,,,,,,,,,,,,,,,None,None,None,10.141,,,,,,,,,,,,,,,,,,,2019_Feb_07_1733,59.76316654956823,Cloud_Experiment_FR_REAL,001,16,
images/fcloud80-20_D1_3.tif,1.0,2,,,,,0,87,87,80,,,,,,,,,,,,,,,,,,,None,None,None,19.233,,,,,,,,,,,,,,,,,,,2019_Feb_07_1733,59.76316654956823,Cloud_Experiment_FR_REAL,001,16,
images/fcloud_D0.9_1.tif,0.9,0,,,,,0,88,88,3,,,,,,,,,,,,,,,,,,,2,space,4,0.853,6.11571375036,,,,,,,,,,,,,,,,,,2019_Feb_07_1733,59.76316654956823,Cloud_Experiment_FR_REAL,001,16,
images/fcloud80-20_D1.9_2.tif,1.9,2,,,,,0,89,89,106,,,,,,,,,,,,,,,,,,,1,space,2,0.953,8.35157242371,,,,,,,,,,,,,,,,,,2019_Feb_07_1733,59.76316654956823,Cloud_Experiment_FR_REAL,001,16,
images/fcloud80-20_D0.8_3.tif,0.8,2,,,,,0,90,90,74,,,,,,,,,,,,,,,,,,,1,space,1,0.585,8.13791176619,,,,,,,,,,,,,,,,,,2019_Feb_07_1733,59.76316654956823,Cloud_Experiment_FR_REAL,001,16,
images/fcloud_D1_3.tif,1.0,0,,,,,0,91,91,8,,,,,,,,,,,,,,,,,,,2,space,4,1.004,1.18270619225,,,,,,,,,,,,,,,,,,2019_Feb_07_1733,59.76316654956823,Cloud_Experiment_FR_REAL,001,16,
images/fcloud80-20_D1.2_3.tif,1.2,2,,,,,0,92,92,86,,,,,,,,,,,,,,,,,,,1,space,4,0.835,6.04086702946,,,,,,,,,,,,,,,,,,2019_Feb_07_1733,59.76316654956823,Cloud_Experiment_FR_REAL,001,16,
images/fcloud65-35_D0.9_3.tif,0.9,1,,,,,0,93,93,41,,,,,,,,,,,,,,,,,,,2,space,5,1.186,3.72340640996,,,,,,,,,,,,,,,,,,2019_Feb_07_1733,59.76316654956823,Cloud_Experiment_FR_REAL,001,16,
images/fcloud_D1.1_3.tif,1.1,0,,,,,0,94,94,11,,,,,,,,,,,,,,,,,,,2,space,5,1.034,7.86486465647,,,,,,,,,,,,,,,,,,2019_Feb_07_1733,59.76316654956823,Cloud_Experiment_FR_REAL,001,16,
images/fcloud80-20_D1.1_3.tif,1.1,2,,,,,0,95,95,83,,,,,,,,,,,,,,,,,,,1,space,4,0.919,5.1446140433,,,,,,,,,,,,,,,,,,2019_Feb_07_1733,59.76316654956823,Cloud_Experiment_FR_REAL,001,16,
images/fcloud65-35_D1.9_2.tif,1.9,1,,,,,0,96,96,70,,,,,,,,,,,,,,,,,,,1,space,1,1.385,7.43223929976,,,,,,,,,,,,,,,,,,2019_Feb_07_1733,59.76316654956823,Cloud_Experiment_FR_REAL,001,16,
images/fcloud80-20_D0.8_2.tif,0.8,2,,,,,0,97,97,73,,,,,,,,,,,,,,,,,,,1,space,3,0.817,8.01537853375,,,,,,,,,,,,,,,,,,2019_Feb_07_1733,59.76316654956823,Cloud_Experiment_FR_REAL,001,16,
images/fcloud80-20_D1.8_1.tif,1.8,2,,,,,0,98,98,102,,,,,,,,,,,,,,,,,,,None,None,None,10.108,,,,,,,,,,,,,,,,,,,2019_Feb_07_1733,59.76316654956823,Cloud_Experiment_FR_REAL,001,16,
images/fcloud_D1.4_3.tif,1.4,0,,,,,0,99,99,20,,,,,,,,,,,,,,,,,,,3,space,5,1.351,1.32752020378,,,,,,,,,,,,,,,,,,2019_Feb_07_1733,59.76316654956823,Cloud_Experiment_FR_REAL,001,16,
images/fcloud80-20_D1.6_3.tif,1.6,2,,,,,0,100,100,98,,,,,,,,,,,,,,,,,,,3,space,4,1.502,2.94620751764,,,,,,,,,,,,,,,,,,2019_Feb_07_1733,59.76316654956823,Cloud_Experiment_FR_REAL,001,16,
images/fcloud_D1.6_2.tif,1.6,0,,,,,0,101,101,25,,,,,,,,,,,,,,,,,,,2,space,5,1.102,2.95807195664,,,,,,,,,,,,,,,,,,2019_Feb_07_1733,59.76316654956823,Cloud_Experiment_FR_REAL,001,16,
images/fcloud_D1.8_3.tif,1.8,0,,,,,0,102,102,32,,,,,,,,,,,,,,,,,,,2,space,4,1.635,5.59344093921,,,,,,,,,,,,,,,,,,2019_Feb_07_1733,59.76316654956823,Cloud_Experiment_FR_REAL,001,16,
images/fcloud80-20_D1.7_3.tif,1.7,2,,,,,0,103,103,101,,,,,,,,,,,,,,,,,,,None,None,None,10.908,,,,,,,,,,,,,,,,,,,2019_Feb_07_1733,59.76316654956823,Cloud_Experiment_FR_REAL,001,16,
images/fcloud80-20_D1.4_2.tif,1.4,2,,,,,0,104,104,91,,,,,,,,,,,,,,,,,,,2,space,5,0.435,6.80164950655,,,,,,,,,,,,,,,,,,2019_Feb_07_1733,59.76316654956823,Cloud_Experiment_FR_REAL,001,16,
images/fcloud65-35_D1.1_1.tif,1.1,1,,,,,0,105,105,45,,,,,,,,,,,,,,,,,,,1,space,2,4.518,7.78182643477,,,,,,,,,,,,,,,,,,2019_Feb_07_1733,59.76316654956823,Cloud_Experiment_FR_REAL,001,16,
images/fcloud80-20_D1.7_1.tif,1.7,2,,,,,0,106,106,99,,,,,,,,,,,,,,,,,,,1,space,2,1.651,7.0387352343,,,,,,,,,,,,,,,,,,2019_Feb_07_1733,59.76316654956823,Cloud_Experiment_FR_REAL,001,16,
images/fcloud65-35_D1.2_1.tif,1.2,1,,,,,0,107,107,48,,,,,,,,,,,,,,,,,,,2,space,3,0.452,6.53023041587,,,,,,,,,,,,,,,,,,2019_Feb_07_1733,59.76316654956823,Cloud_Experiment_FR_REAL,001,16,
,,,,,,,,,,,,,,,,,,,,,,,,,,,,,,,,,,,,,,,,,,,,,,space,3.18210268905,,,,2019_Feb_07_1733,59.76316654956823,Cloud_Experiment_FR_REAL,001,16,
,,,,,,,,,,,,,,,,,,,,,,,,,4,10.554,,,,,,,,,,,,,,,,,,,,,,,,,2019_Feb_07_1733,59.76316654956823,Cloud_Experiment_FR_REAL,001,16,
,,,,,,,,,,,,,,,,,,,,,,,,,,,,,,,,,,3,,,,,,,,,,,,,,,,,2019_Feb_07_1733,59.76316654956823,Cloud_Experiment_FR_REAL,001,16,
,,,,,,,,,,,,,,,,,,,,,,,,,,,,,,,,,,,2,,,,,,,,,,,,,,,,2019_Feb_07_1733,59.76316654956823,Cloud_Experiment_FR_REAL,001,16,
,,,,,,,,,,,,,,,,,,,,,,,,,,,,,,,,,,,,4,,,,,,,,,,,,,,,2019_Feb_07_1733,59.76316654956823,Cloud_Experiment_FR_REAL,001,16,
,,,,,,,,,,,,,,,,,,,,,,,,,,,,,,,,,,,,,3,,,,,,,,,,,,,,2019_Feb_07_1733,59.76316654956823,Cloud_Experiment_FR_REAL,001,16,
,,,,,,,,,,,,,,,,,,,,,,,,,,,,,,,,,,,,,,2,,,,,,,,,,,,,2019_Feb_07_1733,59.76316654956823,Cloud_Experiment_FR_REAL,001,16,
,,,,,,,,,,,,,,,,,,,,,,,,,,,,,,,,,,,,,,,5,,,,,,,,,,,,2019_Feb_07_1733,59.76316654956823,Cloud_Experiment_FR_REAL,001,16,
,,,,,,,,,,,,,,,,,,,,,,,,,,,,,,,,,,,,,,,,2,,,,,,,,,,,2019_Feb_07_1733,59.76316654956823,Cloud_Experiment_FR_REAL,001,16,
,,,,,,,,,,,,,,,,,,,,,,,,,,,,,,,,,,,,,,,,,7,,,,,,,,,,2019_Feb_07_1733,59.76316654956823,Cloud_Experiment_FR_REAL,001,16,
,,,,,,,,,,,,,,,,,,,,,,,,,,,,,,,,,,,,,,,,,,4,,,,,,,,,2019_Feb_07_1733,59.76316654956823,Cloud_Experiment_FR_REAL,001,16,
,,,,,,,,,,,,,,,,,,,,,,,,,,,,,,,,,,,,,,,,,,,3,,,,,,,,2019_Feb_07_1733,59.76316654956823,Cloud_Experiment_FR_REAL,001,16,
,,,,,,,,,,,,,,,,,,,,,,,,,,,,,,,,,,,,,,,,,,,,,,,,space,3.03394319362,,2019_Feb_07_1733,59.76316654956823,Cloud_Experiment_FR_REAL,001,16,
images/fcloud_D0.8_6.tif,0.8,0,,,,,,,,,0,0,0,2,,,,,,,,,,,,,,,1,space,1,137.934,8.11296971329,,,,,,,,,,,,,,,,,,2019_Feb_07_1733,59.76316654956823,Cloud_Experiment_FR_REAL,001,16,
images/fcloud_D1.5_4.tif,1.5,0,,,,,,,,,0,1,1,21,,,,,,,,,,,,,,,1,space,4,1.368,6.54040155059,,,,,,,,,,,,,,,,,,2019_Feb_07_1733,59.76316654956823,Cloud_Experiment_FR_REAL,001,16,
images/fcloud_D1.6_5.tif,1.6,0,,,,,,,,,0,2,2,25,,,,,,,,,,,,,,,3,space,4,0.72,7.87201519136,,,,,,,,,,,,,,,,,,2019_Feb_07_1733,59.76316654956823,Cloud_Experiment_FR_REAL,001,16,
images/fcloud80-20_D1.6_4.tif,1.6,2,,,,,,,,,0,3,3,96,,,,,,,,,,,,,,,2,space,2,2.366,5.97609223006,,,,,,,,,,,,,,,,,,2019_Feb_07_1733,59.76316654956823,Cloud_Experiment_FR_REAL,001,16,
images/fcloud80-20_D0.9_5.tif,0.9,2,,,,,,,,,0,4,4,76,,,,,,,,,,,,,,,2,space,3,0.969,2.39720476291,,,,,,,,,,,,,,,,,,2019_Feb_07_1733,59.76316654956823,Cloud_Experiment_FR_REAL,001,16,
images/fcloud80-20_D1.9_6.tif,1.9,2,,,,,,,,,0,5,5,107,,,,,,,,,,,,,,,None,None,None,9.412,,,,,,,,,,,,,,,,,,,2019_Feb_07_1733,59.76316654956823,Cloud_Experiment_FR_REAL,001,16,
images/fcloud_D0.8_4.tif,0.8,0,,,,,,,,,0,6,6,0,,,,,,,,,,,,,,,2,space,5,1.403,7.23033461522,,,,,,,,,,,,,,,,,,2019_Feb_07_1733,59.76316654956823,Cloud_Experiment_FR_REAL,001,16,
images/fcloud80-20_D1.9_5.tif,1.9,2,,,,,,,,,0,7,7,106,,,,,,,,,,,,,,,2,space,4,2.402,6.69037155539,,,,,,,,,,,,,,,,,,2019_Feb_07_1733,59.76316654956823,Cloud_Experiment_FR_REAL,001,16,
images/fcloud65-35_D1.4_5.tif,1.4,1,,,,,,,,,0,8,8,55,,,,,,,,,,,,,,,1,space,4,1.235,5.1847804127,,,,,,,,,,,,,,,,,,2019_Feb_07_1733,59.76316654956823,Cloud_Experiment_FR_REAL,001,16,
images/fcloud65-35_D0.9_4.tif,0.9,1,,,,,,,,,0,9,9,39,,,,,,,,,,,,,,,4,space,4,1.901,5.33920883527,,,,,,,,,,,,,,,,,,2019_Feb_07_1733,59.76316654956823,Cloud_Experiment_FR_REAL,001,16,
images/fcloud65-35_D1.5_5.tif,1.5,1,,,,,,,,,0,10,10,58,,,,,,,,,,,,,,,3,space,3,1.052,3.23329250002,,,,,,,,,,,,,,,,,,2019_Feb_07_1733,59.76316654956823,Cloud_Experiment_FR_REAL,001,16,
images/fcloud65-35_D1.1_5.tif,1.1,1,,,,,,,,,0,11,11,46,,,,,,,,,,,,,,,1,space,1,0.986,5.00876775885,,,,,,,,,,,,,,,,,,2019_Feb_07_1733,59.76316654956823,Cloud_Experiment_FR_REAL,001,16,
images/fcloud80-20_D1.5_6.tif,1.5,2,,,,,,,,,0,12,12,95,,,,,,,,,,,,,,,1,space,2,0.57,7.96525641938,,,,,,,,,,,,,,,,,,2019_Feb_07_1733,59.76316654956823,Cloud_Experiment_FR_REAL,001,16,
images/fcloud80-20_D1.7_4.tif,1.7,2,,,,,,,,,0,13,13,99,,,,,,,,,,,,,,,1,space,2,0.585,5.67982413073,,,,,,,,,,,,,,,,,,2019_Feb_07_1733,59.76316654956823,Cloud_Experiment_FR_REAL,001,16,
images/fcloud80-20_D0.9_4.tif,0.9,2,,,,,,,,,0,14,14,75,,,,,,,,,,,,,,,1,None,1,0.452,,,,,,,,,,,,,,,,,,,2019_Feb_07_1733,59.76316654956823,Cloud_Experiment_FR_REAL,001,16,
images/fcloud_D0.9_4.tif,0.9,0,,,,,,,,,0,15,15,3,,,,,,,,,,,,,,,2,space,3,2.036,6.79596146417,,,,,,,,,,,,,,,,,,2019_Feb_07_1733,59.76316654956823,Cloud_Experiment_FR_REAL,001,16,
images/fcloud65-35_D1.8_6.tif,1.8,1,,,,,,,,,0,16,16,68,,,,,,,,,,,,,,,1,None,3,0.803,,,,,,,,,,,,,,,,,,,2019_Feb_07_1733,59.76316654956823,Cloud_Experiment_FR_REAL,001,16,
images/fcloud_D1.5_6.tif,1.5,0,,,,,,,,,0,17,17,23,,,,,,,,,,,,,,,1,space,3,2.117,6.54583513469,,,,,,,,,,,,,,,,,,2019_Feb_07_1733,59.76316654956823,Cloud_Experiment_FR_REAL,001,16,
images/fcloud_D0.9_6.tif,0.9,0,,,,,,,,,0,18,18,5,,,,,,,,,,,,,,,2,None,5,1.085,,,,,,,,,,,,,,,,,,,2019_Feb_07_1733,59.76316654956823,Cloud_Experiment_FR_REAL,001,16,
images/fcloud65-35_D1.6_5.tif,1.6,1,,,,,,,,,0,19,19,61,,,,,,,,,,,,,,,None,None,None,9.892,,,,,,,,,,,,,,,,,,,2019_Feb_07_1733,59.76316654956823,Cloud_Experiment_FR_REAL,001,16,
images/fcloud80-20_D1.4_6.tif,1.4,2,,,,,,,,,0,20,20,92,,,,,,,,,,,,,,,None,None,None,18.819,,,,,,,,,,,,,,,,,,,2019_Feb_07_1733,59.76316654956823,Cloud_Experiment_FR_REAL,001,16,
images/fcloud65-35_D1.7_5.tif,1.7,1,,,,,,,,,0,21,21,64,,,,,,,,,,,,,,,1,space,2,1.284,4.7620629936,,,,,,,,,,,,,,,,,,2019_Feb_07_1733,59.76316654956823,Cloud_Experiment_FR_REAL,001,16,
images/fcloud65-35_D1.9_4.tif,1.9,1,,,,,,,,,0,22,22,69,,,,,,,,,,,,,,,1,space,2,0.636,7.12710422871,,,,,,,,,,,,,,,,,,2019_Feb_07_1733,59.76316654956823,Cloud_Experiment_FR_REAL,001,16,
images/fcloud_D0.9_5.tif,0.9,0,,,,,,,,,0,23,23,4,,,,,,,,,,,,,,,3,space,4,0.885,2.04989284475,,,,,,,,,,,,,,,,,,2019_Feb_07_1733,59.76316654956823,Cloud_Experiment_FR_REAL,001,16,
images/fcloud_D1.3_4.tif,1.3,0,,,,,,,,,0,24,24,15,,,,,,,,,,,,,,,None,None,None,10.16,,,,,,,,,,,,,,,,,,,2019_Feb_07_1733,59.76316654956823,Cloud_Experiment_FR_REAL,001,16,
images/fcloud80-20_D1.9_4.tif,1.9,2,,,,,,,,,0,25,25,105,,,,,,,,,,,,,,,1,space,2,0.719,7.13307860098,,,,,,,,,,,,,,,,,,2019_Feb_07_1733,59.76316654956823,Cloud_Experiment_FR_REAL,001,16,
images/fcloud65-35_D1.8_4.tif,1.8,1,,,,,,,,,0,26,26,66,,,,,,,,,,,,,,,1,space,1,1.019,4.33568240318,,,,,,,,,,,,,,,,,,2019_Feb_07_1733,59.76316654956823,Cloud_Experiment_FR_REAL,001,16,
images/fcloud65-35_D0.8_6.tif,0.8,1,,,,,,,,,0,27,27,38,,,,,,,,,,,,,,,None,None,None,10.175,,,,,,,,,,,,,,,,,,,2019_Feb_07_1733,59.76316654956823,Cloud_Experiment_FR_REAL,001,16,
images/fcloud65-35_D1.2_4.tif,1.2,1,,,,,,,,,0,28,28,48,,,,,,,,,,,,,,,2,space,2,1.068,3.02466806048,,,,,,,,,,,,,,,,,,2019_Feb_07_1733,59.76316654956823,Cloud_Experiment_FR_REAL,001,16,
images/fcloud65-35_D1.3_5.tif,1.3,1,,,,,,,,,0,29,29,52,,,,,,,,,,,,,,,1,None,2,1.701,,,,,,,,,,,,,,,,,,,2019_Feb_07_1733,59.76316654956823,Cloud_Experiment_FR_REAL,001,16,
images/fcloud_D0.8_5.tif,0.8,0,,,,,,,,,0,30,30,1,,,,,,,,,,,,,,,2,space,2,0.969,2.51540397946,,,,,,,,,,,,,,,,,,2019_Feb_07_1733,59.76316654956823,Cloud_Experiment_FR_REAL,001,16,
images/fcloud65-35_D1.9_5.tif,1.9,1,,,,,,,,,0,31,31,70,,,,,,,,,,,,,,,2,space,1,0.735,5.9061192848,,,,,,,,,,,,,,,,,,2019_Feb_07_1733,59.76316654956823,Cloud_Experiment_FR_REAL,001,16,
images/fcloud65-35_D1.9_6.tif,1.9,1,,,,,,,,,0,32,32,71,,,,,,,,,,,,,,,None,None,None,10.957,,,,,,,,,,,,,,,,,,,2019_Feb_07_1733,59.76316654956823,Cloud_Experiment_FR_REAL,001,16,
images/fcloud65-35_D1_4.tif,1.0,1,,,,,,,,,0,33,33,42,,,,,,,,,,,,,,,1,space,3,1.401,5.27141549229,,,,,,,,,,,,,,,,,,2019_Feb_07_1733,59.76316654956823,Cloud_Experiment_FR_REAL,001,16,
images/fcloud80-20_D1.1_6.tif,1.1,2,,,,,,,,,0,34,34,83,,,,,,,,,,,,,,,None,None,None,10.542,,,,,,,,,,,,,,,,,,,2019_Feb_07_1733,59.76316654956823,Cloud_Experiment_FR_REAL,001,16,
images/fcloud_D1.2_4.tif,1.2,0,,,,,,,,,0,35,35,12,,,,,,,,,,,,,,,1,None,3,0.735,,,,,,,,,,,,,,,,,,,2019_Feb_07_1733,59.76316654956823,Cloud_Experiment_FR_REAL,001,16,
images/fcloud80-20_D1.7_5.tif,1.7,2,,,,,,,,,0,36,36,100,,,,,,,,,,,,,,,1,space,3,0.636,4.23055514565,,,,,,,,,,,,,,,,,,2019_Feb_07_1733,59.76316654956823,Cloud_Experiment_FR_REAL,001,16,
images/fcloud_D1.6_6.tif,1.6,0,,,,,,,,,0,37,37,26,,,,,,,,,,,,,,,1,space,4,0.436,3.84390397614,,,,,,,,,,,,,,,,,,2019_Feb_07_1733,59.76316654956823,Cloud_Experiment_FR_REAL,001,16,
images/fcloud_D1.4_6.tif,1.4,0,,,,,,,,,0,38,38,20,,,,,,,,,,,,,,,2,None,2,1.068,,,,,,,,,,,,,,,,,,,2019_Feb_07_1733,59.76316654956823,Cloud_Experiment_FR_REAL,001,16,
images/fcloud_D1.1_4.tif,1.1,0,,,,,,,,,0,39,39,9,,,,,,,,,,,,,,,2,space,4,2.25,5.94389271841,,,,,,,,,,,,,,,,,,2019_Feb_07_1733,59.76316654956823,Cloud_Experiment_FR_REAL,001,16,
images/fcloud_D1.8_6.tif,1.8,0,,,,,,,,,0,40,40,32,,,,,,,,,,,,,,,1,None,1,1.367,,,,,,,,,,,,,,,,,,,2019_Feb_07_1733,59.76316654956823,Cloud_Experiment_FR_REAL,001,16,
images/fcloud80-20_D1.3_6.tif,1.3,2,,,,,,,,,0,41,41,89,,,,,,,,,,,,,,,1,space,3,0.787,6.29461951798,,,,,,,,,,,,,,,,,,2019_Feb_07_1733,59.76316654956823,Cloud_Experiment_FR_REAL,001,16,
images/fcloud_D1.8_5.tif,1.8,0,,,,,,,,,0,42,42,31,,,,,,,,,,,,,,,None,None,None,10.276,,,,,,,,,,,,,,,,,,,2019_Feb_07_1733,59.76316654956823,Cloud_Experiment_FR_REAL,001,16,
images/fcloud_D1.3_6.tif,1.3,0,,,,,,,,,0,43,43,17,,,,,,,,,,,,,,,2,space,4,0.702,2.10705805605,,,,,,,,,,,,,,,,,,2019_Feb_07_1733,59.76316654956823,Cloud_Experiment_FR_REAL,001,16,
images/fcloud65-35_D1.2_5.tif,1.2,1,,,,,,,,,0,44,44,49,,,,,,,,,,,,,,,1,None,2,1.051,,,,,,,,,,,,,,,,,,,2019_Feb_07_1733,59.76316654956823,Cloud_Experiment_FR_REAL,001,16,
images/fcloud80-20_D1_4.tif,1.0,2,,,,,,,,,0,45,45,78,,,,,,,,,,,,,,,1,space,1,0.869,3.85598688945,,,,,,,,,,,,,,,,,,2019_Feb_07_1733,59.76316654956823,Cloud_Experiment_FR_REAL,001,16,
images/fcloud_D1.2_5.tif,1.2,0,,,,,,,,,0,46,46,13,,,,,,,,,,,,,,,2,space,3,0.836,6.24255786615,,,,,,,,,,,,,,,,,,2019_Feb_07_1733,59.76316654956823,Cloud_Experiment_FR_REAL,001,16,
images/fcloud80-20_D1.4_4.tif,1.4,2,,,,,,,,,0,47,47,90,,,,,,,,,,,,,,,None,None,None,10.06,,,,,,,,,,,,,,,,,,,2019_Feb_07_1733,59.76316654956823,Cloud_Experiment_FR_REAL,001,16,
images/fcloud65-35_D1.3_4.tif,1.3,1,,,,,,,,,0,48,48,51,,,,,,,,,,,,,,,1,None,4,0.668,,,,,,,,,,,,,,,,,,,2019_Feb_07_1733,59.76316654956823,Cloud_Experiment_FR_REAL,001,16,
images/fcloud_D1.1_5.tif,1.1,0,,,,,,,,,0,49,49,10,,,,,,,,,,,,,,,2,space,5,1.3,3.3226957774,,,,,,,,,,,,,,,,,,2019_Feb_07_1733,59.76316654956823,Cloud_Experiment_FR_REAL,001,16,
images/fcloud80-20_D1.8_6.tif,1.8,2,,,,,,,,,0,50,50,104,,,,,,,,,,,,,,,None,None,None,10.041,,,,,,,,,,,,,,,,,,,2019_Feb_07_1733,59.76316654956823,Cloud_Experiment_FR_REAL,001,16,
images/fcloud80-20_D0.9_6.tif,0.9,2,,,,,,,,,0,51,51,77,,,,,,,,,,,,,,,None,None,None,19.199,,,,,,,,,,,,,,,,,,,2019_Feb_07_1733,59.76316654956823,Cloud_Experiment_FR_REAL,001,16,
images/fcloud_D1.6_4.tif,1.6,0,,,,,,,,,0,52,52,24,,,,,,,,,,,,,,,1,space,3,1.284,6.49526322039,,,,,,,,,,,,,,,,,,2019_Feb_07_1733,59.76316654956823,Cloud_Experiment_FR_REAL,001,16,
images/fcloud65-35_D0.9_6.tif,0.9,1,,,,,,,,,0,53,53,41,,,,,,,,,,,,,,,None,None,None,10.559,,,,,,,,,,,,,,,,,,,2019_Feb_07_1733,59.76316654956823,Cloud_Experiment_FR_REAL,001,16,
images/fcloud_D1.8_4.tif,1.8,0,,,,,,,,,0,54,54,30,,,,,,,,,,,,,,,None,None,None,19.8,,,,,,,,,,,,,,,,,,,2019_Feb_07_1733,59.76316654956823,Cloud_Experiment_FR_REAL,001,16,
images/fcloud80-20_D0.8_4.tif,0.8,2,,,,,,,,,0,55,55,72,,,,,,,,,,,,,,,None,None,None,28.744,,,,,,,,,,,,,,,,,,,2019_Feb_07_1733,59.76316654956823,Cloud_Experiment_FR_REAL,001,16,
images/fcloud80-20_D1.1_4.tif,1.1,2,,,,,,,,,0,56,56,81,,,,,,,,,,,,,,,None,None,None,38.35,,,,,,,,,,,,,,,,,,,2019_Feb_07_1733,59.76316654956823,Cloud_Experiment_FR_REAL,001,16,
images/fcloud65-35_D1.2_6.tif,1.2,1,,,,,,,,,0,57,57,50,,,,,,,,,,,,,,,2,space,4,1.103,2.12100031401,,,,,,,,,,,,,,,,,,2019_Feb_07_1733,59.76316654956823,Cloud_Experiment_FR_REAL,001,16,
images/fcloud_D1.1_6.tif,1.1,0,,,,,,,,,0,58,58,11,,,,,,,,,,,,,,,3,None,4,0.568,,,,,,,,,,,,,,,,,,,2019_Feb_07_1733,59.76316654956823,Cloud_Experiment_FR_REAL,001,16,
images/fcloud_D1.9_6.tif,1.9,0,,,,,,,,,0,59,59,35,,,,,,,,,,,,,,,2,None,3,0.586,,,,,,,,,,,,,,,,,,,2019_Feb_07_1733,59.76316654956823,Cloud_Experiment_FR_REAL,001,16,
images/fcloud_D1.9_5.tif,1.9,0,,,,,,,,,0,60,60,34,,,,,,,,,,,,,,,2,space,2,0.753,7.00546751183,,,,,,,,,,,,,,,,,,2019_Feb_07_1733,59.76316654956823,Cloud_Experiment_FR_REAL,001,16,
images/fcloud65-35_D0.9_5.tif,0.9,1,,,,,,,,,0,61,61,40,,,,,,,,,,,,,,,None,None,None,10.392,,,,,,,,,,,,,,,,,,,2019_Feb_07_1733,59.76316654956823,Cloud_Experiment_FR_REAL,001,16,
images/fcloud80-20_D1.2_6.tif,1.2,2,,,,,,,,,0,62,62,86,,,,,,,,,,,,,,,1,space,3,0.602,5.18857261236,,,,,,,,,,,,,,,,,,2019_Feb_07_1733,59.76316654956823,Cloud_Experiment_FR_REAL,001,16,
images/fcloud80-20_D1.8_4.tif,1.8,2,,,,,,,,,0,63,63,102,,,,,,,,,,,,,,,None,None,None,10.025,,,,,,,,,,,,,,,,,,,2019_Feb_07_1733,59.76316654956823,Cloud_Experiment_FR_REAL,001,16,
images/fcloud_D1.3_5.tif,1.3,0,,,,,,,,,0,64,64,16,,,,,,,,,,,,,,,3,space,3,1.634,3.06348040339,,,,,,,,,,,,,,,,,,2019_Feb_07_1733,59.76316654956823,Cloud_Experiment_FR_REAL,001,16,
images/fcloud80-20_D1.5_5.tif,1.5,2,,,,,,,,,0,65,65,94,,,,,,,,,,,,,,,1,None,1,0.488,,,,,,,,,,,,,,,,,,,2019_Feb_07_1733,59.76316654956823,Cloud_Experiment_FR_REAL,001,16,
images/fcloud65-35_D1.3_6.tif,1.3,1,,,,,,,,,0,66,66,53,,,,,,,,,,,,,,,2,space,4,0.619,3.52391728002,,,,,,,,,,,,,,,,,,2019_Feb_07_1733,59.76316654956823,Cloud_Experiment_FR_REAL,001,16,
images/fcloud_D1_6.tif,1.0,0,,,,,,,,,0,67,67,8,,,,,,,,,,,,,,,2,space,3,0.601,7.44018559519,,,,,,,,,,,,,,,,,,2019_Feb_07_1733,59.76316654956823,Cloud_Experiment_FR_REAL,001,16,
images/fcloud_D1.4_4.tif,1.4,0,,,,,,,,,0,68,68,18,,,,,,,,,,,,,,,2,None,1,0.619,,,,,,,,,,,,,,,,,,,2019_Feb_07_1733,59.76316654956823,Cloud_Experiment_FR_REAL,001,16,
images/fcloud65-35_D1.6_6.tif,1.6,1,,,,,,,,,0,69,69,62,,,,,,,,,,,,,,,1,space,2,0.524,6.35901597131,,,,,,,,,,,,,,,,,,2019_Feb_07_1733,59.76316654956823,Cloud_Experiment_FR_REAL,001,16,
images/fcloud80-20_D0.8_6.tif,0.8,2,,,,,,,,,0,70,70,74,,,,,,,,,,,,,,,1,space,4,0.617,2.75980731088,,,,,,,,,,,,,,,,,,2019_Feb_07_1733,59.76316654956823,Cloud_Experiment_FR_REAL,001,16,
images/fcloud_D1_4.tif,1.0,0,,,,,,,,,0,71,71,6,,,,,,,,,,,,,,,3,space,3,0.954,2.30025872495,,,,,,,,,,,,,,,,,,2019_Feb_07_1733,59.76316654956823,Cloud_Experiment_FR_REAL,001,16,
images/fcloud_D1.7_6.tif,1.7,0,,,,,,,,,0,72,72,29,,,,,,,,,,,,,,,1,None,2,0.619,,,,,,,,,,,,,,,,,,,2019_Feb_07_1733,59.76316654956823,Cloud_Experiment_FR_REAL,001,16,
images/fcloud_D1_5.tif,1.0,0,,,,,,,,,0,73,73,7,,,,,,,,,,,,,,,1,space,4,0.605,3.99089450575,,,,,,,,,,,,,,,,,,2019_Feb_07_1733,59.76316654956823,Cloud_Experiment_FR_REAL,001,16,
images/fcloud65-35_D0.8_4.tif,0.8,1,,,,,,,,,0,74,74,36,,,,,,,,,,,,,,,1,space,4,0.551,6.50126637984,,,,,,,,,,,,,,,,,,2019_Feb_07_1733,59.76316654956823,Cloud_Experiment_FR_REAL,001,16,
images/fcloud80-20_D1.1_5.tif,1.1,2,,,,,,,,,0,75,75,82,,,,,,,,,,,,,,,1,space,2,1.186,2.71546731133,,,,,,,,,,,,,,,,,,2019_Feb_07_1733,59.76316654956823,Cloud_Experiment_FR_REAL,001,16,
images/fcloud65-35_D1.4_4.tif,1.4,1,,,,,,,,,0,76,76,54,,,,,,,,,,,,,,,2,space,2,0.599,3.47868230706,,,,,,,,,,,,,,,,,,2019_Feb_07_1733,59.76316654956823,Cloud_Experiment_FR_REAL,001,16,
images/fcloud80-20_D1.4_5.tif,1.4,2,,,,,,,,,0,77,77,91,,,,,,,,,,,,,,,1,None,2,0.556,,,,,,,,,,,,,,,,,,,2019_Feb_07_1733,59.76316654956823,Cloud_Experiment_FR_REAL,001,16,
images/fcloud65-35_D1.7_4.tif,1.7,1,,,,,,,,,0,78,78,63,,,,,,,,,,,,,,,1,space,3,0.552,6.49723257334,,,,,,,,,,,,,,,,,,2019_Feb_07_1733,59.76316654956823,Cloud_Experiment_FR_REAL,001,16,
images/fcloud80-20_D1.5_4.tif,1.5,2,,,,,,,,,0,79,79,93,,,,,,,,,,,,,,,None,None,None,9.592,,,,,,,,,,,,,,,,,,,2019_Feb_07_1733,59.76316654956823,Cloud_Experiment_FR_REAL,001,16,
images/fcloud80-20_D1.6_5.tif,1.6,2,,,,,,,,,0,80,80,97,,,,,,,,,,,,,,,None,space,None,18.95,8.69653253024,,,,,,,,,,,,,,,,,,2019_Feb_07_1733,59.76316654956823,Cloud_Experiment_FR_REAL,001,16,
images/fcloud_D1.2_6.tif,1.2,0,,,,,,,,,0,81,81,14,,,,,,,,,,,,,,,1,None,3,0.652,,,,,,,,,,,,,,,,,,,2019_Feb_07_1733,59.76316654956823,Cloud_Experiment_FR_REAL,001,16,
images/fcloud65-35_D1.6_4.tif,1.6,1,,,,,,,,,0,82,82,60,,,,,,,,,,,,,,,None,None,None,9.692,,,,,,,,,,,,,,,,,,,2019_Feb_07_1733,59.76316654956823,Cloud_Experiment_FR_REAL,001,16,
images/fcloud80-20_D1.8_5.tif,1.8,2,,,,,,,,,0,83,83,103,,,,,,,,,,,,,,,2,space,2,2.184,5.79117662017,,,,,,,,,,,,,,,,,,2019_Feb_07_1733,59.76316654956823,Cloud_Experiment_FR_REAL,001,16,
images/fcloud80-20_D1.3_4.tif,1.3,2,,,,,,,,,0,84,84,87,,,,,,,,,,,,,,,1,space,2,0.785,3.48293355969,,,,,,,,,,,,,,,,,,2019_Feb_07_1733,59.76316654956823,Cloud_Experiment_FR_REAL,001,16,
images/fcloud_D1.7_5.tif,1.7,0,,,,,,,,,0,85,85,28,,,,,,,,,,,,,,,None,None,None,9.476,,,,,,,,,,,,,,,,,,,2019_Feb_07_1733,59.76316654956823,Cloud_Experiment_FR_REAL,001,16,
images/fcloud_D1.9_4.tif,1.9,0,,,,,,,,,0,86,86,33,,,,,,,,,,,,,,,1,space,3,0.818,5.63748535584,,,,,,,,,,,,,,,,,,2019_Feb_07_1733,59.76316654956823,Cloud_Experiment_FR_REAL,001,16,
images/fcloud65-35_D1.1_6.tif,1.1,1,,,,,,,,,0,87,87,47,,,,,,,,,,,,,,,2,space,2,0.653,3.48012423737,,,,,,,,,,,,,,,,,,2019_Feb_07_1733,59.76316654956823,Cloud_Experiment_FR_REAL,001,16,
images/fcloud80-20_D1.6_6.tif,1.6,2,,,,,,,,,0,88,88,98,,,,,,,,,,,,,,,1,space,4,0.635,6.96084837941,,,,,,,,,,,,,,,,,,2019_Feb_07_1733,59.76316654956823,Cloud_Experiment_FR_REAL,001,16,
images/fcloud_D1.7_4.tif,1.7,0,,,,,,,,,0,89,89,27,,,,,,,,,,,,,,,1,space,4,0.553,6.30778092321,,,,,,,,,,,,,,,,,,2019_Feb_07_1733,59.76316654956823,Cloud_Experiment_FR_REAL,001,16,
images/fcloud65-35_D1.4_6.tif,1.4,1,,,,,,,,,0,90,90,56,,,,,,,,,,,,,,,1,space,2,0.435,4.3380753391,,,,,,,,,,,,,,,,,,2019_Feb_07_1733,59.76316654956823,Cloud_Experiment_FR_REAL,001,16,
images/fcloud80-20_D1_5.tif,1.0,2,,,,,,,,,0,91,91,79,,,,,,,,,,,,,,,1,space,1,1.233,5.60002909566,,,,,,,,,,,,,,,,,,2019_Feb_07_1733,59.76316654956823,Cloud_Experiment_FR_REAL,001,16,
images/fcloud80-20_D1.3_5.tif,1.3,2,,,,,,,,,0,92,92,88,,,,,,,,,,,,,,,2,space,3,1.654,5.64792894095,,,,,,,,,,,,,,,,,,2019_Feb_07_1733,59.76316654956823,Cloud_Experiment_FR_REAL,001,16,
images/fcloud65-35_D1.5_4.tif,1.5,1,,,,,,,,,0,93,93,57,,,,,,,,,,,,,,,1,space,4,0.62,3.33568240318,,,,,,,,,,,,,,,,,,2019_Feb_07_1733,59.76316654956823,Cloud_Experiment_FR_REAL,001,16,
images/fcloud65-35_D1.8_5.tif,1.8,1,,,,,,,,,0,94,94,67,,,,,,,,,,,,,,,1,space,3,0.687,7.07494799024,,,,,,,,,,,,,,,,,,2019_Feb_07_1733,59.76316654956823,Cloud_Experiment_FR_REAL,001,16,
images/fcloud65-35_D1.5_6.tif,1.5,1,,,,,,,,,0,95,95,59,,,,,,,,,,,,,,,1,space,3,0.602,6.5255360459,,,,,,,,,,,,,,,,,,2019_Feb_07_1733,59.76316654956823,Cloud_Experiment_FR_REAL,001,16,
images/fcloud_D1.4_5.tif,1.4,0,,,,,,,,,0,96,96,19,,,,,,,,,,,,,,,1,space,2,0.553,2.13031502964,,,,,,,,,,,,,,,,,,2019_Feb_07_1733,59.76316654956823,Cloud_Experiment_FR_REAL,001,16,
images/fcloud65-35_D1_6.tif,1.0,1,,,,,,,,,0,97,97,44,,,,,,,,,,,,,,,1,space,2,0.652,2.80487932765,,,,,,,,,,,,,,,,,,2019_Feb_07_1733,59.76316654956823,Cloud_Experiment_FR_REAL,001,16,
images/fcloud80-20_D1_6.tif,1.0,2,,,,,,,,,0,98,98,80,,,,,,,,,,,,,,,1,space,1,0.485,6.08133669244,,,,,,,,,,,,,,,,,,2019_Feb_07_1733,59.76316654956823,Cloud_Experiment_FR_REAL,001,16,
images/fcloud_D1.5_5.tif,1.5,0,,,,,,,,,0,99,99,22,,,,,,,,,,,,,,,3,space,4,0.502,3.7913349499,,,,,,,,,,,,,,,,,,2019_Feb_07_1733,59.76316654956823,Cloud_Experiment_FR_REAL,001,16,
images/fcloud80-20_D0.8_5.tif,0.8,2,,,,,,,,,0,100,100,73,,,,,,,,,,,,,,,1,space,3,0.616,6.74259513523,,,,,,,,,,,,,,,,,,2019_Feb_07_1733,59.76316654956823,Cloud_Experiment_FR_REAL,001,16,
images/fcloud80-20_D1.2_4.tif,1.2,2,,,,,,,,,0,101,101,84,,,,,,,,,,,,,,,2,space,3,0.452,6.96241419739,,,,,,,,,,,,,,,,,,2019_Feb_07_1733,59.76316654956823,Cloud_Experiment_FR_REAL,001,16,
images/fcloud65-35_D1_5.tif,1.0,1,,,,,,,,,0,102,102,43,,,,,,,,,,,,,,,2,space,3,0.452,7.25805874541,,,,,,,,,,,,,,,,,,2019_Feb_07_1733,59.76316654956823,Cloud_Experiment_FR_REAL,001,16,
images/fcloud80-20_D1.2_5.tif,1.2,2,,,,,,,,,0,103,103,85,,,,,,,,,,,,,,,None,None,None,12.01,,,,,,,,,,,,,,,,,,,2019_Feb_07_1733,59.76316654956823,Cloud_Experiment_FR_REAL,001,16,
images/fcloud65-35_D1.7_6.tif,1.7,1,,,,,,,,,0,104,104,65,,,,,,,,,,,,,,,1,space,3,0.803,5.94019664743,,,,,,,,,,,,,,,,,,2019_Feb_07_1733,59.76316654956823,Cloud_Experiment_FR_REAL,001,16,
images/fcloud65-35_D1.1_4.tif,1.1,1,,,,,,,,,0,105,105,45,,,,,,,,,,,,,,,1,space,1,0.769,4.61299978569,,,,,,,,,,,,,,,,,,2019_Feb_07_1733,59.76316654956823,Cloud_Experiment_FR_REAL,001,16,
images/fcloud65-35_D0.8_5.tif,0.8,1,,,,,,,,,0,106,106,37,,,,,,,,,,,,,,,1,space,2,1.818,7.97565682372,,,,,,,,,,,,,,,,,,2019_Feb_07_1733,59.76316654956823,Cloud_Experiment_FR_REAL,001,16,
images/fcloud80-20_D1.7_6.tif,1.7,2,,,,,,,,,0,107,107,101,,,,,,,,,,,,,,,1,space,2,1.217,6.13219236641,,,,,,,,,,,,,,,,,,2019_Feb_07_1733,59.76316654956823,Cloud_Experiment_FR_REAL,001,16,
,,,,,,,,,,,,,,,,,,,,,,,,,,,,,,,,,,,,,,,,,,,,,,space,3.06577309815,,,,2019_Feb_07_1733,59.76316654956823,Cloud_Experiment_FR_REAL,001,16,
,,,,,,,,,,,,,,,,,,,,,,,,,3,9.014,,,,,,,,,,,,,,,,,,,,,,,,,2019_Feb_07_1733,59.76316654956823,Cloud_Experiment_FR_REAL,001,16,
,,,,,,,,,,,,,,,,,,,,,,,,,,,,,,,,,,2,,,,,,,,,,,,,,,,,2019_Feb_07_1733,59.76316654956823,Cloud_Experiment_FR_REAL,001,16,
,,,,,,,,,,,,,,,,,,,,,,,,,,,,,,,,,,,4,,,,,,,,,,,,,,,,2019_Feb_07_1733,59.76316654956823,Cloud_Experiment_FR_REAL,001,16,
,,,,,,,,,,,,,,,,,,,,,,,,,,,,,,,,,,,,2,,,,,,,,,,,,,,,2019_Feb_07_1733,59.76316654956823,Cloud_Experiment_FR_REAL,001,16,
,,,,,,,,,,,,,,,,,,,,,,,,,,,,,,,,,,,,,3,,,,,,,,,,,,,,2019_Feb_07_1733,59.76316654956823,Cloud_Experiment_FR_REAL,001,16,
,,,,,,,,,,,,,,,,,,,,,,,,,,,,,,,,,,,,,,3,,,,,,,,,,,,,2019_Feb_07_1733,59.76316654956823,Cloud_Experiment_FR_REAL,001,16,
,,,,,,,,,,,,,,,,,,,,,,,,,,,,,,,,,,,,,,,4,,,,,,,,,,,,2019_Feb_07_1733,59.76316654956823,Cloud_Experiment_FR_REAL,001,16,
,,,,,,,,,,,,,,,,,,,,,,,,,,,,,,,,,,,,,,,,3,,,,,,,,,,,2019_Feb_07_1733,59.76316654956823,Cloud_Experiment_FR_REAL,001,16,
,,,,,,,,,,,,,,,,,,,,,,,,,,,,,,,,,,,,,,,,,7,,,,,,,,,,2019_Feb_07_1733,59.76316654956823,Cloud_Experiment_FR_REAL,001,16,
,,,,,,,,,,,,,,,,,,,,,,,,,,,,,,,,,,,,,,,,,,5,,,,,,,,,2019_Feb_07_1733,59.76316654956823,Cloud_Experiment_FR_REAL,001,16,
,,,,,,,,,,,,,,,,,,,,,,,,,,,,,,,,,,,,,,,,,,,5,,,,,,,,2019_Feb_07_1733,59.76316654956823,Cloud_Experiment_FR_REAL,001,16,
,,,,,,,,,,,,,,,,,,,,,,,,,,,,,,,,,,,,,,,,,,,,,,,,space,128.457781771,,2019_Feb_07_1733,59.76316654956823,Cloud_Experiment_FR_REAL,001,16,
images/fcloud80-20_D1.2_7.tif,1.2,2,,,,,,,,,,,,,0,0,0,112,,,,,,,,,,,None,None,None,201.309,,,,,,,,,,,,,,,,,,,2019_Feb_07_1733,59.76316654956823,Cloud_Experiment_FR_REAL,001,16,
images/fcloud_D0.8_8.tif,0.8,0,,,,,,,,,,,,,0,1,1,1,,,,,,,,,,,3,space,5,0.57,4.23974340328,,,,,,,,,,,,,,,,,,2019_Feb_07_1733,59.76316654956823,Cloud_Experiment_FR_REAL,001,16,
images/fcloud_D1.4_8.tif,1.4,0,,,,,,,,,,,,,0,2,2,25,,,,,,,,,,,1,space,2,0.934,1.71142990654,,,,,,,,,,,,,,,,,,2019_Feb_07_1733,59.76316654956823,Cloud_Experiment_FR_REAL,001,16,
images/fcloud80-20_D1.4_7.tif,1.4,2,,,,,,,,,,,,,0,3,3,120,,,,,,,,,,,1,space,4,0.934,4.88434073969,,,,,,,,,,,,,,,,,,2019_Feb_07_1733,59.76316654956823,Cloud_Experiment_FR_REAL,001,16,
images/fcloud80-20_D1.3_10.tif,1.3,2,,,,,,,,,,,,,0,4,4,119,,,,,,,,,,,1,space,3,0.735,4.093375911,,,,,,,,,,,,,,,,,,2019_Feb_07_1733,59.76316654956823,Cloud_Experiment_FR_REAL,001,16,
images/fcloud80-20_D1.7_8.tif,1.7,2,,,,,,,,,,,,,0,5,5,133,,,,,,,,,,,1,space,2,1.12,6.4067281856,,,,,,,,,,,,,,,,,,2019_Feb_07_1733,59.76316654956823,Cloud_Experiment_FR_REAL,001,16,
images/fcloud65-35_D1.6_9.tif,1.6,1,,,,,,,,,,,,,0,6,6,82,,,,,,,,,,,2,space,4,0.69,3.2839924146,,,,,,,,,,,,,,,,,,2019_Feb_07_1733,59.76316654956823,Cloud_Experiment_FR_REAL,001,16,
images/fcloud_D1.7_10.tif,1.7,0,,,,,,,,,,,,,0,7,7,39,,,,,,,,,,,1,space,2,1.219,7.20777881565,,,,,,,,,,,,,,,,,,2019_Feb_07_1733,59.76316654956823,Cloud_Experiment_FR_REAL,001,16,
images/fcloud65-35_D1.7_10.tif,1.7,1,,,,,,,,,,,,,0,8,8,87,,,,,,,,,,,None,None,None,9.876,,,,,,,,,,,,,,,,,,,2019_Feb_07_1733,59.76316654956823,Cloud_Experiment_FR_REAL,001,16,
images/fcloud80-20_D0.9_7.tif,0.9,2,,,,,,,,,,,,,0,9,9,100,,,,,,,,,,,2,space,4,1.519,2.59266265668,,,,,,,,,,,,,,,,,,2019_Feb_07_1733,59.76316654956823,Cloud_Experiment_FR_REAL,001,16,
images/fcloud80-20_D1.3_7.tif,1.3,2,,,,,,,,,,,,,0,10,10,116,,,,,,,,,,,1,space,2,0.818,3.66063077899,,,,,,,,,,,,,,,,,,2019_Feb_07_1733,59.76316654956823,Cloud_Experiment_FR_REAL,001,16,
images/fcloud65-35_D1.8_10.tif,1.8,1,,,,,,,,,,,,,0,11,11,91,,,,,,,,,,,None,None,None,9.99,,,,,,,,,,,,,,,,,,,2019_Feb_07_1733,59.76316654956823,Cloud_Experiment_FR_REAL,001,16,
images/fcloud_D1_8.tif,1.0,0,,,,,,,,,,,,,0,12,12,9,,,,,,,,,,,3,space,5,1.368,5.3934002259,,,,,,,,,,,,,,,,,,2019_Feb_07_1733,59.76316654956823,Cloud_Experiment_FR_REAL,001,16,
images/fcloud_D1.9_8.tif,1.9,0,,,,,,,,,,,,,0,13,13,45,,,,,,,,,,,1,space,2,0.568,7.89989970753,,,,,,,,,,,,,,,,,,2019_Feb_07_1733,59.76316654956823,Cloud_Experiment_FR_REAL,001,16,
images/fcloud65-35_D1.9_8.tif,1.9,1,,,,,,,,,,,,,0,14,14,93,,,,,,,,,,,None,None,None,9.828,,,,,,,,,,,,,,,,,,,2019_Feb_07_1733,59.76316654956823,Cloud_Experiment_FR_REAL,001,16,
images/fcloud80-20_D0.9_9.tif,0.9,2,,,,,,,,,,,,,0,15,15,102,,,,,,,,,,,2,space,3,0.855,4.30034971307,,,,,,,,,,,,,,,,,,2019_Feb_07_1733,59.76316654956823,Cloud_Experiment_FR_REAL,001,16,
images/fcloud80-20_D1.6_7.tif,1.6,2,,,,,,,,,,,,,0,16,16,128,,,,,,,,,,,None,None,None,9.844,,,,,,,,,,,,,,,,,,,2019_Feb_07_1733,59.76316654956823,Cloud_Experiment_FR_REAL,001,16,
images/fcloud65-35_D1.2_9.tif,1.2,1,,,,,,,,,,,,,0,17,17,66,,,,,,,,,,,1,space,2,0.536,7.9078583403,,,,,,,,,,,,,,,,,,2019_Feb_07_1733,59.76316654956823,Cloud_Experiment_FR_REAL,001,16,
images/fcloud80-20_D1_10.tif,1.0,2,,,,,,,,,,,,,0,18,18,107,,,,,,,,,,,None,None,None,9.61,,,,,,,,,,,,,,,,,,,2019_Feb_07_1733,59.76316654956823,Cloud_Experiment_FR_REAL,001,16,
images/fcloud65-35_D1_7.tif,1.0,1,,,,,,,,,,,,,0,19,19,56,,,,,,,,,,,2,space,3,0.454,1.5523292186,,,,,,,,,,,,,,,,,,2019_Feb_07_1733,59.76316654956823,Cloud_Experiment_FR_REAL,001,16,
images/fcloud65-35_D1.3_8.tif,1.3,1,,,,,,,,,,,,,0,20,20,69,,,,,,,,,,,3,space,4,2.117,1.85162100219,,,,,,,,,,,,,,,,,,2019_Feb_07_1733,59.76316654956823,Cloud_Experiment_FR_REAL,001,16,
images/fcloud65-35_D0.9_9.tif,0.9,1,,,,,,,,,,,,,0,21,21,54,,,,,,,,,,,3,space,3,3.849,6.0767867727,,,,,,,,,,,,,,,,,,2019_Feb_07_1733,59.76316654956823,Cloud_Experiment_FR_REAL,001,16,
images/fcloud65-35_D1.3_9.tif,1.3,1,,,,,,,,,,,,,0,22,22,70,,,,,,,,,,,2,space,3,1.368,3.94641571085,,,,,,,,,,,,,,,,,,2019_Feb_07_1733,59.76316654956823,Cloud_Experiment_FR_REAL,001,16,
images/fcloud80-20_D1.9_8.tif,1.9,2,,,,,,,,,,,,,0,23,23,141,,,,,,,,,,,1,space,1,1.168,7.77131807851,,,,,,,,,,,,,,,,,,2019_Feb_07_1733,59.76316654956823,Cloud_Experiment_FR_REAL,001,16,
images/fcloud65-35_D1.7_7.tif,1.7,1,,,,,,,,,,,,,0,24,24,84,,,,,,,,,,,1,space,2,0.403,6.72580088815,,,,,,,,,,,,,,,,,,2019_Feb_07_1733,59.76316654956823,Cloud_Experiment_FR_REAL,001,16,
images/fcloud80-20_D1.8_9.tif,1.8,2,,,,,,,,,,,,,0,25,25,138,,,,,,,,,,,None,None,None,9.227,,,,,,,,,,,,,,,,,,,2019_Feb_07_1733,59.76316654956823,Cloud_Experiment_FR_REAL,001,16,
images/fcloud_D1.6_9.tif,1.6,0,,,,,,,,,,,,,0,26,26,34,,,,,,,,,,,2,space,4,0.768,3.0712539755,,,,,,,,,,,,,,,,,,2019_Feb_07_1733,59.76316654956823,Cloud_Experiment_FR_REAL,001,16,
images/fcloud_D1.3_7.tif,1.3,0,,,,,,,,,,,,,0,27,27,20,,,,,,,,,,,2,None,4,0.702,,,,,,,,,,,,,,,,,,,2019_Feb_07_1733,59.76316654956823,Cloud_Experiment_FR_REAL,001,16,
images/fcloud65-35_D1.3_7.tif,1.3,1,,,,,,,,,,,,,0,28,28,68,,,,,,,,,,,1,space,2,0.534,4.27585694601,,,,,,,,,,,,,,,,,,2019_Feb_07_1733,59.76316654956823,Cloud_Experiment_FR_REAL,001,16,
images/fcloud80-20_D1.8_10.tif,1.8,2,,,,,,,,,,,,,0,29,29,139,,,,,,,,,,,None,None,None,9.841,,,,,,,,,,,,,,,,,,,2019_Feb_07_1733,59.76316654956823,Cloud_Experiment_FR_REAL,001,16,
images/fcloud_D1_10.tif,1.0,0,,,,,,,,,,,,,0,30,30,11,,,,,,,,,,,3,space,4,0.835,1.6380610998,,,,,,,,,,,,,,,,,,2019_Feb_07_1733,59.76316654956823,Cloud_Experiment_FR_REAL,001,16,
images/fcloud65-35_D1.4_7.tif,1.4,1,,,,,,,,,,,,,0,31,31,72,,,,,,,,,,,2,space,2,0.685,3.22612088872,,,,,,,,,,,,,,,,,,2019_Feb_07_1733,59.76316654956823,Cloud_Experiment_FR_REAL,001,16,
images/fcloud_D1.1_8.tif,1.1,0,,,,,,,,,,,,,0,32,32,13,,,,,,,,,,,2,space,2,1.217,4.52782411431,,,,,,,,,,,,,,,,,,2019_Feb_07_1733,59.76316654956823,Cloud_Experiment_FR_REAL,001,16,
images/fcloud_D1.2_9.tif,1.2,0,,,,,,,,,,,,,0,33,33,18,,,,,,,,,,,2,space,3,1.101,1.78572658636,,,,,,,,,,,,,,,,,,2019_Feb_07_1733,59.76316654956823,Cloud_Experiment_FR_REAL,001,16,
images/fcloud65-35_D1.8_9.tif,1.8,1,,,,,,,,,,,,,0,34,34,90,,,,,,,,,,,1,space,3,0.785,1.67612857395,,,,,,,,,,,,,,,,,,2019_Feb_07_1733,59.76316654956823,Cloud_Experiment_FR_REAL,001,16,
images/fcloud_D1.7_8.tif,1.7,0,,,,,,,,,,,,,0,35,35,37,,,,,,,,,,,4,space,3,1.119,2.71289188496,,,,,,,,,,,,,,,,,,2019_Feb_07_1733,59.76316654956823,Cloud_Experiment_FR_REAL,001,16,
images/fcloud80-20_D1.6_8.tif,1.6,2,,,,,,,,,,,,,0,36,36,129,,,,,,,,,,,2,space,2,0.553,2.45978659426,,,,,,,,,,,,,,,,,,2019_Feb_07_1733,59.76316654956823,Cloud_Experiment_FR_REAL,001,16,
images/fcloud65-35_D1.1_8.tif,1.1,1,,,,,,,,,,,,,0,37,37,61,,,,,,,,,,,1,space,1,1.367,6.55146097613,,,,,,,,,,,,,,,,,,2019_Feb_07_1733,59.76316654956823,Cloud_Experiment_FR_REAL,001,16,
images/fcloud_D1.6_7.tif,1.6,0,,,,,,,,,,,,,0,38,38,32,,,,,,,,,,,3,space,2,0.686,4.79575841175,,,,,,,,,,,,,,,,,,2019_Feb_07_1733,59.76316654956823,Cloud_Experiment_FR_REAL,001,16,
images/fcloud_D1.5_8.tif,1.5,0,,,,,,,,,,,,,0,39,39,29,,,,,,,,,,,2,space,1,0.588,7.32387913694,,,,,,,,,,,,,,,,,,2019_Feb_07_1733,59.76316654956823,Cloud_Experiment_FR_REAL,001,16,
images/fcloud_D1.9_10.tif,1.9,0,,,,,,,,,,,,,0,40,40,47,,,,,,,,,,,None,None,None,9.676,,,,,,,,,,,,,,,,,,,2019_Feb_07_1733,59.76316654956823,Cloud_Experiment_FR_REAL,001,16,
images/fcloud_D0.9_7.tif,0.9,0,,,,,,,,,,,,,0,41,41,4,,,,,,,,,,,4,space,5,1.451,2.40270517429,,,,,,,,,,,,,,,,,,2019_Feb_07_1733,59.76316654956823,Cloud_Experiment_FR_REAL,001,16,
images/fcloud80-20_D1.9_9.tif,1.9,2,,,,,,,,,,,,,0,42,42,142,,,,,,,,,,,None,None,None,10.294,,,,,,,,,,,,,,,,,,,2019_Feb_07_1733,59.76316654956823,Cloud_Experiment_FR_REAL,001,16,
images/fcloud_D0.9_10.tif,0.9,0,,,,,,,,,,,,,0,43,43,7,,,,,,,,,,,1,None,1,1.268,,,,,,,,,,,,,,,,,,,2019_Feb_07_1733,59.76316654956823,Cloud_Experiment_FR_REAL,001,16,
images/fcloud80-20_D1.3_9.tif,1.3,2,,,,,,,,,,,,,0,44,44,118,,,,,,,,,,,1,None,1,0.619,,,,,,,,,,,,,,,,,,,2019_Feb_07_1733,59.76316654956823,Cloud_Experiment_FR_REAL,001,16,
images/fcloud_D0.8_7.tif,0.8,0,,,,,,,,,,,,,0,45,45,0,,,,,,,,,,,1,None,2,0.668,,,,,,,,,,,,,,,,,,,2019_Feb_07_1733,59.76316654956823,Cloud_Experiment_FR_REAL,001,16,
images/fcloud_D1.2_8.tif,1.2,0,,,,,,,,,,,,,0,46,46,17,,,,,,,,,,,1,space,2,0.469,7.60919422063,,,,,,,,,,,,,,,,,,2019_Feb_07_1733,59.76316654956823,Cloud_Experiment_FR_REAL,001,16,
images/fcloud80-20_D1.7_10.tif,1.7,2,,,,,,,,,,,,,0,47,47,135,,,,,,,,,,,1,space,2,0.469,6.5784171049,,,,,,,,,,,,,,,,,,2019_Feb_07_1733,59.76316654956823,Cloud_Experiment_FR_REAL,001,16,
images/fcloud65-35_D1.2_8.tif,1.2,1,,,,,,,,,,,,,0,48,48,65,,,,,,,,,,,1,space,1,0.605,6.33754329011,,,,,,,,,,,,,,,,,,2019_Feb_07_1733,59.76316654956823,Cloud_Experiment_FR_REAL,001,16,
images/fcloud_D1.6_8.tif,1.6,0,,,,,,,,,,,,,0,49,49,33,,,,,,,,,,,1,space,3,0.754,4.03463460051,,,,,,,,,,,,,,,,,,2019_Feb_07_1733,59.76316654956823,Cloud_Experiment_FR_REAL,001,16,
images/fcloud65-35_D0.8_7.tif,0.8,1,,,,,,,,,,,,,0,50,50,48,,,,,,,,,,,None,space,None,10.394,9.50777742767,,,,,,,,,,,,,,,,,,2019_Feb_07_1733,59.76316654956823,Cloud_Experiment_FR_REAL,001,16,
images/fcloud65-35_D1.5_9.tif,1.5,1,,,,,,,,,,,,,0,51,51,78,,,,,,,,,,,None,None,None,19.151,,,,,,,,,,,,,,,,,,,2019_Feb_07_1733,59.76316654956823,Cloud_Experiment_FR_REAL,001,16,
images/fcloud80-20_D1.2_9.tif,1.2,2,,,,,,,,,,,,,0,52,52,114,,,,,,,,,,,None,None,None,29.276,,,,,,,,,,,,,,,,,,,2019_Feb_07_1733,59.76316654956823,Cloud_Experiment_FR_REAL,001,16,
images/fcloud_D1.5_9.tif,1.5,0,,,,,,,,,,,,,0,53,53,30,,,,,,,,,,,3,space,4,1.102,1.41968602419,,,,,,,,,,,,,,,,,,2019_Feb_07_1733,59.76316654956823,Cloud_Experiment_FR_REAL,001,16,
images/fcloud80-20_D1.5_10.tif,1.5,2,,,,,,,,,,,,,0,54,54,127,,,,,,,,,,,1,None,1,0.951,,,,,,,,,,,,,,,,,,,2019_Feb_07_1733,59.76316654956823,Cloud_Experiment_FR_REAL,001,16,
images/fcloud_D0.8_9.tif,0.8,0,,,,,,,,,,,,,0,55,55,2,,,,,,,,,,,2,space,3,0.518,5.80792254594,,,,,,,,,,,,,,,,,,2019_Feb_07_1733,59.76316654956823,Cloud_Experiment_FR_REAL,001,16,
images/fcloud65-35_D1.5_8.tif,1.5,1,,,,,,,,,,,,,0,56,56,77,,,,,,,,,,,1,space,2,0.652,6.87405137182,,,,,,,,,,,,,,,,,,2019_Feb_07_1733,59.76316654956823,Cloud_Experiment_FR_REAL,001,16,
images/fcloud80-20_D1.8_8.tif,1.8,2,,,,,,,,,,,,,0,57,57,137,,,,,,,,,,,2,space,2,0.769,3.74435321079,,,,,,,,,,,,,,,,,,2019_Feb_07_1733,59.76316654956823,Cloud_Experiment_FR_REAL,001,16,
images/fcloud_D1.4_10.tif,1.4,0,,,,,,,,,,,,,0,58,58,27,,,,,,,,,,,1,None,2,0.836,,,,,,,,,,,,,,,,,,,2019_Feb_07_1733,59.76316654956823,Cloud_Experiment_FR_REAL,001,16,
images/fcloud65-35_D0.8_8.tif,0.8,1,,,,,,,,,,,,,0,59,59,49,,,,,,,,,,,None,None,None,9.659,,,,,,,,,,,,,,,,,,,2019_Feb_07_1733,59.76316654956823,Cloud_Experiment_FR_REAL,001,16,
images/fcloud65-35_D1.6_8.tif,1.6,1,,,,,,,,,,,,,0,60,60,81,,,,,,,,,,,2,space,2,1.084,6.74185078056,,,,,,,,,,,,,,,,,,2019_Feb_07_1733,59.76316654956823,Cloud_Experiment_FR_REAL,001,16,
images/fcloud65-35_D1.2_7.tif,1.2,1,,,,,,,,,,,,,0,61,61,64,,,,,,,,,,,3,space,5,1.468,4.29519114958,,,,,,,,,,,,,,,,,,2019_Feb_07_1733,59.76316654956823,Cloud_Experiment_FR_REAL,001,16,
images/fcloud_D0.8_10.tif,0.8,0,,,,,,,,,,,,,0,62,62,3,,,,,,,,,,,1,None,2,0.617,,,,,,,,,,,,,,,,,,,2019_Feb_07_1733,59.76316654956823,Cloud_Experiment_FR_REAL,001,16,
images/fcloud80-20_D1.4_10.tif,1.4,2,,,,,,,,,,,,,0,63,63,123,,,,,,,,,,,2,space,3,0.918,5.30633950699,,,,,,,,,,,,,,,,,,2019_Feb_07_1733,59.76316654956823,Cloud_Experiment_FR_REAL,001,16,
images/fcloud_D1.3_8.tif,1.3,0,,,,,,,,,,,,,0,64,64,21,,,,,,,,,,,4,space,3,0.635,3.45224537596,,,,,,,,,,,,,,,,,,2019_Feb_07_1733,59.76316654956823,Cloud_Experiment_FR_REAL,001,16,
images/fcloud65-35_D1.1_10.tif,1.1,1,,,,,,,,,,,,,0,65,65,63,,,,,,,,,,,2,None,2,0.718,,,,,,,,,,,,,,,,,,,2019_Feb_07_1733,59.76316654956823,Cloud_Experiment_FR_REAL,001,16,
images/fcloud_D1.9_7.tif,1.9,0,,,,,,,,,,,,,0,66,66,44,,,,,,,,,,,1,space,2,1.019,5.29648143309,,,,,,,,,,,,,,,,,,2019_Feb_07_1733,59.76316654956823,Cloud_Experiment_FR_REAL,001,16,
images/fcloud80-20_D1.7_9.tif,1.7,2,,,,,,,,,,,,,0,67,67,134,,,,,,,,,,,None,None,None,10.743,,,,,,,,,,,,,,,,,,,2019_Feb_07_1733,59.76316654956823,Cloud_Experiment_FR_REAL,001,16,
images/fcloud_D1.6_10.tif,1.6,0,,,,,,,,,,,,,0,68,68,35,,,,,,,,,,,None,None,None,19.933,,,,,,,,,,,,,,,,,,,2019_Feb_07_1733,59.76316654956823,Cloud_Experiment_FR_REAL,001,16,
images/fcloud80-20_D1.8_7.tif,1.8,2,,,,,,,,,,,,,0,69,69,136,,,,,,,,,,,1,space,4,0.686,1.67434428155,,,,,,,,,,,,,,,,,,2019_Feb_07_1733,59.76316654956823,Cloud_Experiment_FR_REAL,001,16,
images/fcloud80-20_D0.8_10.tif,0.8,2,,,,,,,,,,,,,0,70,70,99,,,,,,,,,,,3,space,3,0.869,2.22805837006,,,,,,,,,,,,,,,,,,2019_Feb_07_1733,59.76316654956823,Cloud_Experiment_FR_REAL,001,16,
images/fcloud65-35_D1.9_7.tif,1.9,1,,,,,,,,,,,,,0,71,71,92,,,,,,,,,,,None,None,None,10.31,,,,,,,,,,,,,,,,,,,2019_Feb_07_1733,59.76316654956823,Cloud_Experiment_FR_REAL,001,16,
images/fcloud80-20_D1.1_10.tif,1.1,2,,,,,,,,,,,,,0,72,72,111,,,,,,,,,,,2,space,3,0.652,2.8598212417,,,,,,,,,,,,,,,,,,2019_Feb_07_1733,59.76316654956823,Cloud_Experiment_FR_REAL,001,16,
images/fcloud_D1.1_9.tif,1.1,0,,,,,,,,,,,,,0,73,73,14,,,,,,,,,,,3,space,3,0.586,3.46283186891,,,,,,,,,,,,,,,,,,2019_Feb_07_1733,59.76316654956823,Cloud_Experiment_FR_REAL,001,16,
images/fcloud_D1.2_7.tif,1.2,0,,,,,,,,,,,,,0,74,74,16,,,,,,,,,,,3,space,4,0.653,2.24476985401,,,,,,,,,,,,,,,,,,2019_Feb_07_1733,59.76316654956823,Cloud_Experiment_FR_REAL,001,16,
images/fcloud80-20_D1.2_8.tif,1.2,2,,,,,,,,,,,,,0,75,75,113,,,,,,,,,,,1,space,1,0.985,7.3032890918,,,,,,,,,,,,,,,,,,2019_Feb_07_1733,59.76316654956823,Cloud_Experiment_FR_REAL,001,16,
images/fcloud_D1.2_10.tif,1.2,0,,,,,,,,,,,,,0,76,76,19,,,,,,,,,,,3,space,4,0.719,3.33167944022,,,,,,,,,,,,,,,,,,2019_Feb_07_1733,59.76316654956823,Cloud_Experiment_FR_REAL,001,16,
images/fcloud65-35_D1.6_7.tif,1.6,1,,,,,,,,,,,,,0,77,77,80,,,,,,,,,,,None,None,None,10.324,,,,,,,,,,,,,,,,,,,2019_Feb_07_1733,59.76316654956823,Cloud_Experiment_FR_REAL,001,16,
images/fcloud_D1.7_7.tif,1.7,0,,,,,,,,,,,,,0,78,78,36,,,,,,,,,,,None,None,None,19.318,,,,,,,,,,,,,,,,,,,2019_Feb_07_1733,59.76316654956823,Cloud_Experiment_FR_REAL,001,16,
images/fcloud65-35_D0.8_9.tif,0.8,1,,,,,,,,,,,,,0,79,79,50,,,,,,,,,,,3,space,3,0.751,1.1865970908,,,,,,,,,,,,,,,,,,2019_Feb_07_1733,59.76316654956823,Cloud_Experiment_FR_REAL,001,16,
images/fcloud65-35_D1.4_10.tif,1.4,1,,,,,,,,,,,,,0,80,80,75,,,,,,,,,,,2,space,4,0.835,1.74627167208,,,,,,,,,,,,,,,,,,2019_Feb_07_1733,59.76316654956823,Cloud_Experiment_FR_REAL,001,16,
images/fcloud80-20_D1.7_7.tif,1.7,2,,,,,,,,,,,,,0,81,81,132,,,,,,,,,,,2,space,2,0.736,3.14578352333,,,,,,,,,,,,,,,,,,2019_Feb_07_1733,59.76316654956823,Cloud_Experiment_FR_REAL,001,16,
images/fcloud65-35_D1.4_8.tif,1.4,1,,,,,,,,,,,,,0,82,82,73,,,,,,,,,,,None,None,None,9.794,,,,,,,,,,,,,,,,,,,2019_Feb_07_1733,59.76316654956823,Cloud_Experiment_FR_REAL,001,16,
images/fcloud80-20_D0.8_7.tif,0.8,2,,,,,,,,,,,,,0,83,83,96,,,,,,,,,,,1,space,1,0.819,1.47860519844,,,,,,,,,,,,,,,,,,2019_Feb_07_1733,59.76316654956823,Cloud_Experiment_FR_REAL,001,16,
images/fcloud65-35_D1.7_8.tif,1.7,1,,,,,,,,,,,,,0,84,84,85,,,,,,,,,,,2,space,2,0.586,5.92928886868,,,,,,,,,,,,,,,,,,2019_Feb_07_1733,59.76316654956823,Cloud_Experiment_FR_REAL,001,16,
images/fcloud65-35_D1.9_9.tif,1.9,1,,,,,,,,,,,,,0,85,85,94,,,,,,,,,,,None,None,None,9.793,,,,,,,,,,,,,,,,,,,2019_Feb_07_1733,59.76316654956823,Cloud_Experiment_FR_REAL,001,16,
images/fcloud80-20_D1.5_7.tif,1.5,2,,,,,,,,,,,,,0,86,86,124,,,,,,,,,,,1,space,3,0.652,3.73315653193,,,,,,,,,,,,,,,,,,2019_Feb_07_1733,59.76316654956823,Cloud_Experiment_FR_REAL,001,16,
images/fcloud80-20_D1.5_8.tif,1.5,2,,,,,,,,,,,,,0,87,87,125,,,,,,,,,,,2,space,1,1.118,5.91401006223,,,,,,,,,,,,,,,,,,2019_Feb_07_1733,59.76316654956823,Cloud_Experiment_FR_REAL,001,16,
images/fcloud65-35_D1.1_9.tif,1.1,1,,,,,,,,,,,,,0,88,88,62,,,,,,,,,,,3,space,3,0.655,2.98814584222,,,,,,,,,,,,,,,,,,2019_Feb_07_1733,59.76316654956823,Cloud_Experiment_FR_REAL,001,16,
images/fcloud80-20_D1.6_10.tif,1.6,2,,,,,,,,,,,,,0,89,89,131,,,,,,,,,,,3,None,2,0.818,,,,,,,,,,,,,,,,,,,2019_Feb_07_1733,59.76316654956823,Cloud_Experiment_FR_REAL,001,16,
images/fcloud80-20_D1_7.tif,1.0,2,,,,,,,,,,,,,0,90,90,104,,,,,,,,,,,1,space,2,1.635,5.3478141519,,,,,,,,,,,,,,,,,,2019_Feb_07_1733,59.76316654956823,Cloud_Experiment_FR_REAL,001,16,
images/fcloud80-20_D1.1_8.tif,1.1,2,,,,,,,,,,,,,0,91,91,109,,,,,,,,,,,None,None,None,10.758,,,,,,,,,,,,,,,,,,,2019_Feb_07_1733,59.76316654956823,Cloud_Experiment_FR_REAL,001,16,
images/fcloud65-35_D1_8.tif,1.0,1,,,,,,,,,,,,,0,92,92,57,,,,,,,,,,,1,space,4,0.585,1.97161325009,,,,,,,,,,,,,,,,,,2019_Feb_07_1733,59.76316654956823,Cloud_Experiment_FR_REAL,001,16,
images/fcloud_D1.1_10.tif,1.1,0,,,,,,,,,,,,,0,93,93,15,,,,,,,,,,,3,None,4,0.819,,,,,,,,,,,,,,,,,,,2019_Feb_07_1733,59.76316654956823,Cloud_Experiment_FR_REAL,001,16,
images/fcloud65-35_D1.3_10.tif,1.3,1,,,,,,,,,,,,,0,94,94,71,,,,,,,,,,,1,None,2,0.569,,,,,,,,,,,,,,,,,,,2019_Feb_07_1733,59.76316654956823,Cloud_Experiment_FR_REAL,001,16,
images/fcloud80-20_D0.9_8.tif,0.9,2,,,,,,,,,,,,,0,95,95,101,,,,,,,,,,,None,None,None,9.912,,,,,,,,,,,,,,,,,,,2019_Feb_07_1733,59.76316654956823,Cloud_Experiment_FR_REAL,001,16,
images/fcloud65-35_D0.8_10.tif,0.8,1,,,,,,,,,,,,,0,96,96,51,,,,,,,,,,,None,None,None,19.236,,,,,,,,,,,,,,,,,,,2019_Feb_07_1733,59.76316654956823,Cloud_Experiment_FR_REAL,001,16,
images/fcloud80-20_D1.4_9.tif,1.4,2,,,,,,,,,,,,,0,97,97,122,,,,,,,,,,,1,space,2,0.918,9.94613040914,,,,,,,,,,,,,,,,,,2019_Feb_07_1733,59.76316654956823,Cloud_Experiment_FR_REAL,001,16,
images/fcloud_D1.7_9.tif,1.7,0,,,,,,,,,,,,,0,98,98,38,,,,,,,,,,,2,space,3,0.535,1.86160861852,,,,,,,,,,,,,,,,,,2019_Feb_07_1733,59.76316654956823,Cloud_Experiment_FR_REAL,001,16,
images/fcloud80-20_D1.4_8.tif,1.4,2,,,,,,,,,,,,,0,99,99,121,,,,,,,,,,,None,None,None,9.112,,,,,,,,,,,,,,,,,,,2019_Feb_07_1733,59.76316654956823,Cloud_Experiment_FR_REAL,001,16,
images/fcloud65-35_D0.9_8.tif,0.9,1,,,,,,,,,,,,,0,100,100,53,,,,,,,,,,,2,None,2,1.002,,,,,,,,,,,,,,,,,,,2019_Feb_07_1733,59.76316654956823,Cloud_Experiment_FR_REAL,001,16,
images/fcloud65-35_D1.6_10.tif,1.6,1,,,,,,,,,,,,,0,101,101,83,,,,,,,,,,,1,space,3,0.518,5.97030343255,,,,,,,,,,,,,,,,,,2019_Feb_07_1733,59.76316654956823,Cloud_Experiment_FR_REAL,001,16,
images/fcloud65-35_D1.4_9.tif,1.4,1,,,,,,,,,,,,,0,102,102,74,,,,,,,,,,,2,space,3,0.452,4.56090163568,,,,,,,,,,,,,,,,,,2019_Feb_07_1733,59.76316654956823,Cloud_Experiment_FR_REAL,001,16,
images/fcloud_D1.8_8.tif,1.8,0,,,,,,,,,,,,,0,103,103,41,,,,,,,,,,,2,space,2,0.436,4.15628982335,,,,,,,,,,,,,,,,,,2019_Feb_07_1733,59.76316654956823,Cloud_Experiment_FR_REAL,001,16,
images/fcloud_D1.9_9.tif,1.9,0,,,,,,,,,,,,,0,104,104,46,,,,,,,,,,,3,space,3,0.701,2.36063370912,,,,,,,,,,,,,,,,,,2019_Feb_07_1733,59.76316654956823,Cloud_Experiment_FR_REAL,001,16,
images/fcloud65-35_D0.9_10.tif,0.9,1,,,,,,,,,,,,,0,105,105,55,,,,,,,,,,,2,space,2,0.552,5.34328839276,,,,,,,,,,,,,,,,,,2019_Feb_07_1733,59.76316654956823,Cloud_Experiment_FR_REAL,001,16,
images/fcloud65-35_D1_10.tif,1.0,1,,,,,,,,,,,,,0,106,106,59,,,,,,,,,,,2,space,3,1.119,6.37962606456,,,,,,,,,,,,,,,,,,2019_Feb_07_1733,59.76316654956823,Cloud_Experiment_FR_REAL,001,16,
images/fcloud80-20_D0.9_10.tif,0.9,2,,,,,,,,,,,,,0,107,107,103,,,,,,,,,,,2,space,2,0.567,3.22290391917,,,,,,,,,,,,,,,,,,2019_Feb_07_1733,59.76316654956823,Cloud_Experiment_FR_REAL,001,16,
images/fcloud65-35_D1.8_8.tif,1.8,1,,,,,,,,,,,,,0,108,108,89,,,,,,,,,,,2,space,4,0.768,4.32327768998,,,,,,,,,,,,,,,,,,2019_Feb_07_1733,59.76316654956823,Cloud_Experiment_FR_REAL,001,16,
images/fcloud80-20_D1.5_9.tif,1.5,2,,,,,,,,,,,,,0,109,109,126,,,,,,,,,,,1,space,2,0.471,7.99181621021,,,,,,,,,,,,,,,,,,2019_Feb_07_1733,59.76316654956823,Cloud_Experiment_FR_REAL,001,16,
images/fcloud65-35_D1_9.tif,1.0,1,,,,,,,,,,,,,0,110,110,58,,,,,,,,,,,2,space,1,0.552,6.80926269293,,,,,,,,,,,,,,,,,,2019_Feb_07_1733,59.76316654956823,Cloud_Experiment_FR_REAL,001,16,
images/fcloud65-35_D0.9_7.tif,0.9,1,,,,,,,,,,,,,0,111,111,52,,,,,,,,,,,None,None,None,10.361,,,,,,,,,,,,,,,,,,,2019_Feb_07_1733,59.76316654956823,Cloud_Experiment_FR_REAL,001,16,
images/fcloud80-20_D0.8_8.tif,0.8,2,,,,,,,,,,,,,0,112,112,97,,,,,,,,,,,1,space,1,1.419,1.95042792684,,,,,,,,,,,,,,,,,,2019_Feb_07_1733,59.76316654956823,Cloud_Experiment_FR_REAL,001,16,
images/fcloud80-20_D1_9.tif,1.0,2,,,,,,,,,,,,,0,113,113,106,,,,,,,,,,,None,None,None,10.475,,,,,,,,,,,,,,,,,,,2019_Feb_07_1733,59.76316654956823,Cloud_Experiment_FR_REAL,001,16,
images/fcloud_D1.8_9.tif,1.8,0,,,,,,,,,,,,,0,114,114,42,,,,,,,,,,,2,space,4,0.702,1.98759682907,,,,,,,,,,,,,,,,,,2019_Feb_07_1733,59.76316654956823,Cloud_Experiment_FR_REAL,001,16,
images/fcloud80-20_D1.1_7.tif,1.1,2,,,,,,,,,,,,,0,115,115,108,,,,,,,,,,,3,space,3,1.616,2.94322547212,,,,,,,,,,,,,,,,,,2019_Feb_07_1733,59.76316654956823,Cloud_Experiment_FR_REAL,001,16,
images/fcloud_D0.9_9.tif,0.9,0,,,,,,,,,,,,,0,116,116,6,,,,,,,,,,,3,space,4,0.751,7.69139504316,,,,,,,,,,,,,,,,,,2019_Feb_07_1733,59.76316654956823,Cloud_Experiment_FR_REAL,001,16,
images/fcloud80-20_D1.2_10.tif,1.2,2,,,,,,,,,,,,,0,117,117,115,,,,,,,,,,,2,space,2,0.718,7.2917248623,,,,,,,,,,,,,,,,,,2019_Feb_07_1733,59.76316654956823,Cloud_Experiment_FR_REAL,001,16,
images/fcloud65-35_D1.9_10.tif,1.9,1,,,,,,,,,,,,,0,118,118,95,,,,,,,,,,,None,None,None,10.942,,,,,,,,,,,,,,,,,,,2019_Feb_07_1733,59.76316654956823,Cloud_Experiment_FR_REAL,001,16,
images/fcloud80-20_D1_8.tif,1.0,2,,,,,,,,,,,,,0,119,119,105,,,,,,,,,,,1,space,2,1.051,3.19582955714,,,,,,,,,,,,,,,,,,2019_Feb_07_1733,59.76316654956823,Cloud_Experiment_FR_REAL,001,16,
images/fcloud_D0.9_8.tif,0.9,0,,,,,,,,,,,,,0,120,120,5,,,,,,,,,,,1,None,4,0.571,,,,,,,,,,,,,,,,,,,2019_Feb_07_1733,59.76316654956823,Cloud_Experiment_FR_REAL,001,16,
images/fcloud65-35_D1.5_7.tif,1.5,1,,,,,,,,,,,,,0,121,121,76,,,,,,,,,,,2,space,3,0.584,2.00589109492,,,,,,,,,,,,,,,,,,2019_Feb_07_1733,59.76316654956823,Cloud_Experiment_FR_REAL,001,16,
images/fcloud_D1.8_7.tif,1.8,0,,,,,,,,,,,,,0,122,122,40,,,,,,,,,,,1,None,1,1.651,,,,,,,,,,,,,,,,,,,2019_Feb_07_1733,59.76316654956823,Cloud_Experiment_FR_REAL,001,16,
images/fcloud_D1.4_9.tif,1.4,0,,,,,,,,,,,,,0,123,123,26,,,,,,,,,,,4,space,3,1.688,6.39210531593,,,,,,,,,,,,,,,,,,2019_Feb_07_1733,59.76316654956823,Cloud_Experiment_FR_REAL,001,16,
images/fcloud_D1_7.tif,1.0,0,,,,,,,,,,,,,0,124,124,8,,,,,,,,,,,4,space,4,3.216,2.32763997896,,,,,,,,,,,,,,,,,,2019_Feb_07_1733,59.76316654956823,Cloud_Experiment_FR_REAL,001,16,
images/fcloud80-20_D1.9_7.tif,1.9,2,,,,,,,,,,,,,0,125,125,140,,,,,,,,,,,1,space,1,1.967,4.27422070224,,,,,,,,,,,,,,,,,,2019_Feb_07_1733,59.76316654956823,Cloud_Experiment_FR_REAL,001,16,
images/fcloud65-35_D1.8_7.tif,1.8,1,,,,,,,,,,,,,0,126,126,88,,,,,,,,,,,2,space,3,0.485,3.97150221386,,,,,,,,,,,,,,,,,,2019_Feb_07_1733,59.76316654956823,Cloud_Experiment_FR_REAL,001,16,
images/fcloud80-20_D0.8_9.tif,0.8,2,,,,,,,,,,,,,0,127,127,98,,,,,,,,,,,1,space,2,1.051,5.0817618178,,,,,,,,,,,,,,,,,,2019_Feb_07_1733,59.76316654956823,Cloud_Experiment_FR_REAL,001,16,
images/fcloud_D1.4_7.tif,1.4,0,,,,,,,,,,,,,0,128,128,24,,,,,,,,,,,3,space,4,1.668,2.94701664359,,,,,,,,,,,,,,,,,,2019_Feb_07_1733,59.76316654956823,Cloud_Experiment_FR_REAL,001,16,
images/fcloud80-20_D1.3_8.tif,1.3,2,,,,,,,,,,,,,0,129,129,117,,,,,,,,,,,None,None,None,10.791,,,,,,,,,,,,,,,,,,,2019_Feb_07_1733,59.76316654956823,Cloud_Experiment_FR_REAL,001,16,
images/fcloud65-35_D1.7_9.tif,1.7,1,,,,,,,,,,,,,0,130,130,86,,,,,,,,,,,1,space,1,0.419,1.61715182522,,,,,,,,,,,,,,,,,,2019_Feb_07_1733,59.76316654956823,Cloud_Experiment_FR_REAL,001,16,
images/fcloud65-35_D1.1_7.tif,1.1,1,,,,,,,,,,,,,0,131,131,60,,,,,,,,,,,None,None,None,8.862,,,,,,,,,,,,,,,,,,,2019_Feb_07_1733,59.76316654956823,Cloud_Experiment_FR_REAL,001,16,
images/fcloud80-20_D1.1_9.tif,1.1,2,,,,,,,,,,,,,0,132,132,110,,,,,,,,,,,1,space,3,0.585,6.94728652365,,,,,,,,,,,,,,,,,,2019_Feb_07_1733,59.76316654956823,Cloud_Experiment_FR_REAL,001,16,
images/fcloud65-35_D1.2_10.tif,1.2,1,,,,,,,,,,,,,0,133,133,67,,,,,,,,,,,1,space,3,1.0,8.13220676,,,,,,,,,,,,,,,,,,2019_Feb_07_1733,59.76316654956823,Cloud_Experiment_FR_REAL,001,16,
images/fcloud_D1.5_7.tif,1.5,0,,,,,,,,,,,,,0,134,134,28,,,,,,,,,,,1,space,2,0.652,6.5892981526,,,,,,,,,,,,,,,,,,2019_Feb_07_1733,59.76316654956823,Cloud_Experiment_FR_REAL,001,16,
images/fcloud_D1.3_10.tif,1.3,0,,,,,,,,,,,,,0,135,135,23,,,,,,,,,,,2,space,3,0.553,3.61262658017,,,,,,,,,,,,,,,,,,2019_Feb_07_1733,59.76316654956823,Cloud_Experiment_FR_REAL,001,16,
images/fcloud_D1.5_10.tif,1.5,0,,,,,,,,,,,,,0,136,136,31,,,,,,,,,,,2,space,2,1.185,6.6941688956,,,,,,,,,,,,,,,,,,2019_Feb_07_1733,59.76316654956823,Cloud_Experiment_FR_REAL,001,16,
images/fcloud80-20_D1.6_9.tif,1.6,2,,,,,,,,,,,,,0,137,137,130,,,,,,,,,,,None,None,None,11.375,,,,,,,,,,,,,,,,,,,2019_Feb_07_1733,59.76316654956823,Cloud_Experiment_FR_REAL,001,16,
images/fcloud_D1.8_10.tif,1.8,0,,,,,,,,,,,,,0,138,138,43,,,,,,,,,,,None,space,None,20.336,2.83871662547,,,,,,,,,,,,,,,,,,2019_Feb_07_1733,59.76316654956823,Cloud_Experiment_FR_REAL,001,16,
images/fcloud80-20_D1.9_10.tif,1.9,2,,,,,,,,,,,,,0,139,139,143,,,,,,,,,,,1,space,2,0.635,7.13036900561,,,,,,,,,,,,,,,,,,2019_Feb_07_1733,59.76316654956823,Cloud_Experiment_FR_REAL,001,16,
images/fcloud_D1_9.tif,1.0,0,,,,,,,,,,,,,0,140,140,10,,,,,,,,,,,1,space,2,0.618,7.82385214895,,,,,,,,,,,,,,,,,,2019_Feb_07_1733,59.76316654956823,Cloud_Experiment_FR_REAL,001,16,
images/fcloud_D1.1_7.tif,1.1,0,,,,,,,,,,,,,0,141,141,12,,,,,,,,,,,None,None,None,9.476,,,,,,,,,,,,,,,,,,,2019_Feb_07_1733,59.76316654956823,Cloud_Experiment_FR_REAL,001,16,
images/fcloud_D1.3_9.tif,1.3,0,,,,,,,,,,,,,0,142,142,22,,,,,,,,,,,3,space,4,1.137,4.25424649753,,,,,,,,,,,,,,,,,,2019_Feb_07_1733,59.76316654956823,Cloud_Experiment_FR_REAL,001,16,
images/fcloud65-35_D1.5_10.tif,1.5,1,,,,,,,,,,,,,0,143,143,79,,,,,,,,,,,2,space,2,0.736,5.96694920969,,,,,,,,,,,,,,,,,,2019_Feb_07_1733,59.76316654956823,Cloud_Experiment_FR_REAL,001,16,
,,,,,,,,,,,,,,,,,,,,,,,,,4,4.685,,,,,,,,,,,,,,,,,,,,,,,,,2019_Feb_07_1733,59.76316654956823,Cloud_Experiment_FR_REAL,001,16,
,,,,,,,,,,,,,,,,,,,,,,,,,,,,,,,,,,4,,,,,,,,,,,,,,,,,2019_Feb_07_1733,59.76316654956823,Cloud_Experiment_FR_REAL,001,16,
,,,,,,,,,,,,,,,,,,,,,,,,,,,,,,,,,,,4,,,,,,,,,,,,,,,,2019_Feb_07_1733,59.76316654956823,Cloud_Experiment_FR_REAL,001,16,
,,,,,,,,,,,,,,,,,,,,,,,,,,,,,,,,,,,,3,,,,,,,,,,,,,,,2019_Feb_07_1733,59.76316654956823,Cloud_Experiment_FR_REAL,001,16,
,,,,,,,,,,,,,,,,,,,,,,,,,,,,,,,,,,,,,5,,,,,,,,,,,,,,2019_Feb_07_1733,59.76316654956823,Cloud_Experiment_FR_REAL,001,16,
,,,,,,,,,,,,,,,,,,,,,,,,,,,,,,,,,,,,,,5,,,,,,,,,,,,,2019_Feb_07_1733,59.76316654956823,Cloud_Experiment_FR_REAL,001,16,
,,,,,,,,,,,,,,,,,,,,,,,,,,,,,,,,,,,,,,,4,,,,,,,,,,,,2019_Feb_07_1733,59.76316654956823,Cloud_Experiment_FR_REAL,001,16,
,,,,,,,,,,,,,,,,,,,,,,,,,,,,,,,,,,,,,,,,4,,,,,,,,,,,2019_Feb_07_1733,59.76316654956823,Cloud_Experiment_FR_REAL,001,16,
,,,,,,,,,,,,,,,,,,,,,,,,,,,,,,,,,,,,,,,,,7,,,,,,,,,,2019_Feb_07_1733,59.76316654956823,Cloud_Experiment_FR_REAL,001,16,
,,,,,,,,,,,,,,,,,,,,,,,,,,,,,,,,,,,,,,,,,,7,,,,,,,,,2019_Feb_07_1733,59.76316654956823,Cloud_Experiment_FR_REAL,001,16,
,,,,,,,,,,,,,,,,,,,,,,,,,,,,,,,,,,,,,,,,,,,4,,,,,,,,2019_Feb_07_1733,59.76316654956823,Cloud_Experiment_FR_REAL,001,16,
,,,,,,,,,,,,,,,,,,,,,,,,,,,,,,,,,,,,,,,,,,,,,,,,,,2,2019_Feb_07_1733,59.76316654956823,Cloud_Experiment_FR_REAL,001,16,
