ImageFile,FD,Contrast,trials_4.thisRepN,trials_4.thisTrialN,trials_4.thisN,trials_4.thisIndex,trials.thisRepN,trials.thisTrialN,trials.thisN,trials.thisIndex,trials_2.thisRepN,trials_2.thisTrialN,trials_2.thisN,trials_2.thisIndex,trials_3.thisRepN,trials_3.thisTrialN,trials_3.thisN,trials_3.thisIndex,end_instructions.keys,end_instructions.rt,key_resp_4.keys,key_resp_4.rt,key_resp_6.keys,key_resp_6.rt,Fatigue.response,Fatigue.rt,key_resp_5.keys,key_resp_5.rt,n_objets.response,reaction_time.keys,vividness.response,vividness.rt,reaction_time.rt,Flow01.response,Flow02.response,Flow03.response,Flow04.response,Flow05.response,Flow06.response,Flow07.response,Flow08.response,Flow09.response,Flow10.response,key_resp_2.keys,key_resp_2.rt,key_resp_8.keys,key_resp_8.rt,key_resp_3.keys,key_resp_3.rt,Redondance_question.response,date,frameRate,expName,session,participant,
,,,,,,,,,,,,,,,,,,,space,19.9929152643,,,,,,,,,,,,,,,,,,,,,,,,,,,,,,,2019_Feb_08_1706,60.6871691287296,Cloud_Experiment_FR_REAL,001,17,
,,,,,,,,,,,,,,,,,,,,,space,33.6060116927,,,,,,,,,,,,,,,,,,,,,,,,,,,,,2019_Feb_08_1706,60.6871691287296,Cloud_Experiment_FR_REAL,001,17,
,,,,,,,,,,,,,,,,,,,,,,,space,149.956562171,,,,,,,,,,,,,,,,,,,,,,,,,,,2019_Feb_08_1706,60.6871691287296,Cloud_Experiment_FR_REAL,001,17,
,,,,,,,,,,,,,,,,,,,,,,,,,7,6.581,,,,,,,,,,,,,,,,,,,,,,,,,2019_Feb_08_1706,60.6871691287296,Cloud_Experiment_FR_REAL,001,17,
,,,,,,,,,,,,,,,,,,,,,,,,,,,space,3.58127680491,,,,,,,,,,,,,,,,,,,,,,,2019_Feb_08_1706,60.6871691287296,Cloud_Experiment_FR_REAL,001,17,
pratique/fcloud65-35_D1.9_29,1.9,1,0,0,0,7,,,,,,,,,,,,,,,,,,,,,,,None,None,None,225.377,,,,,,,,,,,,,,,,,,,2019_Feb_08_1706,60.6871691287296,Cloud_Experiment_FR_REAL,001,17,
pratique/fcloud_D0.8_30,0.8,0,0,1,1,0,,,,,,,,,,,,,,,,,,,,,,,1,space,2,5.882,5.32330390695,,,,,,,,,,,,,,,,,,2019_Feb_08_1706,60.6871691287296,Cloud_Experiment_FR_REAL,001,17,
pratique/fcloud65-35_D1.6_30,1.6,1,0,2,2,2,,,,,,,,,,,,,,,,,,,,,,,1,space,4,3.332,3.18146011769,,,,,,,,,,,,,,,,,,2019_Feb_08_1706,60.6871691287296,Cloud_Experiment_FR_REAL,001,17,
pratique/fcloud80-20_D1.8_30,1.8,2,0,3,3,4,,,,,,,,,,,,,,,,,,,,,,,1,space,3,4.381,5.3845851738,,,,,,,,,,,,,,,,,,2019_Feb_08_1706,60.6871691287296,Cloud_Experiment_FR_REAL,001,17,
pratique/fcloud65-35_D1.2_30,1.2,1,0,4,4,3,,,,,,,,,,,,,,,,,,,,,,,2,space,5,4.099,3.4598487952,,,,,,,,,,,,,,,,,,2019_Feb_08_1706,60.6871691287296,Cloud_Experiment_FR_REAL,001,17,
pratique/fcloud80-20_D1.5_30,1.5,2,0,5,5,8,,,,,,,,,,,,,,,,,,,,,,,3,space,3,10.397,6.05445870035,,,,,,,,,,,,,,,,,,2019_Feb_08_1706,60.6871691287296,Cloud_Experiment_FR_REAL,001,17,
pratique/fcloud_D1.4_30,1.4,0,0,6,6,1,,,,,,,,,,,,,,,,,,,,,,,None,None,None,19.238,,,,,,,,,,,,,,,,,,,2019_Feb_08_1706,60.6871691287296,Cloud_Experiment_FR_REAL,001,17,
pratique/fcloud_D1.6_28,1.6,0,0,7,7,5,,,,,,,,,,,,,,,,,,,,,,,1,space,2,3.067,6.44773966493,,,,,,,,,,,,,,,,,,2019_Feb_08_1706,60.6871691287296,Cloud_Experiment_FR_REAL,001,17,
pratique/fcloud65-35_D1.3_30,1.3,1,0,8,8,6,,,,,,,,,,,,,,,,,,,,,,,None,None,None,14.205,,,,,,,,,,,,,,,,,,,2019_Feb_08_1706,60.6871691287296,Cloud_Experiment_FR_REAL,001,17,
pratique/fcloud80-20_D1_30,1.0,2,0,9,9,9,,,,,,,,,,,,,,,,,,,,,,,1,space,2,3.466,4.53196278843,,,,,,,,,,,,,,,,,,2019_Feb_08_1706,60.6871691287296,Cloud_Experiment_FR_REAL,001,17,
,,,,,,,,,,,,,,,,,,,,,,,,,,,,,,,,,,3,,,,,,,,,,,,,,,,,2019_Feb_08_1706,60.6871691287296,Cloud_Experiment_FR_REAL,001,17,
,,,,,,,,,,,,,,,,,,,,,,,,,,,,,,,,,,,2,,,,,,,,,,,,,,,,2019_Feb_08_1706,60.6871691287296,Cloud_Experiment_FR_REAL,001,17,
,,,,,,,,,,,,,,,,,,,,,,,,,,,,,,,,,,,,5,,,,,,,,,,,,,,,2019_Feb_08_1706,60.6871691287296,Cloud_Experiment_FR_REAL,001,17,
,,,,,,,,,,,,,,,,,,,,,,,,,,,,,,,,,,,,,7,,,,,,,,,,,,,,2019_Feb_08_1706,60.6871691287296,Cloud_Experiment_FR_REAL,001,17,
,,,,,,,,,,,,,,,,,,,,,,,,,,,,,,,,,,,,,,6,,,,,,,,,,,,,2019_Feb_08_1706,60.6871691287296,Cloud_Experiment_FR_REAL,001,17,
,,,,,,,,,,,,,,,,,,,,,,,,,,,,,,,,,,,,,,,6,,,,,,,,,,,,2019_Feb_08_1706,60.6871691287296,Cloud_Experiment_FR_REAL,001,17,
,,,,,,,,,,,,,,,,,,,,,,,,,,,,,,,,,,,,,,,,4,,,,,,,,,,,2019_Feb_08_1706,60.6871691287296,Cloud_Experiment_FR_REAL,001,17,
,,,,,,,,,,,,,,,,,,,,,,,,,,,,,,,,,,,,,,,,,4,,,,,,,,,,2019_Feb_08_1706,60.6871691287296,Cloud_Experiment_FR_REAL,001,17,
,,,,,,,,,,,,,,,,,,,,,,,,,,,,,,,,,,,,,,,,,,4,,,,,,,,,2019_Feb_08_1706,60.6871691287296,Cloud_Experiment_FR_REAL,001,17,
,,,,,,,,,,,,,,,,,,,,,,,,,,,,,,,,,,,,,,,,,,,2,,,,,,,,2019_Feb_08_1706,60.6871691287296,Cloud_Experiment_FR_REAL,001,17,
,,,,,,,,,,,,,,,,,,,,,,,,,,,,,,,,,,,,,,,,,,,,space,1.38281373295,,,,,,2019_Feb_08_1706,60.6871691287296,Cloud_Experiment_FR_REAL,001,17,
images/fcloud80-20_D0.9_1.tif,0.9,2,,,,,0,0,0,75,,,,,,,,,,,,,,,,,,,1,space,4,3.133,6.94917311333,,,,,,,,,,,,,,,,,,2019_Feb_08_1706,60.6871691287296,Cloud_Experiment_FR_REAL,001,17,
images/fcloud65-35_D1.6_1.tif,1.6,1,,,,,0,1,1,60,,,,,,,,,,,,,,,,,,,1,space,2,6.446,7.62404687377,,,,,,,,,,,,,,,,,,2019_Feb_08_1706,60.6871691287296,Cloud_Experiment_FR_REAL,001,17,
images/fcloud_D0.8_1.tif,0.8,0,,,,,0,2,2,0,,,,,,,,,,,,,,,,,,,2,space,4,2.75,2.11543307523,,,,,,,,,,,,,,,,,,2019_Feb_08_1706,60.6871691287296,Cloud_Experiment_FR_REAL,001,17,
images/fcloud_D1.9_1.tif,1.9,0,,,,,0,3,3,33,,,,,,,,,,,,,,,,,,,1,space,4,2.1,4.32043701026,,,,,,,,,,,,,,,,,,2019_Feb_08_1706,60.6871691287296,Cloud_Experiment_FR_REAL,001,17,
images/fcloud65-35_D1.6_2.tif,1.6,1,,,,,0,4,4,61,,,,,,,,,,,,,,,,,,,None,None,None,10.991,,,,,,,,,,,,,,,,,,,2019_Feb_08_1706,60.6871691287296,Cloud_Experiment_FR_REAL,001,17,
images/fcloud_D1.6_2.tif,1.6,0,,,,,0,5,5,25,,,,,,,,,,,,,,,,,,,2,space,5,1.735,2.01734171796,,,,,,,,,,,,,,,,,,2019_Feb_08_1706,60.6871691287296,Cloud_Experiment_FR_REAL,001,17,
images/fcloud80-20_D1.9_2.tif,1.9,2,,,,,0,6,6,106,,,,,,,,,,,,,,,,,,,1,space,4,3.168,6.49171314167,,,,,,,,,,,,,,,,,,2019_Feb_08_1706,60.6871691287296,Cloud_Experiment_FR_REAL,001,17,
images/fcloud65-35_D1.8_3.tif,1.8,1,,,,,0,7,7,68,,,,,,,,,,,,,,,,,,,1,space,4,2.233,2.08559617016,,,,,,,,,,,,,,,,,,2019_Feb_08_1706,60.6871691287296,Cloud_Experiment_FR_REAL,001,17,
images/fcloud80-20_D1.8_1.tif,1.8,2,,,,,0,8,8,102,,,,,,,,,,,,,,,,,,,None,None,None,10.942,,,,,,,,,,,,,,,,,,,2019_Feb_08_1706,60.6871691287296,Cloud_Experiment_FR_REAL,001,17,
images/fcloud_D1.9_2.tif,1.9,0,,,,,0,9,9,34,,,,,,,,,,,,,,,,,,,None,None,None,19.685,,,,,,,,,,,,,,,,,,,2019_Feb_08_1706,60.6871691287296,Cloud_Experiment_FR_REAL,001,17,
images/fcloud_D1_1.tif,1.0,0,,,,,0,10,10,6,,,,,,,,,,,,,,,,,,,1,space,1,2.27,6.62815162004,,,,,,,,,,,,,,,,,,2019_Feb_08_1706,60.6871691287296,Cloud_Experiment_FR_REAL,001,17,
images/fcloud80-20_D1.5_1.tif,1.5,2,,,,,0,11,11,93,,,,,,,,,,,,,,,,,,,1,space,2,1.171,5.07586044178,,,,,,,,,,,,,,,,,,2019_Feb_08_1706,60.6871691287296,Cloud_Experiment_FR_REAL,001,17,
images/fcloud_D0.8_2.tif,0.8,0,,,,,0,12,12,1,,,,,,,,,,,,,,,,,,,2,space,3,1.518,3.43680515536,,,,,,,,,,,,,,,,,,2019_Feb_08_1706,60.6871691287296,Cloud_Experiment_FR_REAL,001,17,
images/fcloud65-35_D1.8_1.tif,1.8,1,,,,,0,13,13,66,,,,,,,,,,,,,,,,,,,1,space,3,1.835,6.58738071949,,,,,,,,,,,,,,,,,,2019_Feb_08_1706,60.6871691287296,Cloud_Experiment_FR_REAL,001,17,
images/fcloud_D1.3_2.tif,1.3,0,,,,,0,14,14,16,,,,,,,,,,,,,,,,,,,2,space,4,1.571,5.04165764933,,,,,,,,,,,,,,,,,,2019_Feb_08_1706,60.6871691287296,Cloud_Experiment_FR_REAL,001,17,
images/fcloud65-35_D1.7_1.tif,1.7,1,,,,,0,15,15,63,,,,,,,,,,,,,,,,,,,1,space,3,3.567,5.69634335721,,,,,,,,,,,,,,,,,,2019_Feb_08_1706,60.6871691287296,Cloud_Experiment_FR_REAL,001,17,
images/fcloud80-20_D1.7_3.tif,1.7,2,,,,,0,16,16,101,,,,,,,,,,,,,,,,,,,None,None,None,12.257,,,,,,,,,,,,,,,,,,,2019_Feb_08_1706,60.6871691287296,Cloud_Experiment_FR_REAL,001,17,
images/fcloud_D1.3_3.tif,1.3,0,,,,,0,17,17,17,,,,,,,,,,,,,,,,,,,2,space,4,2.353,3.34480588941,,,,,,,,,,,,,,,,,,2019_Feb_08_1706,60.6871691287296,Cloud_Experiment_FR_REAL,001,17,
images/fcloud_D1.7_2.tif,1.7,0,,,,,0,18,18,28,,,,,,,,,,,,,,,,,,,None,None,None,11.408,,,,,,,,,,,,,,,,,,,2019_Feb_08_1706,60.6871691287296,Cloud_Experiment_FR_REAL,001,17,
images/fcloud65-35_D1.5_2.tif,1.5,1,,,,,0,19,19,58,,,,,,,,,,,,,,,,,,,None,None,None,20.269,,,,,,,,,,,,,,,,,,,2019_Feb_08_1706,60.6871691287296,Cloud_Experiment_FR_REAL,001,17,
images/fcloud_D1_2.tif,1.0,0,,,,,0,20,20,7,,,,,,,,,,,,,,,,,,,None,None,None,28.993,,,,,,,,,,,,,,,,,,,2019_Feb_08_1706,60.6871691287296,Cloud_Experiment_FR_REAL,001,17,
images/fcloud80-20_D1.4_1.tif,1.4,2,,,,,0,21,21,90,,,,,,,,,,,,,,,,,,,2,space,3,2.383,4.50446432934,,,,,,,,,,,,,,,,,,2019_Feb_08_1706,60.6871691287296,Cloud_Experiment_FR_REAL,001,17,
images/fcloud_D1.3_1.tif,1.3,0,,,,,0,22,22,15,,,,,,,,,,,,,,,,,,,2,space,4,4.2,4.29598485376,,,,,,,,,,,,,,,,,,2019_Feb_08_1706,60.6871691287296,Cloud_Experiment_FR_REAL,001,17,
images/fcloud_D1.6_1.tif,1.6,0,,,,,0,23,23,24,,,,,,,,,,,,,,,,,,,2,space,4,2.051,3.84973287024,,,,,,,,,,,,,,,,,,2019_Feb_08_1706,60.6871691287296,Cloud_Experiment_FR_REAL,001,17,
images/fcloud_D1.1_3.tif,1.1,0,,,,,0,24,24,11,,,,,,,,,,,,,,,,,,,None,None,None,10.529,,,,,,,,,,,,,,,,,,,2019_Feb_08_1706,60.6871691287296,Cloud_Experiment_FR_REAL,001,17,
images/fcloud65-35_D1.2_2.tif,1.2,1,,,,,0,25,25,49,,,,,,,,,,,,,,,,,,,2,space,5,1.387,4.8159382391,,,,,,,,,,,,,,,,,,2019_Feb_08_1706,60.6871691287296,Cloud_Experiment_FR_REAL,001,17,
images/fcloud80-20_D1.9_1.tif,1.9,2,,,,,0,26,26,105,,,,,,,,,,,,,,,,,,,1,space,1,1.668,7.50318946759,,,,,,,,,,,,,,,,,,2019_Feb_08_1706,60.6871691287296,Cloud_Experiment_FR_REAL,001,17,
images/fcloud65-35_D1_3.tif,1.0,1,,,,,0,27,27,44,,,,,,,,,,,,,,,,,,,2,space,2,2.083,5.14899843675,,,,,,,,,,,,,,,,,,2019_Feb_08_1706,60.6871691287296,Cloud_Experiment_FR_REAL,001,17,
images/fcloud65-35_D1.7_2.tif,1.7,1,,,,,0,28,28,64,,,,,,,,,,,,,,,,,,,None,None,None,11.41,,,,,,,,,,,,,,,,,,,2019_Feb_08_1706,60.6871691287296,Cloud_Experiment_FR_REAL,001,17,
images/fcloud80-20_D1.1_1.tif,1.1,2,,,,,0,29,29,81,,,,,,,,,,,,,,,,,,,1,space,5,1.617,4.70935362973,,,,,,,,,,,,,,,,,,2019_Feb_08_1706,60.6871691287296,Cloud_Experiment_FR_REAL,001,17,
images/fcloud80-20_D0.9_3.tif,0.9,2,,,,,0,30,30,77,,,,,,,,,,,,,,,,,,,1,space,4,1.886,4.23935374781,,,,,,,,,,,,,,,,,,2019_Feb_08_1706,60.6871691287296,Cloud_Experiment_FR_REAL,001,17,
images/fcloud_D1.9_3.tif,1.9,0,,,,,0,31,31,35,,,,,,,,,,,,,,,,,,,2,space,2,1.284,2.29529087676,,,,,,,,,,,,,,,,,,2019_Feb_08_1706,60.6871691287296,Cloud_Experiment_FR_REAL,001,17,
images/fcloud65-35_D0.9_1.tif,0.9,1,,,,,0,32,32,39,,,,,,,,,,,,,,,,,,,1,space,5,3.535,2.71899168717,,,,,,,,,,,,,,,,,,2019_Feb_08_1706,60.6871691287296,Cloud_Experiment_FR_REAL,001,17,
images/fcloud80-20_D1.7_1.tif,1.7,2,,,,,0,33,33,99,,,,,,,,,,,,,,,,,,,2,space,4,1.485,5.62366184499,,,,,,,,,,,,,,,,,,2019_Feb_08_1706,60.6871691287296,Cloud_Experiment_FR_REAL,001,17,
images/fcloud80-20_D1.2_3.tif,1.2,2,,,,,0,34,34,86,,,,,,,,,,,,,,,,,,,1,space,5,1.137,3.31519773975,,,,,,,,,,,,,,,,,,2019_Feb_08_1706,60.6871691287296,Cloud_Experiment_FR_REAL,001,17,
images/fcloud_D1.4_1.tif,1.4,0,,,,,0,35,35,18,,,,,,,,,,,,,,,,,,,1,space,5,2.135,1.81179905101,,,,,,,,,,,,,,,,,,2019_Feb_08_1706,60.6871691287296,Cloud_Experiment_FR_REAL,001,17,
images/fcloud_D1.8_2.tif,1.8,0,,,,,0,36,36,31,,,,,,,,,,,,,,,,,,,1,None,2,1.385,,,,,,,,,,,,,,,,,,,2019_Feb_08_1706,60.6871691287296,Cloud_Experiment_FR_REAL,001,17,
images/fcloud80-20_D0.9_2.tif,0.9,2,,,,,0,37,37,76,,,,,,,,,,,,,,,,,,,2,space,4,2.369,2.24069954955,,,,,,,,,,,,,,,,,,2019_Feb_08_1706,60.6871691287296,Cloud_Experiment_FR_REAL,001,17,
images/fcloud_D1.1_2.tif,1.1,0,,,,,0,38,38,10,,,,,,,,,,,,,,,,,,,None,None,None,10.973,,,,,,,,,,,,,,,,,,,2019_Feb_08_1706,60.6871691287296,Cloud_Experiment_FR_REAL,001,17,
images/fcloud65-35_D1.2_3.tif,1.2,1,,,,,0,39,39,50,,,,,,,,,,,,,,,,,,,3,space,4,1.933,3.27557832713,,,,,,,,,,,,,,,,,,2019_Feb_08_1706,60.6871691287296,Cloud_Experiment_FR_REAL,001,17,
images/fcloud_D1.2_3.tif,1.2,0,,,,,0,40,40,14,,,,,,,,,,,,,,,,,,,1,space,2,1.286,2.63767247251,,,,,,,,,,,,,,,,,,2019_Feb_08_1706,60.6871691287296,Cloud_Experiment_FR_REAL,001,17,
images/fcloud65-35_D1.4_3.tif,1.4,1,,,,,0,41,41,56,,,,,,,,,,,,,,,,,,,2,space,4,1.304,4.25678593991,,,,,,,,,,,,,,,,,,2019_Feb_08_1706,60.6871691287296,Cloud_Experiment_FR_REAL,001,17,
images/fcloud80-20_D1.7_2.tif,1.7,2,,,,,0,42,42,100,,,,,,,,,,,,,,,,,,,1,space,3,2.766,6.70500676241,,,,,,,,,,,,,,,,,,2019_Feb_08_1706,60.6871691287296,Cloud_Experiment_FR_REAL,001,17,
images/fcloud_D1.4_2.tif,1.4,0,,,,,0,43,43,19,,,,,,,,,,,,,,,,,,,2,space,5,1.769,3.39936534502,,,,,,,,,,,,,,,,,,2019_Feb_08_1706,60.6871691287296,Cloud_Experiment_FR_REAL,001,17,
images/fcloud65-35_D0.8_1.tif,0.8,1,,,,,0,44,44,36,,,,,,,,,,,,,,,,,,,3,space,5,1.987,2.79355310637,,,,,,,,,,,,,,,,,,2019_Feb_08_1706,60.6871691287296,Cloud_Experiment_FR_REAL,001,17,
images/fcloud_D0.9_3.tif,0.9,0,,,,,0,45,45,5,,,,,,,,,,,,,,,,,,,1,space,4,1.484,5.90998859308,,,,,,,,,,,,,,,,,,2019_Feb_08_1706,60.6871691287296,Cloud_Experiment_FR_REAL,001,17,
images/fcloud65-35_D1.9_3.tif,1.9,1,,,,,0,46,46,71,,,,,,,,,,,,,,,,,,,2,space,4,2.319,3.99825169158,,,,,,,,,,,,,,,,,,2019_Feb_08_1706,60.6871691287296,Cloud_Experiment_FR_REAL,001,17,
images/fcloud65-35_D1.3_2.tif,1.3,1,,,,,0,47,47,52,,,,,,,,,,,,,,,,,,,2,space,5,2.035,3.5688057784,,,,,,,,,,,,,,,,,,2019_Feb_08_1706,60.6871691287296,Cloud_Experiment_FR_REAL,001,17,
images/fcloud_D1.5_1.tif,1.5,0,,,,,0,48,48,21,,,,,,,,,,,,,,,,,,,1,space,4,2.699,3.98601301911,,,,,,,,,,,,,,,,,,2019_Feb_08_1706,60.6871691287296,Cloud_Experiment_FR_REAL,001,17,
images/fcloud65-35_D0.9_2.tif,0.9,1,,,,,0,49,49,40,,,,,,,,,,,,,,,,,,,3,space,5,1.72,2.10189332394,,,,,,,,,,,,,,,,,,2019_Feb_08_1706,60.6871691287296,Cloud_Experiment_FR_REAL,001,17,
images/fcloud_D1.8_3.tif,1.8,0,,,,,0,50,50,32,,,,,,,,,,,,,,,,,,,1,space,2,2.468,6.97663713072,,,,,,,,,,,,,,,,,,2019_Feb_08_1706,60.6871691287296,Cloud_Experiment_FR_REAL,001,17,
images/fcloud65-35_D1.1_3.tif,1.1,1,,,,,0,51,51,47,,,,,,,,,,,,,,,,,,,1,space,5,0.877,1.45244945656,,,,,,,,,,,,,,,,,,2019_Feb_08_1706,60.6871691287296,Cloud_Experiment_FR_REAL,001,17,
images/fcloud65-35_D1.1_1.tif,1.1,1,,,,,0,52,52,45,,,,,,,,,,,,,,,,,,,1,space,4,1.582,6.86506668094,,,,,,,,,,,,,,,,,,2019_Feb_08_1706,60.6871691287296,Cloud_Experiment_FR_REAL,001,17,
images/fcloud65-35_D1.6_3.tif,1.6,1,,,,,0,53,53,62,,,,,,,,,,,,,,,,,,,1,space,5,0.967,3.82513831987,,,,,,,,,,,,,,,,,,2019_Feb_08_1706,60.6871691287296,Cloud_Experiment_FR_REAL,001,17,
images/fcloud65-35_D1.5_1.tif,1.5,1,,,,,0,54,54,57,,,,,,,,,,,,,,,,,,,None,None,None,9.711,,,,,,,,,,,,,,,,,,,2019_Feb_08_1706,60.6871691287296,Cloud_Experiment_FR_REAL,001,17,
images/fcloud80-20_D0.8_2.tif,0.8,2,,,,,0,55,55,73,,,,,,,,,,,,,,,,,,,1,space,4,1.351,3.05611345032,,,,,,,,,,,,,,,,,,2019_Feb_08_1706,60.6871691287296,Cloud_Experiment_FR_REAL,001,17,
images/fcloud65-35_D1.5_3.tif,1.5,1,,,,,0,56,56,59,,,,,,,,,,,,,,,,,,,1,space,4,1.502,4.94183648971,,,,,,,,,,,,,,,,,,2019_Feb_08_1706,60.6871691287296,Cloud_Experiment_FR_REAL,001,17,
images/fcloud_D1.5_3.tif,1.5,0,,,,,0,57,57,23,,,,,,,,,,,,,,,,,,,2,space,5,2.802,4.01481615519,,,,,,,,,,,,,,,,,,2019_Feb_08_1706,60.6871691287296,Cloud_Experiment_FR_REAL,001,17,
images/fcloud_D1.5_2.tif,1.5,0,,,,,0,58,58,22,,,,,,,,,,,,,,,,,,,1,space,4,2.05,4.23121416697,,,,,,,,,,,,,,,,,,2019_Feb_08_1706,60.6871691287296,Cloud_Experiment_FR_REAL,001,17,
images/fcloud80-20_D1_3.tif,1.0,2,,,,,0,59,59,80,,,,,,,,,,,,,,,,,,,None,None,None,11.309,,,,,,,,,,,,,,,,,,,2019_Feb_08_1706,60.6871691287296,Cloud_Experiment_FR_REAL,001,17,
images/fcloud80-20_D1.1_3.tif,1.1,2,,,,,0,60,60,83,,,,,,,,,,,,,,,,,,,2,space,5,0.922,2.85259565443,,,,,,,,,,,,,,,,,,2019_Feb_08_1706,60.6871691287296,Cloud_Experiment_FR_REAL,001,17,
images/fcloud80-20_D1.5_3.tif,1.5,2,,,,,0,61,61,95,,,,,,,,,,,,,,,,,,,2,space,4,1.97,4.56987810158,,,,,,,,,,,,,,,,,,2019_Feb_08_1706,60.6871691287296,Cloud_Experiment_FR_REAL,001,17,
images/fcloud80-20_D1.9_3.tif,1.9,2,,,,,0,62,62,107,,,,,,,,,,,,,,,,,,,None,None,None,10.782,,,,,,,,,,,,,,,,,,,2019_Feb_08_1706,60.6871691287296,Cloud_Experiment_FR_REAL,001,17,
images/fcloud65-35_D1.1_2.tif,1.1,1,,,,,0,63,63,46,,,,,,,,,,,,,,,,,,,2,space,3,1.519,4.65501264832,,,,,,,,,,,,,,,,,,2019_Feb_08_1706,60.6871691287296,Cloud_Experiment_FR_REAL,001,17,
images/fcloud65-35_D1.9_2.tif,1.9,1,,,,,0,64,64,70,,,,,,,,,,,,,,,,,,,1,space,5,1.749,2.37837793375,,,,,,,,,,,,,,,,,,2019_Feb_08_1706,60.6871691287296,Cloud_Experiment_FR_REAL,001,17,
images/fcloud80-20_D1.1_2.tif,1.1,2,,,,,0,65,65,82,,,,,,,,,,,,,,,,,,,1,space,2,2.269,5.5442518387,,,,,,,,,,,,,,,,,,2019_Feb_08_1706,60.6871691287296,Cloud_Experiment_FR_REAL,001,17,
images/fcloud_D1.4_3.tif,1.4,0,,,,,0,66,66,20,,,,,,,,,,,,,,,,,,,2,space,3,5.818,4.8931902335,,,,,,,,,,,,,,,,,,2019_Feb_08_1706,60.6871691287296,Cloud_Experiment_FR_REAL,001,17,
images/fcloud65-35_D1.4_2.tif,1.4,1,,,,,0,67,67,55,,,,,,,,,,,,,,,,,,,2,space,5,1.442,2.90941079287,,,,,,,,,,,,,,,,,,2019_Feb_08_1706,60.6871691287296,Cloud_Experiment_FR_REAL,001,17,
images/fcloud80-20_D1.8_2.tif,1.8,2,,,,,0,68,68,103,,,,,,,,,,,,,,,,,,,1,space,4,1.136,4.21501005755,,,,,,,,,,,,,,,,,,2019_Feb_08_1706,60.6871691287296,Cloud_Experiment_FR_REAL,001,17,
images/fcloud_D1.7_3.tif,1.7,0,,,,,0,69,69,29,,,,,,,,,,,,,,,,,,,2,space,3,2.017,3.09492630733,,,,,,,,,,,,,,,,,,2019_Feb_08_1706,60.6871691287296,Cloud_Experiment_FR_REAL,001,17,
images/fcloud65-35_D1.9_1.tif,1.9,1,,,,,0,70,70,69,,,,,,,,,,,,,,,,,,,1,space,2,1.9,6.53413056745,,,,,,,,,,,,,,,,,,2019_Feb_08_1706,60.6871691287296,Cloud_Experiment_FR_REAL,001,17,
images/fcloud_D0.8_3.tif,0.8,0,,,,,0,71,71,2,,,,,,,,,,,,,,,,,,,1,space,5,1.035,3.72474964126,,,,,,,,,,,,,,,,,,2019_Feb_08_1706,60.6871691287296,Cloud_Experiment_FR_REAL,001,17,
images/fcloud80-20_D1.3_2.tif,1.3,2,,,,,0,72,72,88,,,,,,,,,,,,,,,,,,,1,space,5,2.381,4.08613181766,,,,,,,,,,,,,,,,,,2019_Feb_08_1706,60.6871691287296,Cloud_Experiment_FR_REAL,001,17,
images/fcloud80-20_D1.3_3.tif,1.3,2,,,,,0,73,73,89,,,,,,,,,,,,,,,,,,,1,space,4,2.151,5.46288635896,,,,,,,,,,,,,,,,,,2019_Feb_08_1706,60.6871691287296,Cloud_Experiment_FR_REAL,001,17,
images/fcloud80-20_D1_1.tif,1.0,2,,,,,0,74,74,78,,,,,,,,,,,,,,,,,,,2,space,3,1.717,2.78029454441,,,,,,,,,,,,,,,,,,2019_Feb_08_1706,60.6871691287296,Cloud_Experiment_FR_REAL,001,17,
images/fcloud80-20_D1.5_2.tif,1.5,2,,,,,0,75,75,94,,,,,,,,,,,,,,,,,,,2,space,4,3.482,3.87800549937,,,,,,,,,,,,,,,,,,2019_Feb_08_1706,60.6871691287296,Cloud_Experiment_FR_REAL,001,17,
images/fcloud65-35_D1.3_1.tif,1.3,1,,,,,0,76,76,51,,,,,,,,,,,,,,,,,,,2,space,5,0.954,3.56569830305,,,,,,,,,,,,,,,,,,2019_Feb_08_1706,60.6871691287296,Cloud_Experiment_FR_REAL,001,17,
images/fcloud80-20_D1.6_3.tif,1.6,2,,,,,0,77,77,98,,,,,,,,,,,,,,,,,,,2,space,4,1.769,2.664346384,,,,,,,,,,,,,,,,,,2019_Feb_08_1706,60.6871691287296,Cloud_Experiment_FR_REAL,001,17,
images/fcloud80-20_D1_2.tif,1.0,2,,,,,0,78,78,79,,,,,,,,,,,,,,,,,,,1,space,3,1.586,6.39205853664,,,,,,,,,,,,,,,,,,2019_Feb_08_1706,60.6871691287296,Cloud_Experiment_FR_REAL,001,17,
images/fcloud_D1.8_1.tif,1.8,0,,,,,0,79,79,30,,,,,,,,,,,,,,,,,,,2,space,5,1.934,2.27751015383,,,,,,,,,,,,,,,,,,2019_Feb_08_1706,60.6871691287296,Cloud_Experiment_FR_REAL,001,17,
images/fcloud65-35_D1.2_1.tif,1.2,1,,,,,0,80,80,48,,,,,,,,,,,,,,,,,,,1,space,4,1.903,6.11541508313,,,,,,,,,,,,,,,,,,2019_Feb_08_1706,60.6871691287296,Cloud_Experiment_FR_REAL,001,17,
images/fcloud80-20_D1.4_2.tif,1.4,2,,,,,0,81,81,91,,,,,,,,,,,,,,,,,,,1,space,4,1.204,6.4137059974,,,,,,,,,,,,,,,,,,2019_Feb_08_1706,60.6871691287296,Cloud_Experiment_FR_REAL,001,17,
images/fcloud65-35_D1_1.tif,1.0,1,,,,,0,82,82,42,,,,,,,,,,,,,,,,,,,1,space,2,1.57,6.50467612082,,,,,,,,,,,,,,,,,,2019_Feb_08_1706,60.6871691287296,Cloud_Experiment_FR_REAL,001,17,
images/fcloud65-35_D0.8_3.tif,0.8,1,,,,,0,83,83,38,,,,,,,,,,,,,,,,,,,2,space,4,2.001,2.33807071263,,,,,,,,,,,,,,,,,,2019_Feb_08_1706,60.6871691287296,Cloud_Experiment_FR_REAL,001,17,
images/fcloud_D1.2_2.tif,1.2,0,,,,,0,84,84,13,,,,,,,,,,,,,,,,,,,None,None,None,11.474,,,,,,,,,,,,,,,,,,,2019_Feb_08_1706,60.6871691287296,Cloud_Experiment_FR_REAL,001,17,
images/fcloud65-35_D1.3_3.tif,1.3,1,,,,,0,85,85,53,,,,,,,,,,,,,,,,,,,1,space,4,2.401,4.24049495475,,,,,,,,,,,,,,,,,,2019_Feb_08_1706,60.6871691287296,Cloud_Experiment_FR_REAL,001,17,
images/fcloud80-20_D1.6_1.tif,1.6,2,,,,,0,86,86,96,,,,,,,,,,,,,,,,,,,None,None,None,11.362,,,,,,,,,,,,,,,,,,,2019_Feb_08_1706,60.6871691287296,Cloud_Experiment_FR_REAL,001,17,
images/fcloud80-20_D1.3_1.tif,1.3,2,,,,,0,87,87,87,,,,,,,,,,,,,,,,,,,1,space,5,2.216,1.40401087946,,,,,,,,,,,,,,,,,,2019_Feb_08_1706,60.6871691287296,Cloud_Experiment_FR_REAL,001,17,
images/fcloud_D1.1_1.tif,1.1,0,,,,,0,88,88,9,,,,,,,,,,,,,,,,,,,1,space,2,1.55,6.55553025252,,,,,,,,,,,,,,,,,,2019_Feb_08_1706,60.6871691287296,Cloud_Experiment_FR_REAL,001,17,
images/fcloud_D0.9_2.tif,0.9,0,,,,,0,89,89,4,,,,,,,,,,,,,,,,,,,2,space,5,0.968,2.87046016857,,,,,,,,,,,,,,,,,,2019_Feb_08_1706,60.6871691287296,Cloud_Experiment_FR_REAL,001,17,
images/fcloud80-20_D1.4_3.tif,1.4,2,,,,,0,90,90,92,,,,,,,,,,,,,,,,,,,1,space,5,1.098,4.77722305304,,,,,,,,,,,,,,,,,,2019_Feb_08_1706,60.6871691287296,Cloud_Experiment_FR_REAL,001,17,
images/fcloud_D1_3.tif,1.0,0,,,,,0,91,91,8,,,,,,,,,,,,,,,,,,,2,space,5,0.921,1.28066595073,,,,,,,,,,,,,,,,,,2019_Feb_08_1706,60.6871691287296,Cloud_Experiment_FR_REAL,001,17,
images/fcloud65-35_D1_2.tif,1.0,1,,,,,0,92,92,43,,,,,,,,,,,,,,,,,,,1,space,2,3.033,7.90694023424,,,,,,,,,,,,,,,,,,2019_Feb_08_1706,60.6871691287296,Cloud_Experiment_FR_REAL,001,17,
images/fcloud80-20_D1.6_2.tif,1.6,2,,,,,0,93,93,97,,,,,,,,,,,,,,,,,,,1,space,1,1.656,6.86757682206,,,,,,,,,,,,,,,,,,2019_Feb_08_1706,60.6871691287296,Cloud_Experiment_FR_REAL,001,17,
images/fcloud80-20_D0.8_3.tif,0.8,2,,,,,0,94,94,74,,,,,,,,,,,,,,,,,,,None,None,None,10.29,,,,,,,,,,,,,,,,,,,2019_Feb_08_1706,60.6871691287296,Cloud_Experiment_FR_REAL,001,17,
images/fcloud80-20_D0.8_1.tif,0.8,2,,,,,0,95,95,72,,,,,,,,,,,,,,,,,,,1,space,4,0.901,3.73032921762,,,,,,,,,,,,,,,,,,2019_Feb_08_1706,60.6871691287296,Cloud_Experiment_FR_REAL,001,17,
images/fcloud_D1.6_3.tif,1.6,0,,,,,0,96,96,26,,,,,,,,,,,,,,,,,,,2,space,2,1.235,4.01824954292,,,,,,,,,,,,,,,,,,2019_Feb_08_1706,60.6871691287296,Cloud_Experiment_FR_REAL,001,17,
images/fcloud65-35_D0.8_2.tif,0.8,1,,,,,0,97,97,37,,,,,,,,,,,,,,,,,,,2,space,3,1.586,3.07503589406,,,,,,,,,,,,,,,,,,2019_Feb_08_1706,60.6871691287296,Cloud_Experiment_FR_REAL,001,17,
images/fcloud80-20_D1.2_2.tif,1.2,2,,,,,0,98,98,85,,,,,,,,,,,,,,,,,,,2,space,3,1.707,4.64975230163,,,,,,,,,,,,,,,,,,2019_Feb_08_1706,60.6871691287296,Cloud_Experiment_FR_REAL,001,17,
images/fcloud65-35_D1.8_2.tif,1.8,1,,,,,0,99,99,67,,,,,,,,,,,,,,,,,,,None,None,None,11.391,,,,,,,,,,,,,,,,,,,2019_Feb_08_1706,60.6871691287296,Cloud_Experiment_FR_REAL,001,17,
images/fcloud80-20_D1.8_3.tif,1.8,2,,,,,0,100,100,104,,,,,,,,,,,,,,,,,,,1,space,3,2.485,4.47753030492,,,,,,,,,,,,,,,,,,2019_Feb_08_1706,60.6871691287296,Cloud_Experiment_FR_REAL,001,17,
images/fcloud_D1.7_1.tif,1.7,0,,,,,0,101,101,27,,,,,,,,,,,,,,,,,,,1,space,5,0.789,4.40893194859,,,,,,,,,,,,,,,,,,2019_Feb_08_1706,60.6871691287296,Cloud_Experiment_FR_REAL,001,17,
images/fcloud_D1.2_1.tif,1.2,0,,,,,0,102,102,12,,,,,,,,,,,,,,,,,,,1,space,4,1.27,5.26308468217,,,,,,,,,,,,,,,,,,2019_Feb_08_1706,60.6871691287296,Cloud_Experiment_FR_REAL,001,17,
images/fcloud65-35_D1.7_3.tif,1.7,1,,,,,0,103,103,65,,,,,,,,,,,,,,,,,,,None,None,None,10.431,,,,,,,,,,,,,,,,,,,2019_Feb_08_1706,60.6871691287296,Cloud_Experiment_FR_REAL,001,17,
images/fcloud_D0.9_1.tif,0.9,0,,,,,0,104,104,3,,,,,,,,,,,,,,,,,,,1,space,5,0.869,2.90672587242,,,,,,,,,,,,,,,,,,2019_Feb_08_1706,60.6871691287296,Cloud_Experiment_FR_REAL,001,17,
images/fcloud65-35_D0.9_3.tif,0.9,1,,,,,0,105,105,41,,,,,,,,,,,,,,,,,,,1,space,2,0.902,3.9956562171,,,,,,,,,,,,,,,,,,2019_Feb_08_1706,60.6871691287296,Cloud_Experiment_FR_REAL,001,17,
images/fcloud80-20_D1.2_1.tif,1.2,2,,,,,0,106,106,84,,,,,,,,,,,,,,,,,,,2,space,4,2.516,1.41328755487,,,,,,,,,,,,,,,,,,2019_Feb_08_1706,60.6871691287296,Cloud_Experiment_FR_REAL,001,17,
images/fcloud65-35_D1.4_1.tif,1.4,1,,,,,0,107,107,54,,,,,,,,,,,,,,,,,,,None,None,None,11.461,,,,,,,,,,,,,,,,,,,2019_Feb_08_1706,60.6871691287296,Cloud_Experiment_FR_REAL,001,17,
,,,,,,,,,,,,,,,,,,,,,,,,,,,,,,,,,,,,,,,,,,,,,,space,2.56797146366,,,,2019_Feb_08_1706,60.6871691287296,Cloud_Experiment_FR_REAL,001,17,
,,,,,,,,,,,,,,,,,,,,,,,,,5,9.478,,,,,,,,,,,,,,,,,,,,,,,,,2019_Feb_08_1706,60.6871691287296,Cloud_Experiment_FR_REAL,001,17,
,,,,,,,,,,,,,,,,,,,,,,,,,,,,,,,,,,3,,,,,,,,,,,,,,,,,2019_Feb_08_1706,60.6871691287296,Cloud_Experiment_FR_REAL,001,17,
,,,,,,,,,,,,,,,,,,,,,,,,,,,,,,,,,,,3,,,,,,,,,,,,,,,,2019_Feb_08_1706,60.6871691287296,Cloud_Experiment_FR_REAL,001,17,
,,,,,,,,,,,,,,,,,,,,,,,,,,,,,,,,,,,,5,,,,,,,,,,,,,,,2019_Feb_08_1706,60.6871691287296,Cloud_Experiment_FR_REAL,001,17,
,,,,,,,,,,,,,,,,,,,,,,,,,,,,,,,,,,,,,3,,,,,,,,,,,,,,2019_Feb_08_1706,60.6871691287296,Cloud_Experiment_FR_REAL,001,17,
,,,,,,,,,,,,,,,,,,,,,,,,,,,,,,,,,,,,,,6,,,,,,,,,,,,,2019_Feb_08_1706,60.6871691287296,Cloud_Experiment_FR_REAL,001,17,
,,,,,,,,,,,,,,,,,,,,,,,,,,,,,,,,,,,,,,,5,,,,,,,,,,,,2019_Feb_08_1706,60.6871691287296,Cloud_Experiment_FR_REAL,001,17,
,,,,,,,,,,,,,,,,,,,,,,,,,,,,,,,,,,,,,,,,2,,,,,,,,,,,2019_Feb_08_1706,60.6871691287296,Cloud_Experiment_FR_REAL,001,17,
,,,,,,,,,,,,,,,,,,,,,,,,,,,,,,,,,,,,,,,,,7,,,,,,,,,,2019_Feb_08_1706,60.6871691287296,Cloud_Experiment_FR_REAL,001,17,
,,,,,,,,,,,,,,,,,,,,,,,,,,,,,,,,,,,,,,,,,,6,,,,,,,,,2019_Feb_08_1706,60.6871691287296,Cloud_Experiment_FR_REAL,001,17,
,,,,,,,,,,,,,,,,,,,,,,,,,,,,,,,,,,,,,,,,,,,4,,,,,,,,2019_Feb_08_1706,60.6871691287296,Cloud_Experiment_FR_REAL,001,17,
,,,,,,,,,,,,,,,,,,,,,,,,,,,,,,,,,,,,,,,,,,,,,,,,space,51.6904779652,,2019_Feb_08_1706,60.6871691287296,Cloud_Experiment_FR_REAL,001,17,
images/fcloud80-20_D0.9_5.tif,0.9,2,,,,,,,,,0,0,0,76,,,,,,,,,,,,,,,1,space,2,1.057,3.78795759438,,,,,,,,,,,,,,,,,,2019_Feb_08_1706,60.6871691287296,Cloud_Experiment_FR_REAL,001,17,
images/fcloud80-20_D1.4_6.tif,1.4,2,,,,,,,,,0,1,1,92,,,,,,,,,,,,,,,2,space,5,1.735,2.99154581618,,,,,,,,,,,,,,,,,,2019_Feb_08_1706,60.6871691287296,Cloud_Experiment_FR_REAL,001,17,
images/fcloud65-35_D1.5_6.tif,1.5,1,,,,,,,,,0,2,2,59,,,,,,,,,,,,,,,1,space,5,1.314,1.43138956325,,,,,,,,,,,,,,,,,,2019_Feb_08_1706,60.6871691287296,Cloud_Experiment_FR_REAL,001,17,
images/fcloud80-20_D1.7_5.tif,1.7,2,,,,,,,,,0,3,3,100,,,,,,,,,,,,,,,3,space,4,2.682,3.020661499,,,,,,,,,,,,,,,,,,2019_Feb_08_1706,60.6871691287296,Cloud_Experiment_FR_REAL,001,17,
images/fcloud80-20_D1.5_5.tif,1.5,2,,,,,,,,,0,4,4,94,,,,,,,,,,,,,,,1,space,5,1.17,1.80140173109,,,,,,,,,,,,,,,,,,2019_Feb_08_1706,60.6871691287296,Cloud_Experiment_FR_REAL,001,17,
images/fcloud65-35_D1.6_4.tif,1.6,1,,,,,,,,,0,5,5,60,,,,,,,,,,,,,,,1,space,3,1.351,3.65008489648,,,,,,,,,,,,,,,,,,2019_Feb_08_1706,60.6871691287296,Cloud_Experiment_FR_REAL,001,17,
images/fcloud65-35_D1.2_6.tif,1.2,1,,,,,,,,,0,6,6,50,,,,,,,,,,,,,,,1,space,4,1.318,1.23840685468,,,,,,,,,,,,,,,,,,2019_Feb_08_1706,60.6871691287296,Cloud_Experiment_FR_REAL,001,17,
images/fcloud65-35_D1.1_5.tif,1.1,1,,,,,,,,,0,7,7,46,,,,,,,,,,,,,,,2,space,5,0.972,1.72606922605,,,,,,,,,,,,,,,,,,2019_Feb_08_1706,60.6871691287296,Cloud_Experiment_FR_REAL,001,17,
images/fcloud80-20_D1_4.tif,1.0,2,,,,,,,,,0,8,8,78,,,,,,,,,,,,,,,2,space,5,3.115,2.45696390653,,,,,,,,,,,,,,,,,,2019_Feb_08_1706,60.6871691287296,Cloud_Experiment_FR_REAL,001,17,
images/fcloud65-35_D1.2_5.tif,1.2,1,,,,,,,,,0,9,9,49,,,,,,,,,,,,,,,2,None,4,6.683,,,,,,,,,,,,,,,,,,,2019_Feb_08_1706,60.6871691287296,Cloud_Experiment_FR_REAL,001,17,
images/fcloud_D1.4_5.tif,1.4,0,,,,,,,,,0,10,10,19,,,,,,,,,,,,,,,2,space,3,3.366,4.35218723607,,,,,,,,,,,,,,,,,,2019_Feb_08_1706,60.6871691287296,Cloud_Experiment_FR_REAL,001,17,
images/fcloud80-20_D1.3_5.tif,1.3,2,,,,,,,,,0,11,11,88,,,,,,,,,,,,,,,1,space,2,2.336,5.98317696573,,,,,,,,,,,,,,,,,,2019_Feb_08_1706,60.6871691287296,Cloud_Experiment_FR_REAL,001,17,
images/fcloud80-20_D1.1_6.tif,1.1,2,,,,,,,,,0,12,12,83,,,,,,,,,,,,,,,None,None,None,11.607,,,,,,,,,,,,,,,,,,,2019_Feb_08_1706,60.6871691287296,Cloud_Experiment_FR_REAL,001,17,
images/fcloud_D1_4.tif,1.0,0,,,,,,,,,0,13,13,6,,,,,,,,,,,,,,,2,space,4,1.901,3.49230430741,,,,,,,,,,,,,,,,,,2019_Feb_08_1706,60.6871691287296,Cloud_Experiment_FR_REAL,001,17,
images/fcloud80-20_D1.5_4.tif,1.5,2,,,,,,,,,0,14,14,93,,,,,,,,,,,,,,,None,None,None,10.741,,,,,,,,,,,,,,,,,,,2019_Feb_08_1706,60.6871691287296,Cloud_Experiment_FR_REAL,001,17,
images/fcloud65-35_D0.8_5.tif,0.8,1,,,,,,,,,0,15,15,37,,,,,,,,,,,,,,,1,space,5,0.967,1.12556771189,,,,,,,,,,,,,,,,,,2019_Feb_08_1706,60.6871691287296,Cloud_Experiment_FR_REAL,001,17,
images/fcloud_D1.3_5.tif,1.3,0,,,,,,,,,0,16,16,16,,,,,,,,,,,,,,,3,space,3,2.367,5.06328454765,,,,,,,,,,,,,,,,,,2019_Feb_08_1706,60.6871691287296,Cloud_Experiment_FR_REAL,001,17,
images/fcloud_D0.9_6.tif,0.9,0,,,,,,,,,0,17,17,5,,,,,,,,,,,,,,,1,space,4,0.817,2.99192981678,,,,,,,,,,,,,,,,,,2019_Feb_08_1706,60.6871691287296,Cloud_Experiment_FR_REAL,001,17,
images/fcloud_D1.9_6.tif,1.9,0,,,,,,,,,0,18,18,35,,,,,,,,,,,,,,,None,None,None,9.515,,,,,,,,,,,,,,,,,,,2019_Feb_08_1706,60.6871691287296,Cloud_Experiment_FR_REAL,001,17,
images/fcloud65-35_D0.8_6.tif,0.8,1,,,,,,,,,0,19,19,38,,,,,,,,,,,,,,,None,None,None,18.202,,,,,,,,,,,,,,,,,,,2019_Feb_08_1706,60.6871691287296,Cloud_Experiment_FR_REAL,001,17,
images/fcloud65-35_D1.4_6.tif,1.4,1,,,,,,,,,0,20,20,56,,,,,,,,,,,,,,,1,space,5,0.754,1.26436057198,,,,,,,,,,,,,,,,,,2019_Feb_08_1706,60.6871691287296,Cloud_Experiment_FR_REAL,001,17,
images/fcloud80-20_D1.4_5.tif,1.4,2,,,,,,,,,0,21,21,91,,,,,,,,,,,,,,,None,None,None,9.5,,,,,,,,,,,,,,,,,,,2019_Feb_08_1706,60.6871691287296,Cloud_Experiment_FR_REAL,001,17,
images/fcloud_D1_6.tif,1.0,0,,,,,,,,,0,22,22,8,,,,,,,,,,,,,,,3,space,4,2.099,2.37719663046,,,,,,,,,,,,,,,,,,2019_Feb_08_1706,60.6871691287296,Cloud_Experiment_FR_REAL,001,17,
images/fcloud_D1.8_4.tif,1.8,0,,,,,,,,,0,23,23,30,,,,,,,,,,,,,,,None,None,None,11.107,,,,,,,,,,,,,,,,,,,2019_Feb_08_1706,60.6871691287296,Cloud_Experiment_FR_REAL,001,17,
images/fcloud_D1.7_6.tif,1.7,0,,,,,,,,,0,24,24,29,,,,,,,,,,,,,,,1,space,2,0.851,4.56991974032,,,,,,,,,,,,,,,,,,2019_Feb_08_1706,60.6871691287296,Cloud_Experiment_FR_REAL,001,17,
images/fcloud65-35_D1.3_6.tif,1.3,1,,,,,,,,,0,25,25,53,,,,,,,,,,,,,,,None,None,None,9.476,,,,,,,,,,,,,,,,,,,2019_Feb_08_1706,60.6871691287296,Cloud_Experiment_FR_REAL,001,17,
images/fcloud65-35_D1.1_6.tif,1.1,1,,,,,,,,,0,26,26,47,,,,,,,,,,,,,,,None,None,None,17.888,,,,,,,,,,,,,,,,,,,2019_Feb_08_1706,60.6871691287296,Cloud_Experiment_FR_REAL,001,17,
images/fcloud65-35_D1.3_4.tif,1.3,1,,,,,,,,,0,27,27,51,,,,,,,,,,,,,,,None,None,None,26.665,,,,,,,,,,,,,,,,,,,2019_Feb_08_1706,60.6871691287296,Cloud_Experiment_FR_REAL,001,17,
images/fcloud_D1.9_5.tif,1.9,0,,,,,,,,,0,28,28,34,,,,,,,,,,,,,,,1,space,2,1.502,6.80390159099,,,,,,,,,,,,,,,,,,2019_Feb_08_1706,60.6871691287296,Cloud_Experiment_FR_REAL,001,17,
images/fcloud_D0.9_4.tif,0.9,0,,,,,,,,,0,29,29,3,,,,,,,,,,,,,,,4,space,3,3.236,3.19156134059,,,,,,,,,,,,,,,,,,2019_Feb_08_1706,60.6871691287296,Cloud_Experiment_FR_REAL,001,17,
images/fcloud80-20_D1.8_4.tif,1.8,2,,,,,,,,,0,30,30,102,,,,,,,,,,,,,,,None,None,None,12.456,,,,,,,,,,,,,,,,,,,2019_Feb_08_1706,60.6871691287296,Cloud_Experiment_FR_REAL,001,17,
images/fcloud80-20_D1.8_6.tif,1.8,2,,,,,,,,,0,31,31,104,,,,,,,,,,,,,,,1,space,1,1.051,4.21392745315,,,,,,,,,,,,,,,,,,2019_Feb_08_1706,60.6871691287296,Cloud_Experiment_FR_REAL,001,17,
images/fcloud80-20_D0.9_6.tif,0.9,2,,,,,,,,,0,32,32,77,,,,,,,,,,,,,,,None,None,None,9.643,,,,,,,,,,,,,,,,,,,2019_Feb_08_1706,60.6871691287296,Cloud_Experiment_FR_REAL,001,17,
images/fcloud65-35_D0.9_6.tif,0.9,1,,,,,,,,,0,33,33,41,,,,,,,,,,,,,,,2,space,5,0.887,1.50749058381,,,,,,,,,,,,,,,,,,2019_Feb_08_1706,60.6871691287296,Cloud_Experiment_FR_REAL,001,17,
images/fcloud_D1.1_6.tif,1.1,0,,,,,,,,,0,34,34,11,,,,,,,,,,,,,,,2,space,3,1.689,4.63920127857,,,,,,,,,,,,,,,,,,2019_Feb_08_1706,60.6871691287296,Cloud_Experiment_FR_REAL,001,17,
images/fcloud65-35_D1.7_6.tif,1.7,1,,,,,,,,,0,35,35,65,,,,,,,,,,,,,,,1,space,4,1.017,5.57076022378,,,,,,,,,,,,,,,,,,2019_Feb_08_1706,60.6871691287296,Cloud_Experiment_FR_REAL,001,17,
images/fcloud65-35_D1.9_5.tif,1.9,1,,,,,,,,,0,36,36,70,,,,,,,,,,,,,,,1,space,2,1.002,7.08744780393,,,,,,,,,,,,,,,,,,2019_Feb_08_1706,60.6871691287296,Cloud_Experiment_FR_REAL,001,17,
images/fcloud65-35_D0.8_4.tif,0.8,1,,,,,,,,,0,37,37,36,,,,,,,,,,,,,,,1,space,4,3.386,3.23693819332,,,,,,,,,,,,,,,,,,2019_Feb_08_1706,60.6871691287296,Cloud_Experiment_FR_REAL,001,17,
images/fcloud65-35_D1.5_5.tif,1.5,1,,,,,,,,,0,38,38,58,,,,,,,,,,,,,,,None,None,None,12.108,,,,,,,,,,,,,,,,,,,2019_Feb_08_1706,60.6871691287296,Cloud_Experiment_FR_REAL,001,17,
images/fcloud65-35_D1.2_4.tif,1.2,1,,,,,,,,,0,39,39,48,,,,,,,,,,,,,,,1,space,2,1.15,4.52446423681,,,,,,,,,,,,,,,,,,2019_Feb_08_1706,60.6871691287296,Cloud_Experiment_FR_REAL,001,17,
images/fcloud_D1.5_4.tif,1.5,0,,,,,,,,,0,40,40,21,,,,,,,,,,,,,,,None,None,None,9.857,,,,,,,,,,,,,,,,,,,2019_Feb_08_1706,60.6871691287296,Cloud_Experiment_FR_REAL,001,17,
images/fcloud80-20_D1.6_6.tif,1.6,2,,,,,,,,,0,41,41,98,,,,,,,,,,,,,,,1,space,1,0.987,5.1226653452,,,,,,,,,,,,,,,,,,2019_Feb_08_1706,60.6871691287296,Cloud_Experiment_FR_REAL,001,17,
images/fcloud_D1.8_5.tif,1.8,0,,,,,,,,,0,42,42,31,,,,,,,,,,,,,,,1,space,4,0.801,1.39186473715,,,,,,,,,,,,,,,,,,2019_Feb_08_1706,60.6871691287296,Cloud_Experiment_FR_REAL,001,17,
images/fcloud_D1.4_6.tif,1.4,0,,,,,,,,,0,43,43,20,,,,,,,,,,,,,,,2,space,4,0.918,2.75478497241,,,,,,,,,,,,,,,,,,2019_Feb_08_1706,60.6871691287296,Cloud_Experiment_FR_REAL,001,17,
images/fcloud65-35_D1.6_6.tif,1.6,1,,,,,,,,,0,44,44,62,,,,,,,,,,,,,,,2,space,3,1.586,5.41196539986,,,,,,,,,,,,,,,,,,2019_Feb_08_1706,60.6871691287296,Cloud_Experiment_FR_REAL,001,17,
images/fcloud_D1.6_6.tif,1.6,0,,,,,,,,,0,45,45,26,,,,,,,,,,,,,,,2,space,4,1.885,4.20096036152,,,,,,,,,,,,,,,,,,2019_Feb_08_1706,60.6871691287296,Cloud_Experiment_FR_REAL,001,17,
images/fcloud80-20_D0.9_4.tif,0.9,2,,,,,,,,,0,46,46,75,,,,,,,,,,,,,,,1,space,2,1.452,6.65163734916,,,,,,,,,,,,,,,,,,2019_Feb_08_1706,60.6871691287296,Cloud_Experiment_FR_REAL,001,17,
images/fcloud80-20_D1.6_5.tif,1.6,2,,,,,,,,,0,47,47,97,,,,,,,,,,,,,,,None,None,None,11.924,,,,,,,,,,,,,,,,,,,2019_Feb_08_1706,60.6871691287296,Cloud_Experiment_FR_REAL,001,17,
images/fcloud80-20_D1_6.tif,1.0,2,,,,,,,,,0,48,48,80,,,,,,,,,,,,,,,None,None,None,20.604,,,,,,,,,,,,,,,,,,,2019_Feb_08_1706,60.6871691287296,Cloud_Experiment_FR_REAL,001,17,
images/fcloud_D0.8_4.tif,0.8,0,,,,,,,,,0,49,49,0,,,,,,,,,,,,,,,1,space,3,2.452,6.15376374649,,,,,,,,,,,,,,,,,,2019_Feb_08_1706,60.6871691287296,Cloud_Experiment_FR_REAL,001,17,
images/fcloud80-20_D0.8_5.tif,0.8,2,,,,,,,,,0,50,50,73,,,,,,,,,,,,,,,1,space,4,0.986,5.86902697722,,,,,,,,,,,,,,,,,,2019_Feb_08_1706,60.6871691287296,Cloud_Experiment_FR_REAL,001,17,
images/fcloud65-35_D1.8_4.tif,1.8,1,,,,,,,,,0,51,51,66,,,,,,,,,,,,,,,None,None,None,9.993,,,,,,,,,,,,,,,,,,,2019_Feb_08_1706,60.6871691287296,Cloud_Experiment_FR_REAL,001,17,
images/fcloud_D0.8_5.tif,0.8,0,,,,,,,,,0,52,52,1,,,,,,,,,,,,,,,2,space,4,1.917,3.52968757157,,,,,,,,,,,,,,,,,,2019_Feb_08_1706,60.6871691287296,Cloud_Experiment_FR_REAL,001,17,
images/fcloud80-20_D0.8_4.tif,0.8,2,,,,,,,,,0,53,53,72,,,,,,,,,,,,,,,1,space,2,1.134,1.74378260726,,,,,,,,,,,,,,,,,,2019_Feb_08_1706,60.6871691287296,Cloud_Experiment_FR_REAL,001,17,
images/fcloud80-20_D1.7_4.tif,1.7,2,,,,,,,,,0,54,54,99,,,,,,,,,,,,,,,None,None,None,10.243,,,,,,,,,,,,,,,,,,,2019_Feb_08_1706,60.6871691287296,Cloud_Experiment_FR_REAL,001,17,
images/fcloud80-20_D1.4_4.tif,1.4,2,,,,,,,,,0,55,55,90,,,,,,,,,,,,,,,1,space,2,1.154,2.27183650516,,,,,,,,,,,,,,,,,,2019_Feb_08_1706,60.6871691287296,Cloud_Experiment_FR_REAL,001,17,
images/fcloud65-35_D1.8_5.tif,1.8,1,,,,,,,,,0,56,56,67,,,,,,,,,,,,,,,1,space,1,0.768,7.75716659927,,,,,,,,,,,,,,,,,,2019_Feb_08_1706,60.6871691287296,Cloud_Experiment_FR_REAL,001,17,
images/fcloud_D1.5_6.tif,1.5,0,,,,,,,,,0,57,57,23,,,,,,,,,,,,,,,1,space,3,1.718,4.73994928319,,,,,,,,,,,,,,,,,,2019_Feb_08_1706,60.6871691287296,Cloud_Experiment_FR_REAL,001,17,
images/fcloud_D1.2_4.tif,1.2,0,,,,,,,,,0,58,58,12,,,,,,,,,,,,,,,2,space,4,1.301,2.25894909236,,,,,,,,,,,,,,,,,,2019_Feb_08_1706,60.6871691287296,Cloud_Experiment_FR_REAL,001,17,
images/fcloud65-35_D1.8_6.tif,1.8,1,,,,,,,,,0,59,59,68,,,,,,,,,,,,,,,2,space,2,1.818,2.66624736739,,,,,,,,,,,,,,,,,,2019_Feb_08_1706,60.6871691287296,Cloud_Experiment_FR_REAL,001,17,
images/fcloud_D1.6_5.tif,1.6,0,,,,,,,,,0,60,60,25,,,,,,,,,,,,,,,1,space,4,3.117,4.55037117493,,,,,,,,,,,,,,,,,,2019_Feb_08_1706,60.6871691287296,Cloud_Experiment_FR_REAL,001,17,
images/fcloud_D1_5.tif,1.0,0,,,,,,,,,0,61,61,7,,,,,,,,,,,,,,,None,None,None,12.143,,,,,,,,,,,,,,,,,,,2019_Feb_08_1706,60.6871691287296,Cloud_Experiment_FR_REAL,001,17,
images/fcloud65-35_D0.9_4.tif,0.9,1,,,,,,,,,0,62,62,39,,,,,,,,,,,,,,,1,space,4,2.25,2.85720057844,,,,,,,,,,,,,,,,,,2019_Feb_08_1706,60.6871691287296,Cloud_Experiment_FR_REAL,001,17,
images/fcloud65-35_D1_4.tif,1.0,1,,,,,,,,,0,63,63,42,,,,,,,,,,,,,,,None,None,None,11.092,,,,,,,,,,,,,,,,,,,2019_Feb_08_1706,60.6871691287296,Cloud_Experiment_FR_REAL,001,17,
images/fcloud80-20_D0.8_6.tif,0.8,2,,,,,,,,,0,64,64,74,,,,,,,,,,,,,,,1,space,4,1.204,4.0682256649,,,,,,,,,,,,,,,,,,2019_Feb_08_1706,60.6871691287296,Cloud_Experiment_FR_REAL,001,17,
images/fcloud80-20_D1.1_5.tif,1.1,2,,,,,,,,,0,65,65,82,,,,,,,,,,,,,,,None,None,None,9.592,,,,,,,,,,,,,,,,,,,2019_Feb_08_1706,60.6871691287296,Cloud_Experiment_FR_REAL,001,17,
images/fcloud80-20_D1.7_6.tif,1.7,2,,,,,,,,,0,66,66,101,,,,,,,,,,,,,,,1,None,1,3.6,,,,,,,,,,,,,,,,,,,2019_Feb_08_1706,60.6871691287296,Cloud_Experiment_FR_REAL,001,17,
images/fcloud_D1.3_6.tif,1.3,0,,,,,,,,,0,67,67,17,,,,,,,,,,,,,,,2,space,4,1.056,3.72467356082,,,,,,,,,,,,,,,,,,2019_Feb_08_1706,60.6871691287296,Cloud_Experiment_FR_REAL,001,17,
images/fcloud80-20_D1_5.tif,1.0,2,,,,,,,,,0,68,68,79,,,,,,,,,,,,,,,None,None,None,10.029,,,,,,,,,,,,,,,,,,,2019_Feb_08_1706,60.6871691287296,Cloud_Experiment_FR_REAL,001,17,
images/fcloud_D1.7_5.tif,1.7,0,,,,,,,,,0,69,69,28,,,,,,,,,,,,,,,None,None,None,18.902,,,,,,,,,,,,,,,,,,,2019_Feb_08_1706,60.6871691287296,Cloud_Experiment_FR_REAL,001,17,
images/fcloud80-20_D1.1_4.tif,1.1,2,,,,,,,,,0,70,70,81,,,,,,,,,,,,,,,None,None,None,27.328,,,,,,,,,,,,,,,,,,,2019_Feb_08_1706,60.6871691287296,Cloud_Experiment_FR_REAL,001,17,
images/fcloud65-35_D1.1_4.tif,1.1,1,,,,,,,,,0,71,71,45,,,,,,,,,,,,,,,2,space,3,1.883,3.6051120928,,,,,,,,,,,,,,,,,,2019_Feb_08_1706,60.6871691287296,Cloud_Experiment_FR_REAL,001,17,
images/fcloud80-20_D1.9_6.tif,1.9,2,,,,,,,,,0,72,72,107,,,,,,,,,,,,,,,None,None,None,10.544,,,,,,,,,,,,,,,,,,,2019_Feb_08_1706,60.6871691287296,Cloud_Experiment_FR_REAL,001,17,
images/fcloud_D1.4_4.tif,1.4,0,,,,,,,,,0,73,73,18,,,,,,,,,,,,,,,2,space,4,1.285,4.0117019969,,,,,,,,,,,,,,,,,,2019_Feb_08_1706,60.6871691287296,Cloud_Experiment_FR_REAL,001,17,
images/fcloud80-20_D1.9_4.tif,1.9,2,,,,,,,,,0,74,74,105,,,,,,,,,,,,,,,None,None,None,10.111,,,,,,,,,,,,,,,,,,,2019_Feb_08_1706,60.6871691287296,Cloud_Experiment_FR_REAL,001,17,
images/fcloud_D1.3_4.tif,1.3,0,,,,,,,,,0,75,75,15,,,,,,,,,,,,,,,2,space,5,2.483,2.2036694428,,,,,,,,,,,,,,,,,,2019_Feb_08_1706,60.6871691287296,Cloud_Experiment_FR_REAL,001,17,
images/fcloud_D1.2_5.tif,1.2,0,,,,,,,,,0,76,76,13,,,,,,,,,,,,,,,1,space,2,2.118,4.16366243095,,,,,,,,,,,,,,,,,,2019_Feb_08_1706,60.6871691287296,Cloud_Experiment_FR_REAL,001,17,
images/fcloud65-35_D1.7_5.tif,1.7,1,,,,,,,,,0,77,77,64,,,,,,,,,,,,,,,1,space,2,2.237,4.36562880245,,,,,,,,,,,,,,,,,,2019_Feb_08_1706,60.6871691287296,Cloud_Experiment_FR_REAL,001,17,
images/fcloud80-20_D1.2_4.tif,1.2,2,,,,,,,,,0,78,78,84,,,,,,,,,,,,,,,1,space,4,1.37,5.23957119416,,,,,,,,,,,,,,,,,,2019_Feb_08_1706,60.6871691287296,Cloud_Experiment_FR_REAL,001,17,
images/fcloud_D1.7_4.tif,1.7,0,,,,,,,,,0,79,79,27,,,,,,,,,,,,,,,None,None,None,10.389,,,,,,,,,,,,,,,,,,,2019_Feb_08_1706,60.6871691287296,Cloud_Experiment_FR_REAL,001,17,
images/fcloud65-35_D1.7_4.tif,1.7,1,,,,,,,,,0,80,80,63,,,,,,,,,,,,,,,None,None,None,18.818,,,,,,,,,,,,,,,,,,,2019_Feb_08_1706,60.6871691287296,Cloud_Experiment_FR_REAL,001,17,
images/fcloud_D1.9_4.tif,1.9,0,,,,,,,,,0,81,81,33,,,,,,,,,,,,,,,None,None,None,27.343,,,,,,,,,,,,,,,,,,,2019_Feb_08_1706,60.6871691287296,Cloud_Experiment_FR_REAL,001,17,
images/fcloud65-35_D0.9_5.tif,0.9,1,,,,,,,,,0,82,82,40,,,,,,,,,,,,,,,1,space,2,0.921,3.95442317904,,,,,,,,,,,,,,,,,,2019_Feb_08_1706,60.6871691287296,Cloud_Experiment_FR_REAL,001,17,
images/fcloud80-20_D1.9_5.tif,1.9,2,,,,,,,,,0,83,83,106,,,,,,,,,,,,,,,None,None,None,10.51,,,,,,,,,,,,,,,,,,,2019_Feb_08_1706,60.6871691287296,Cloud_Experiment_FR_REAL,001,17,
images/fcloud65-35_D1.3_5.tif,1.3,1,,,,,,,,,0,84,84,52,,,,,,,,,,,,,,,2,space,1,0.836,5.08440869802,,,,,,,,,,,,,,,,,,2019_Feb_08_1706,60.6871691287296,Cloud_Experiment_FR_REAL,001,17,
images/fcloud65-35_D1_5.tif,1.0,1,,,,,,,,,0,85,85,43,,,,,,,,,,,,,,,None,None,None,9.893,,,,,,,,,,,,,,,,,,,2019_Feb_08_1706,60.6871691287296,Cloud_Experiment_FR_REAL,001,17,
images/fcloud80-20_D1.5_6.tif,1.5,2,,,,,,,,,0,86,86,95,,,,,,,,,,,,,,,None,None,None,18.435,,,,,,,,,,,,,,,,,,,2019_Feb_08_1706,60.6871691287296,Cloud_Experiment_FR_REAL,001,17,
images/fcloud80-20_D1.3_6.tif,1.3,2,,,,,,,,,0,87,87,89,,,,,,,,,,,,,,,2,space,5,1.168,2.47884217883,,,,,,,,,,,,,,,,,,2019_Feb_08_1706,60.6871691287296,Cloud_Experiment_FR_REAL,001,17,
images/fcloud_D0.9_5.tif,0.9,0,,,,,,,,,0,88,88,4,,,,,,,,,,,,,,,2,space,4,1.184,4.70243082207,,,,,,,,,,,,,,,,,,2019_Feb_08_1706,60.6871691287296,Cloud_Experiment_FR_REAL,001,17,
images/fcloud80-20_D1.2_6.tif,1.2,2,,,,,,,,,0,89,89,86,,,,,,,,,,,,,,,1,space,4,0.922,3.47181861592,,,,,,,,,,,,,,,,,,2019_Feb_08_1706,60.6871691287296,Cloud_Experiment_FR_REAL,001,17,
images/fcloud65-35_D1_6.tif,1.0,1,,,,,,,,,0,90,90,44,,,,,,,,,,,,,,,1,space,1,1.669,7.00124607445,,,,,,,,,,,,,,,,,,2019_Feb_08_1706,60.6871691287296,Cloud_Experiment_FR_REAL,001,17,
images/fcloud65-35_D1.5_4.tif,1.5,1,,,,,,,,,0,91,91,57,,,,,,,,,,,,,,,None,None,None,10.51,,,,,,,,,,,,,,,,,,,2019_Feb_08_1706,60.6871691287296,Cloud_Experiment_FR_REAL,001,17,
images/fcloud80-20_D1.3_4.tif,1.3,2,,,,,,,,,0,92,92,87,,,,,,,,,,,,,,,1,space,2,0.934,6.76415674842,,,,,,,,,,,,,,,,,,2019_Feb_08_1706,60.6871691287296,Cloud_Experiment_FR_REAL,001,17,
images/fcloud_D1.1_5.tif,1.1,0,,,,,,,,,0,93,93,10,,,,,,,,,,,,,,,None,None,None,9.53,,,,,,,,,,,,,,,,,,,2019_Feb_08_1706,60.6871691287296,Cloud_Experiment_FR_REAL,001,17,
images/fcloud_D1.5_5.tif,1.5,0,,,,,,,,,0,94,94,22,,,,,,,,,,,,,,,None,None,None,18.404,,,,,,,,,,,,,,,,,,,2019_Feb_08_1706,60.6871691287296,Cloud_Experiment_FR_REAL,001,17,
images/fcloud80-20_D1.2_5.tif,1.2,2,,,,,,,,,0,95,95,85,,,,,,,,,,,,,,,None,None,None,26.848,,,,,,,,,,,,,,,,,,,2019_Feb_08_1706,60.6871691287296,Cloud_Experiment_FR_REAL,001,17,
images/fcloud65-35_D1.4_5.tif,1.4,1,,,,,,,,,0,96,96,55,,,,,,,,,,,,,,,1,space,2,1.038,4.90707286098,,,,,,,,,,,,,,,,,,2019_Feb_08_1706,60.6871691287296,Cloud_Experiment_FR_REAL,001,17,
images/fcloud65-35_D1.9_6.tif,1.9,1,,,,,,,,,0,97,97,71,,,,,,,,,,,,,,,None,None,None,10.429,,,,,,,,,,,,,,,,,,,2019_Feb_08_1706,60.6871691287296,Cloud_Experiment_FR_REAL,001,17,
images/fcloud_D1.2_6.tif,1.2,0,,,,,,,,,0,98,98,14,,,,,,,,,,,,,,,2,space,3,1.736,3.71012214513,,,,,,,,,,,,,,,,,,2019_Feb_08_1706,60.6871691287296,Cloud_Experiment_FR_REAL,001,17,
images/fcloud80-20_D1.8_5.tif,1.8,2,,,,,,,,,0,99,99,103,,,,,,,,,,,,,,,1,space,3,1.65,6.83527141449,,,,,,,,,,,,,,,,,,2019_Feb_08_1706,60.6871691287296,Cloud_Experiment_FR_REAL,001,17,
images/fcloud_D1.1_4.tif,1.1,0,,,,,,,,,0,100,100,9,,,,,,,,,,,,,,,1,space,4,0.668,7.06876439683,,,,,,,,,,,,,,,,,,2019_Feb_08_1706,60.6871691287296,Cloud_Experiment_FR_REAL,001,17,
images/fcloud80-20_D1.6_4.tif,1.6,2,,,,,,,,,0,101,101,96,,,,,,,,,,,,,,,1,space,1,0.721,7.26691337989,,,,,,,,,,,,,,,,,,2019_Feb_08_1706,60.6871691287296,Cloud_Experiment_FR_REAL,001,17,
images/fcloud65-35_D1.4_4.tif,1.4,1,,,,,,,,,0,102,102,54,,,,,,,,,,,,,,,None,None,None,9.159,,,,,,,,,,,,,,,,,,,2019_Feb_08_1706,60.6871691287296,Cloud_Experiment_FR_REAL,001,17,
images/fcloud65-35_D1.9_4.tif,1.9,1,,,,,,,,,0,103,103,69,,,,,,,,,,,,,,,1,space,1,1.951,2.48437189159,,,,,,,,,,,,,,,,,,2019_Feb_08_1706,60.6871691287296,Cloud_Experiment_FR_REAL,001,17,
images/fcloud_D1.6_4.tif,1.6,0,,,,,,,,,0,104,104,24,,,,,,,,,,,,,,,1,space,1,0.801,3.8703146904,,,,,,,,,,,,,,,,,,2019_Feb_08_1706,60.6871691287296,Cloud_Experiment_FR_REAL,001,17,
images/fcloud_D1.8_6.tif,1.8,0,,,,,,,,,0,105,105,32,,,,,,,,,,,,,,,None,None,None,9.675,,,,,,,,,,,,,,,,,,,2019_Feb_08_1706,60.6871691287296,Cloud_Experiment_FR_REAL,001,17,
images/fcloud65-35_D1.6_5.tif,1.6,1,,,,,,,,,0,106,106,61,,,,,,,,,,,,,,,3,space,2,2.32,5.67140336055,,,,,,,,,,,,,,,,,,2019_Feb_08_1706,60.6871691287296,Cloud_Experiment_FR_REAL,001,17,
images/fcloud_D0.8_6.tif,0.8,0,,,,,,,,,0,107,107,2,,,,,,,,,,,,,,,2,space,2,1.369,7.04801499413,,,,,,,,,,,,,,,,,,2019_Feb_08_1706,60.6871691287296,Cloud_Experiment_FR_REAL,001,17,
,,,,,,,,,,,,,,,,,,,,,,,,,,,,,,,,,,,,,,,,,,,,,,space,2.03425162786,,,,2019_Feb_08_1706,60.6871691287296,Cloud_Experiment_FR_REAL,001,17,
,,,,,,,,,,,,,,,,,,,,,,,,,3,7.031,,,,,,,,,,,,,,,,,,,,,,,,,2019_Feb_08_1706,60.6871691287296,Cloud_Experiment_FR_REAL,001,17,
,,,,,,,,,,,,,,,,,,,,,,,,,,,,,,,,,,2,,,,,,,,,,,,,,,,,2019_Feb_08_1706,60.6871691287296,Cloud_Experiment_FR_REAL,001,17,
,,,,,,,,,,,,,,,,,,,,,,,,,,,,,,,,,,,3,,,,,,,,,,,,,,,,2019_Feb_08_1706,60.6871691287296,Cloud_Experiment_FR_REAL,001,17,
,,,,,,,,,,,,,,,,,,,,,,,,,,,,,,,,,,,,3,,,,,,,,,,,,,,,2019_Feb_08_1706,60.6871691287296,Cloud_Experiment_FR_REAL,001,17,
,,,,,,,,,,,,,,,,,,,,,,,,,,,,,,,,,,,,,3,,,,,,,,,,,,,,2019_Feb_08_1706,60.6871691287296,Cloud_Experiment_FR_REAL,001,17,
,,,,,,,,,,,,,,,,,,,,,,,,,,,,,,,,,,,,,,2,,,,,,,,,,,,,2019_Feb_08_1706,60.6871691287296,Cloud_Experiment_FR_REAL,001,17,
,,,,,,,,,,,,,,,,,,,,,,,,,,,,,,,,,,,,,,,3,,,,,,,,,,,,2019_Feb_08_1706,60.6871691287296,Cloud_Experiment_FR_REAL,001,17,
,,,,,,,,,,,,,,,,,,,,,,,,,,,,,,,,,,,,,,,,4,,,,,,,,,,,2019_Feb_08_1706,60.6871691287296,Cloud_Experiment_FR_REAL,001,17,
,,,,,,,,,,,,,,,,,,,,,,,,,,,,,,,,,,,,,,,,,7,,,,,,,,,,2019_Feb_08_1706,60.6871691287296,Cloud_Experiment_FR_REAL,001,17,
,,,,,,,,,,,,,,,,,,,,,,,,,,,,,,,,,,,,,,,,,,6,,,,,,,,,2019_Feb_08_1706,60.6871691287296,Cloud_Experiment_FR_REAL,001,17,
,,,,,,,,,,,,,,,,,,,,,,,,,,,,,,,,,,,,,,,,,,,6,,,,,,,,2019_Feb_08_1706,60.6871691287296,Cloud_Experiment_FR_REAL,001,17,
,,,,,,,,,,,,,,,,,,,,,,,,,,,,,,,,,,,,,,,,,,,,,,,,space,84.8837238711,,2019_Feb_08_1706,60.6871691287296,Cloud_Experiment_FR_REAL,001,17,
images/fcloud80-20_D1.6_10.tif,1.6,2,,,,,,,,,,,,,0,0,0,131,,,,,,,,,,,2,space,4,0.852,4.14113233425,,,,,,,,,,,,,,,,,,2019_Feb_08_1706,60.6871691287296,Cloud_Experiment_FR_REAL,001,17,
images/fcloud65-35_D1.2_10.tif,1.2,1,,,,,,,,,,,,,0,1,1,67,,,,,,,,,,,1,space,5,2.192,1.82460472861,,,,,,,,,,,,,,,,,,2019_Feb_08_1706,60.6871691287296,Cloud_Experiment_FR_REAL,001,17,
images/fcloud_D1.9_7.tif,1.9,0,,,,,,,,,,,,,0,2,2,44,,,,,,,,,,,None,None,None,11.491,,,,,,,,,,,,,,,,,,,2019_Feb_08_1706,60.6871691287296,Cloud_Experiment_FR_REAL,001,17,
images/fcloud_D1.9_9.tif,1.9,0,,,,,,,,,,,,,0,3,3,46,,,,,,,,,,,1,space,3,1.287,5.88178895996,,,,,,,,,,,,,,,,,,2019_Feb_08_1706,60.6871691287296,Cloud_Experiment_FR_REAL,001,17,
images/fcloud80-20_D1.9_10.tif,1.9,2,,,,,,,,,,,,,0,4,4,143,,,,,,,,,,,None,None,None,10.341,,,,,,,,,,,,,,,,,,,2019_Feb_08_1706,60.6871691287296,Cloud_Experiment_FR_REAL,001,17,
images/fcloud65-35_D1.6_9.tif,1.6,1,,,,,,,,,,,,,0,5,5,82,,,,,,,,,,,1,space,5,0.937,2.99609316571,,,,,,,,,,,,,,,,,,2019_Feb_08_1706,60.6871691287296,Cloud_Experiment_FR_REAL,001,17,
images/fcloud_D1.3_10.tif,1.3,0,,,,,,,,,,,,,0,6,6,23,,,,,,,,,,,1,space,4,0.702,1.83244821266,,,,,,,,,,,,,,,,,,2019_Feb_08_1706,60.6871691287296,Cloud_Experiment_FR_REAL,001,17,
images/fcloud_D1.2_10.tif,1.2,0,,,,,,,,,,,,,0,7,7,19,,,,,,,,,,,2,space,4,2.268,2.85530010913,,,,,,,,,,,,,,,,,,2019_Feb_08_1706,60.6871691287296,Cloud_Experiment_FR_REAL,001,17,
images/fcloud80-20_D1.6_7.tif,1.6,2,,,,,,,,,,,,,0,8,8,128,,,,,,,,,,,None,None,None,12.59,,,,,,,,,,,,,,,,,,,2019_Feb_08_1706,60.6871691287296,Cloud_Experiment_FR_REAL,001,17,
images/fcloud65-35_D1.5_9.tif,1.5,1,,,,,,,,,,,,,0,9,9,78,,,,,,,,,,,None,None,None,21.37,,,,,,,,,,,,,,,,,,,2019_Feb_08_1706,60.6871691287296,Cloud_Experiment_FR_REAL,001,17,
images/fcloud80-20_D1.1_9.tif,1.1,2,,,,,,,,,,,,,0,10,10,110,,,,,,,,,,,2,space,5,1.755,2.00412273838,,,,,,,,,,,,,,,,,,2019_Feb_08_1706,60.6871691287296,Cloud_Experiment_FR_REAL,001,17,
images/fcloud_D1.2_8.tif,1.2,0,,,,,,,,,,,,,0,11,11,17,,,,,,,,,,,1,space,4,0.588,3.25932538218,,,,,,,,,,,,,,,,,,2019_Feb_08_1706,60.6871691287296,Cloud_Experiment_FR_REAL,001,17,
images/fcloud80-20_D0.8_7.tif,0.8,2,,,,,,,,,,,,,0,12,12,96,,,,,,,,,,,None,None,None,9.379,,,,,,,,,,,,,,,,,,,2019_Feb_08_1706,60.6871691287296,Cloud_Experiment_FR_REAL,001,17,
images/fcloud_D1.2_9.tif,1.2,0,,,,,,,,,,,,,0,13,13,18,,,,,,,,,,,2,space,3,1.267,4.77216318855,,,,,,,,,,,,,,,,,,2019_Feb_08_1706,60.6871691287296,Cloud_Experiment_FR_REAL,001,17,
images/fcloud80-20_D1.8_7.tif,1.8,2,,,,,,,,,,,,,0,14,14,136,,,,,,,,,,,1,space,2,0.534,5.40833204391,,,,,,,,,,,,,,,,,,2019_Feb_08_1706,60.6871691287296,Cloud_Experiment_FR_REAL,001,17,
images/fcloud_D1.7_8.tif,1.7,0,,,,,,,,,,,,,0,15,15,37,,,,,,,,,,,1,space,2,1.317,6.52759433084,,,,,,,,,,,,,,,,,,2019_Feb_08_1706,60.6871691287296,Cloud_Experiment_FR_REAL,001,17,
images/fcloud80-20_D1.6_9.tif,1.6,2,,,,,,,,,,,,,0,16,16,130,,,,,,,,,,,None,None,None,10.025,,,,,,,,,,,,,,,,,,,2019_Feb_08_1706,60.6871691287296,Cloud_Experiment_FR_REAL,001,17,
images/fcloud80-20_D1.4_9.tif,1.4,2,,,,,,,,,,,,,0,17,17,122,,,,,,,,,,,None,None,None,19.053,,,,,,,,,,,,,,,,,,,2019_Feb_08_1706,60.6871691287296,Cloud_Experiment_FR_REAL,001,17,
images/fcloud80-20_D1.7_8.tif,1.7,2,,,,,,,,,,,,,0,18,18,133,,,,,,,,,,,1,space,4,1.003,7.24099873088,,,,,,,,,,,,,,,,,,2019_Feb_08_1706,60.6871691287296,Cloud_Experiment_FR_REAL,001,17,
images/fcloud65-35_D1.7_9.tif,1.7,1,,,,,,,,,,,,,0,19,19,86,,,,,,,,,,,None,None,None,9.377,,,,,,,,,,,,,,,,,,,2019_Feb_08_1706,60.6871691287296,Cloud_Experiment_FR_REAL,001,17,
images/fcloud80-20_D1.1_7.tif,1.1,2,,,,,,,,,,,,,0,20,20,108,,,,,,,,,,,1,space,4,1.002,5.78000307409,,,,,,,,,,,,,,,,,,2019_Feb_08_1706,60.6871691287296,Cloud_Experiment_FR_REAL,001,17,
images/fcloud_D1_8.tif,1.0,0,,,,,,,,,,,,,0,21,21,9,,,,,,,,,,,1,space,5,0.587,2.0840884404,,,,,,,,,,,,,,,,,,2019_Feb_08_1706,60.6871691287296,Cloud_Experiment_FR_REAL,001,17,
images/fcloud80-20_D1.3_8.tif,1.3,2,,,,,,,,,,,,,0,22,22,117,,,,,,,,,,,None,None,None,9.677,,,,,,,,,,,,,,,,,,,2019_Feb_08_1706,60.6871691287296,Cloud_Experiment_FR_REAL,001,17,
images/fcloud65-35_D0.8_7.tif,0.8,1,,,,,,,,,,,,,0,23,23,48,,,,,,,,,,,2,space,4,1.201,4.06735742243,,,,,,,,,,,,,,,,,,2019_Feb_08_1706,60.6871691287296,Cloud_Experiment_FR_REAL,001,17,
images/fcloud80-20_D0.9_10.tif,0.9,2,,,,,,,,,,,,,0,24,24,103,,,,,,,,,,,None,None,None,10.31,,,,,,,,,,,,,,,,,,,2019_Feb_08_1706,60.6871691287296,Cloud_Experiment_FR_REAL,001,17,
images/fcloud65-35_D0.8_8.tif,0.8,1,,,,,,,,,,,,,0,25,25,49,,,,,,,,,,,1,space,4,0.703,6.26533676649,,,,,,,,,,,,,,,,,,2019_Feb_08_1706,60.6871691287296,Cloud_Experiment_FR_REAL,001,17,
images/fcloud_D1.4_10.tif,1.4,0,,,,,,,,,,,,,0,26,26,27,,,,,,,,,,,None,None,None,9.547,,,,,,,,,,,,,,,,,,,2019_Feb_08_1706,60.6871691287296,Cloud_Experiment_FR_REAL,001,17,
images/fcloud65-35_D1.9_9.tif,1.9,1,,,,,,,,,,,,,0,27,27,94,,,,,,,,,,,1,space,4,4.217,4.42664584389,,,,,,,,,,,,,,,,,,2019_Feb_08_1706,60.6871691287296,Cloud_Experiment_FR_REAL,001,17,
images/fcloud65-35_D1.4_8.tif,1.4,1,,,,,,,,,,,,,0,28,28,73,,,,,,,,,,,None,None,None,13.214,,,,,,,,,,,,,,,,,,,2019_Feb_08_1706,60.6871691287296,Cloud_Experiment_FR_REAL,001,17,
images/fcloud_D1.1_9.tif,1.1,0,,,,,,,,,,,,,0,29,29,14,,,,,,,,,,,None,None,None,21.981,,,,,,,,,,,,,,,,,,,2019_Feb_08_1706,60.6871691287296,Cloud_Experiment_FR_REAL,001,17,
images/fcloud65-35_D0.9_9.tif,0.9,1,,,,,,,,,,,,,0,30,30,54,,,,,,,,,,,1,space,4,1.087,4.89927872643,,,,,,,,,,,,,,,,,,2019_Feb_08_1706,60.6871691287296,Cloud_Experiment_FR_REAL,001,17,
images/fcloud80-20_D1.1_10.tif,1.1,2,,,,,,,,,,,,,0,31,31,111,,,,,,,,,,,1,space,4,1.35,3.33072946256,,,,,,,,,,,,,,,,,,2019_Feb_08_1706,60.6871691287296,Cloud_Experiment_FR_REAL,001,17,
images/fcloud65-35_D1_9.tif,1.0,1,,,,,,,,,,,,,0,32,32,58,,,,,,,,,,,1,space,5,1.238,4.68784239411,,,,,,,,,,,,,,,,,,2019_Feb_08_1706,60.6871691287296,Cloud_Experiment_FR_REAL,001,17,
images/fcloud65-35_D1.1_10.tif,1.1,1,,,,,,,,,,,,,0,33,33,63,,,,,,,,,,,2,space,5,1.052,2.65294099809,,,,,,,,,,,,,,,,,,2019_Feb_08_1706,60.6871691287296,Cloud_Experiment_FR_REAL,001,17,
images/fcloud_D1.7_10.tif,1.7,0,,,,,,,,,,,,,0,34,34,39,,,,,,,,,,,None,None,None,10.579,,,,,,,,,,,,,,,,,,,2019_Feb_08_1706,60.6871691287296,Cloud_Experiment_FR_REAL,001,17,
images/fcloud_D1.1_7.tif,1.1,0,,,,,,,,,,,,,0,35,35,12,,,,,,,,,,,None,None,None,19.268,,,,,,,,,,,,,,,,,,,2019_Feb_08_1706,60.6871691287296,Cloud_Experiment_FR_REAL,001,17,
images/fcloud80-20_D1.3_7.tif,1.3,2,,,,,,,,,,,,,0,36,36,116,,,,,,,,,,,1,space,4,0.703,4.16514651407,,,,,,,,,,,,,,,,,,2019_Feb_08_1706,60.6871691287296,Cloud_Experiment_FR_REAL,001,17,
images/fcloud_D1_7.tif,1.0,0,,,,,,,,,,,,,0,37,37,8,,,,,,,,,,,2,space,5,1.67,3.62244969828,,,,,,,,,,,,,,,,,,2019_Feb_08_1706,60.6871691287296,Cloud_Experiment_FR_REAL,001,17,
images/fcloud65-35_D1.8_10.tif,1.8,1,,,,,,,,,,,,,0,38,38,91,,,,,,,,,,,None,None,None,10.744,,,,,,,,,,,,,,,,,,,2019_Feb_08_1706,60.6871691287296,Cloud_Experiment_FR_REAL,001,17,
images/fcloud_D1.6_8.tif,1.6,0,,,,,,,,,,,,,0,39,39,33,,,,,,,,,,,2,space,3,1.289,3.95958225662,,,,,,,,,,,,,,,,,,2019_Feb_08_1706,60.6871691287296,Cloud_Experiment_FR_REAL,001,17,
images/fcloud65-35_D1.8_9.tif,1.8,1,,,,,,,,,,,,,0,40,40,90,,,,,,,,,,,None,None,None,10.308,,,,,,,,,,,,,,,,,,,2019_Feb_08_1706,60.6871691287296,Cloud_Experiment_FR_REAL,001,17,
images/fcloud_D0.8_7.tif,0.8,0,,,,,,,,,,,,,0,41,41,0,,,,,,,,,,,2,space,5,2.601,2.72197167645,,,,,,,,,,,,,,,,,,2019_Feb_08_1706,60.6871691287296,Cloud_Experiment_FR_REAL,001,17,
images/fcloud_D1.1_8.tif,1.1,0,,,,,,,,,,,,,0,42,42,13,,,,,,,,,,,2,space,2,1.118,4.67782187811,,,,,,,,,,,,,,,,,,2019_Feb_08_1706,60.6871691287296,Cloud_Experiment_FR_REAL,001,17,
images/fcloud80-20_D1.7_7.tif,1.7,2,,,,,,,,,,,,,0,43,43,132,,,,,,,,,,,None,None,None,12.49,,,,,,,,,,,,,,,,,,,2019_Feb_08_1706,60.6871691287296,Cloud_Experiment_FR_REAL,001,17,
images/fcloud80-20_D1.2_8.tif,1.2,2,,,,,,,,,,,,,0,44,44,113,,,,,,,,,,,1,space,1,1.419,7.59848024137,,,,,,,,,,,,,,,,,,2019_Feb_08_1706,60.6871691287296,Cloud_Experiment_FR_REAL,001,17,
images/fcloud80-20_D1.9_9.tif,1.9,2,,,,,,,,,,,,,0,45,45,142,,,,,,,,,,,None,None,None,9.91,,,,,,,,,,,,,,,,,,,2019_Feb_08_1706,60.6871691287296,Cloud_Experiment_FR_REAL,001,17,
images/fcloud65-35_D0.9_7.tif,0.9,1,,,,,,,,,,,,,0,46,46,52,,,,,,,,,,,1,space,3,2.034,7.03025020706,,,,,,,,,,,,,,,,,,2019_Feb_08_1706,60.6871691287296,Cloud_Experiment_FR_REAL,001,17,
images/fcloud80-20_D1.4_8.tif,1.4,2,,,,,,,,,,,,,0,47,47,121,,,,,,,,,,,2,space,4,1.199,4.82125770254,,,,,,,,,,,,,,,,,,2019_Feb_08_1706,60.6871691287296,Cloud_Experiment_FR_REAL,001,17,
images/fcloud_D1.4_7.tif,1.4,0,,,,,,,,,,,,,0,48,48,24,,,,,,,,,,,2,space,4,0.938,6.10202286637,,,,,,,,,,,,,,,,,,2019_Feb_08_1706,60.6871691287296,Cloud_Experiment_FR_REAL,001,17,
images/fcloud65-35_D1.1_8.tif,1.1,1,,,,,,,,,,,,,0,49,49,61,,,,,,,,,,,None,None,None,11.391,,,,,,,,,,,,,,,,,,,2019_Feb_08_1706,60.6871691287296,Cloud_Experiment_FR_REAL,001,17,
images/fcloud65-35_D1.3_7.tif,1.3,1,,,,,,,,,,,,,0,50,50,68,,,,,,,,,,,2,space,4,0.869,2.60884414765,,,,,,,,,,,,,,,,,,2019_Feb_08_1706,60.6871691287296,Cloud_Experiment_FR_REAL,001,17,
images/fcloud_D1.5_9.tif,1.5,0,,,,,,,,,,,,,0,51,51,30,,,,,,,,,,,2,space,3,0.651,4.81850287016,,,,,,,,,,,,,,,,,,2019_Feb_08_1706,60.6871691287296,Cloud_Experiment_FR_REAL,001,17,
images/fcloud80-20_D1.5_8.tif,1.5,2,,,,,,,,,,,,,0,52,52,125,,,,,,,,,,,None,None,None,9.744,,,,,,,,,,,,,,,,,,,2019_Feb_08_1706,60.6871691287296,Cloud_Experiment_FR_REAL,001,17,
images/fcloud_D1.9_10.tif,1.9,0,,,,,,,,,,,,,0,53,53,47,,,,,,,,,,,1,space,1,0.635,7.88693981268,,,,,,,,,,,,,,,,,,2019_Feb_08_1706,60.6871691287296,Cloud_Experiment_FR_REAL,001,17,
images/fcloud80-20_D1_10.tif,1.0,2,,,,,,,,,,,,,0,54,54,107,,,,,,,,,,,None,None,None,9.547,,,,,,,,,,,,,,,,,,,2019_Feb_08_1706,60.6871691287296,Cloud_Experiment_FR_REAL,001,17,
images/fcloud_D1.9_8.tif,1.9,0,,,,,,,,,,,,,0,55,55,45,,,,,,,,,,,1,space,5,0.771,3.37274746585,,,,,,,,,,,,,,,,,,2019_Feb_08_1706,60.6871691287296,Cloud_Experiment_FR_REAL,001,17,
images/fcloud65-35_D1.2_7.tif,1.2,1,,,,,,,,,,,,,0,56,56,64,,,,,,,,,,,3,space,4,1.351,4.59216864768,,,,,,,,,,,,,,,,,,2019_Feb_08_1706,60.6871691287296,Cloud_Experiment_FR_REAL,001,17,
images/fcloud80-20_D1.7_9.tif,1.7,2,,,,,,,,,,,,,0,57,57,134,,,,,,,,,,,1,space,3,1.668,2.64183170907,,,,,,,,,,,,,,,,,,2019_Feb_08_1706,60.6871691287296,Cloud_Experiment_FR_REAL,001,17,
images/fcloud65-35_D1.8_8.tif,1.8,1,,,,,,,,,,,,,0,58,58,89,,,,,,,,,,,None,None,None,10.292,,,,,,,,,,,,,,,,,,,2019_Feb_08_1706,60.6871691287296,Cloud_Experiment_FR_REAL,001,17,
images/fcloud65-35_D1.9_8.tif,1.9,1,,,,,,,,,,,,,0,59,59,93,,,,,,,,,,,2,space,2,0.616,5.60421917541,,,,,,,,,,,,,,,,,,2019_Feb_08_1706,60.6871691287296,Cloud_Experiment_FR_REAL,001,17,
images/fcloud_D1.3_7.tif,1.3,0,,,,,,,,,,,,,0,60,60,20,,,,,,,,,,,2,space,2,1.236,6.92698280839,,,,,,,,,,,,,,,,,,2019_Feb_08_1706,60.6871691287296,Cloud_Experiment_FR_REAL,001,17,
images/fcloud80-20_D1.3_10.tif,1.3,2,,,,,,,,,,,,,0,61,61,119,,,,,,,,,,,1,space,4,0.852,3.90136168594,,,,,,,,,,,,,,,,,,2019_Feb_08_1706,60.6871691287296,Cloud_Experiment_FR_REAL,001,17,
images/fcloud65-35_D1.9_7.tif,1.9,1,,,,,,,,,,,,,0,62,62,92,,,,,,,,,,,1,space,3,1.597,6.82113946939,,,,,,,,,,,,,,,,,,2019_Feb_08_1706,60.6871691287296,Cloud_Experiment_FR_REAL,001,17,
images/fcloud80-20_D1.7_10.tif,1.7,2,,,,,,,,,,,,,0,63,63,135,,,,,,,,,,,1,space,2,0.569,2.95754916058,,,,,,,,,,,,,,,,,,2019_Feb_08_1706,60.6871691287296,Cloud_Experiment_FR_REAL,001,17,
images/fcloud80-20_D1.5_9.tif,1.5,2,,,,,,,,,,,,,0,64,64,126,,,,,,,,,,,1,space,4,0.969,2.12177962472,,,,,,,,,,,,,,,,,,2019_Feb_08_1706,60.6871691287296,Cloud_Experiment_FR_REAL,001,17,
images/fcloud_D1.5_7.tif,1.5,0,,,,,,,,,,,,,0,65,65,28,,,,,,,,,,,1,space,2,2.151,5.32524961326,,,,,,,,,,,,,,,,,,2019_Feb_08_1706,60.6871691287296,Cloud_Experiment_FR_REAL,001,17,
images/fcloud80-20_D1_7.tif,1.0,2,,,,,,,,,,,,,0,66,66,104,,,,,,,,,,,1,space,5,3.264,2.01919797831,,,,,,,,,,,,,,,,,,2019_Feb_08_1706,60.6871691287296,Cloud_Experiment_FR_REAL,001,17,
images/fcloud80-20_D0.9_7.tif,0.9,2,,,,,,,,,,,,,0,67,67,100,,,,,,,,,,,1,space,5,0.885,1.26321165427,,,,,,,,,,,,,,,,,,2019_Feb_08_1706,60.6871691287296,Cloud_Experiment_FR_REAL,001,17,
images/fcloud_D1.8_8.tif,1.8,0,,,,,,,,,,,,,0,68,68,41,,,,,,,,,,,1,None,None,None,,,,,,,,,,,,,,,,,,,2019_Feb_08_1706,60.6871691287296,Cloud_Experiment_FR_REAL,001,17,
images/fcloud80-20_D1.8_8.tif,1.8,2,,,,,,,,,,,,,0,69,69,137,,,,,,,,,,,None,None,None,14.057,,,,,,,,,,,,,,,,,,,2019_Feb_08_1706,60.6871691287296,Cloud_Experiment_FR_REAL,001,17,
images/fcloud_D0.8_8.tif,0.8,0,,,,,,,,,,,,,0,70,70,1,,,,,,,,,,,2,space,2,1.405,3.92480937473,,,,,,,,,,,,,,,,,,2019_Feb_08_1706,60.6871691287296,Cloud_Experiment_FR_REAL,001,17,
images/fcloud80-20_D1.9_7.tif,1.9,2,,,,,,,,,,,,,0,71,71,140,,,,,,,,,,,None,None,None,10.259,,,,,,,,,,,,,,,,,,,2019_Feb_08_1706,60.6871691287296,Cloud_Experiment_FR_REAL,001,17,
images/fcloud65-35_D1.3_8.tif,1.3,1,,,,,,,,,,,,,0,72,72,69,,,,,,,,,,,1,space,2,0.619,2.47397971223,,,,,,,,,,,,,,,,,,2019_Feb_08_1706,60.6871691287296,Cloud_Experiment_FR_REAL,001,17,
images/fcloud65-35_D1.5_8.tif,1.5,1,,,,,,,,,,,,,0,73,73,77,,,,,,,,,,,None,None,None,9.461,,,,,,,,,,,,,,,,,,,2019_Feb_08_1706,60.6871691287296,Cloud_Experiment_FR_REAL,001,17,
images/fcloud65-35_D1.3_10.tif,1.3,1,,,,,,,,,,,,,0,74,74,71,,,,,,,,,,,1,space,4,0.798,2.74895967683,,,,,,,,,,,,,,,,,,2019_Feb_08_1706,60.6871691287296,Cloud_Experiment_FR_REAL,001,17,
images/fcloud_D1.5_10.tif,1.5,0,,,,,,,,,,,,,0,75,75,31,,,,,,,,,,,1,space,1,1.267,6.59386246605,,,,,,,,,,,,,,,,,,2019_Feb_08_1706,60.6871691287296,Cloud_Experiment_FR_REAL,001,17,
images/fcloud_D1.6_9.tif,1.6,0,,,,,,,,,,,,,0,76,76,34,,,,,,,,,,,1,space,2,2.436,5.90859858249,,,,,,,,,,,,,,,,,,2019_Feb_08_1706,60.6871691287296,Cloud_Experiment_FR_REAL,001,17,
images/fcloud65-35_D1.5_10.tif,1.5,1,,,,,,,,,,,,,0,77,77,79,,,,,,,,,,,1,space,2,1.235,7.53818904865,,,,,,,,,,,,,,,,,,2019_Feb_08_1706,60.6871691287296,Cloud_Experiment_FR_REAL,001,17,
images/fcloud80-20_D0.9_8.tif,0.9,2,,,,,,,,,,,,,0,78,78,101,,,,,,,,,,,1,space,2,0.952,4.36318446067,,,,,,,,,,,,,,,,,,2019_Feb_08_1706,60.6871691287296,Cloud_Experiment_FR_REAL,001,17,
images/fcloud80-20_D0.8_9.tif,0.8,2,,,,,,,,,,,,,0,79,79,98,,,,,,,,,,,1,space,4,2.871,3.2320207227,,,,,,,,,,,,,,,,,,2019_Feb_08_1706,60.6871691287296,Cloud_Experiment_FR_REAL,001,17,
images/fcloud_D1.4_9.tif,1.4,0,,,,,,,,,,,,,0,80,80,26,,,,,,,,,,,1,space,3,1.919,2.55256568501,,,,,,,,,,,,,,,,,,2019_Feb_08_1706,60.6871691287296,Cloud_Experiment_FR_REAL,001,17,
images/fcloud_D1_9.tif,1.0,0,,,,,,,,,,,,,0,81,81,10,,,,,,,,,,,None,None,None,11.044,,,,,,,,,,,,,,,,,,,2019_Feb_08_1706,60.6871691287296,Cloud_Experiment_FR_REAL,001,17,
images/fcloud80-20_D1.5_10.tif,1.5,2,,,,,,,,,,,,,0,82,82,127,,,,,,,,,,,1,space,4,1.335,4.94856395561,,,,,,,,,,,,,,,,,,2019_Feb_08_1706,60.6871691287296,Cloud_Experiment_FR_REAL,001,17,
images/fcloud_D1.3_8.tif,1.3,0,,,,,,,,,,,,,0,83,83,21,,,,,,,,,,,2,space,5,4.424,3.04825094622,,,,,,,,,,,,,,,,,,2019_Feb_08_1706,60.6871691287296,Cloud_Experiment_FR_REAL,001,17,
images/fcloud80-20_D1.3_9.tif,1.3,2,,,,,,,,,,,,,0,84,84,118,,,,,,,,,,,1,space,1,0.602,6.81168390217,,,,,,,,,,,,,,,,,,2019_Feb_08_1706,60.6871691287296,Cloud_Experiment_FR_REAL,001,17,
images/fcloud_D1.6_7.tif,1.6,0,,,,,,,,,,,,,0,85,85,32,,,,,,,,,,,1,space,2,0.802,5.63048543956,,,,,,,,,,,,,,,,,,2019_Feb_08_1706,60.6871691287296,Cloud_Experiment_FR_REAL,001,17,
images/fcloud65-35_D1.7_7.tif,1.7,1,,,,,,,,,,,,,0,86,86,84,,,,,,,,,,,None,None,None,9.392,,,,,,,,,,,,,,,,,,,2019_Feb_08_1706,60.6871691287296,Cloud_Experiment_FR_REAL,001,17,
images/fcloud_D1.1_10.tif,1.1,0,,,,,,,,,,,,,0,87,87,15,,,,,,,,,,,2,space,3,1.084,5.31859462941,,,,,,,,,,,,,,,,,,2019_Feb_08_1706,60.6871691287296,Cloud_Experiment_FR_REAL,001,17,
images/fcloud65-35_D0.8_10.tif,0.8,1,,,,,,,,,,,,,0,88,88,51,,,,,,,,,,,1,space,2,0.689,3.16420681751,,,,,,,,,,,,,,,,,,2019_Feb_08_1706,60.6871691287296,Cloud_Experiment_FR_REAL,001,17,
images/fcloud80-20_D1.4_10.tif,1.4,2,,,,,,,,,,,,,0,89,89,123,,,,,,,,,,,1,space,5,0.585,1.48827564158,,,,,,,,,,,,,,,,,,2019_Feb_08_1706,60.6871691287296,Cloud_Experiment_FR_REAL,001,17,
images/fcloud80-20_D1.5_7.tif,1.5,2,,,,,,,,,,,,,0,90,90,124,,,,,,,,,,,None,None,None,9.061,,,,,,,,,,,,,,,,,,,2019_Feb_08_1706,60.6871691287296,Cloud_Experiment_FR_REAL,001,17,
images/fcloud80-20_D1.8_10.tif,1.8,2,,,,,,,,,,,,,0,91,91,139,,,,,,,,,,,None,None,None,17.455,,,,,,,,,,,,,,,,,,,2019_Feb_08_1706,60.6871691287296,Cloud_Experiment_FR_REAL,001,17,
images/fcloud_D1_10.tif,1.0,0,,,,,,,,,,,,,0,92,92,11,,,,,,,,,,,1,space,3,1.271,4.10633786197,,,,,,,,,,,,,,,,,,2019_Feb_08_1706,60.6871691287296,Cloud_Experiment_FR_REAL,001,17,
images/fcloud80-20_D1.2_7.tif,1.2,2,,,,,,,,,,,,,0,93,93,112,,,,,,,,,,,None,space,None,11.525,2.971306358,,,,,,,,,,,,,,,,,,2019_Feb_08_1706,60.6871691287296,Cloud_Experiment_FR_REAL,001,17,
images/fcloud_D1.2_7.tif,1.2,0,,,,,,,,,,,,,0,94,94,16,,,,,,,,,,,None,None,None,20.749,,,,,,,,,,,,,,,,,,,2019_Feb_08_1706,60.6871691287296,Cloud_Experiment_FR_REAL,001,17,
images/fcloud80-20_D1.1_8.tif,1.1,2,,,,,,,,,,,,,0,95,95,109,,,,,,,,,,,1,space,4,0.851,5.75621559343,,,,,,,,,,,,,,,,,,2019_Feb_08_1706,60.6871691287296,Cloud_Experiment_FR_REAL,001,17,
images/fcloud80-20_D1_9.tif,1.0,2,,,,,,,,,,,,,0,96,96,106,,,,,,,,,,,None,None,None,10.742,,,,,,,,,,,,,,,,,,,2019_Feb_08_1706,60.6871691287296,Cloud_Experiment_FR_REAL,001,17,
images/fcloud65-35_D0.9_8.tif,0.9,1,,,,,,,,,,,,,0,97,97,53,,,,,,,,,,,1,space,4,0.586,5.22899755265,,,,,,,,,,,,,,,,,,2019_Feb_08_1706,60.6871691287296,Cloud_Experiment_FR_REAL,001,17,
images/fcloud80-20_D0.8_10.tif,0.8,2,,,,,,,,,,,,,0,98,98,99,,,,,,,,,,,2,space,4,0.801,1.86758453283,,,,,,,,,,,,,,,,,,2019_Feb_08_1706,60.6871691287296,Cloud_Experiment_FR_REAL,001,17,
images/fcloud_D1.8_7.tif,1.8,0,,,,,,,,,,,,,0,99,99,40,,,,,,,,,,,None,None,None,9.775,,,,,,,,,,,,,,,,,,,2019_Feb_08_1706,60.6871691287296,Cloud_Experiment_FR_REAL,001,17,
images/fcloud65-35_D1.1_7.tif,1.1,1,,,,,,,,,,,,,0,100,100,60,,,,,,,,,,,1,space,5,0.751,2.88332599087,,,,,,,,,,,,,,,,,,2019_Feb_08_1706,60.6871691287296,Cloud_Experiment_FR_REAL,001,17,
images/fcloud80-20_D1.4_7.tif,1.4,2,,,,,,,,,,,,,0,101,101,120,,,,,,,,,,,1,space,2,0.538,5.31857149687,,,,,,,,,,,,,,,,,,2019_Feb_08_1706,60.6871691287296,Cloud_Experiment_FR_REAL,001,17,
images/fcloud_D1.6_10.tif,1.6,0,,,,,,,,,,,,,0,102,102,35,,,,,,,,,,,None,None,None,9.211,,,,,,,,,,,,,,,,,,,2019_Feb_08_1706,60.6871691287296,Cloud_Experiment_FR_REAL,001,17,
images/fcloud65-35_D0.8_9.tif,0.8,1,,,,,,,,,,,,,0,103,103,50,,,,,,,,,,,2,space,2,1.118,3.10177868919,,,,,,,,,,,,,,,,,,2019_Feb_08_1706,60.6871691287296,Cloud_Experiment_FR_REAL,001,17,
images/fcloud_D0.8_9.tif,0.8,0,,,,,,,,,,,,,0,104,104,2,,,,,,,,,,,2,space,4,2.286,3.17946660402,,,,,,,,,,,,,,,,,,2019_Feb_08_1706,60.6871691287296,Cloud_Experiment_FR_REAL,001,17,
images/fcloud80-20_D0.9_9.tif,0.9,2,,,,,,,,,,,,,0,105,105,102,,,,,,,,,,,2,space,4,1.433,3.85747405689,,,,,,,,,,,,,,,,,,2019_Feb_08_1706,60.6871691287296,Cloud_Experiment_FR_REAL,001,17,
images/fcloud65-35_D0.9_10.tif,0.9,1,,,,,,,,,,,,,0,106,106,55,,,,,,,,,,,None,None,None,10.227,,,,,,,,,,,,,,,,,,,2019_Feb_08_1706,60.6871691287296,Cloud_Experiment_FR_REAL,001,17,
images/fcloud65-35_D1.6_8.tif,1.6,1,,,,,,,,,,,,,0,107,107,81,,,,,,,,,,,2,space,3,0.671,5.12964726938,,,,,,,,,,,,,,,,,,2019_Feb_08_1706,60.6871691287296,Cloud_Experiment_FR_REAL,001,17,
images/fcloud_D0.9_10.tif,0.9,0,,,,,,,,,,,,,0,108,108,7,,,,,,,,,,,1,space,3,1.65,3.38568165782,,,,,,,,,,,,,,,,,,2019_Feb_08_1706,60.6871691287296,Cloud_Experiment_FR_REAL,001,17,
images/fcloud65-35_D1.4_10.tif,1.4,1,,,,,,,,,,,,,0,109,109,75,,,,,,,,,,,None,None,None,10.91,,,,,,,,,,,,,,,,,,,2019_Feb_08_1706,60.6871691287296,Cloud_Experiment_FR_REAL,001,17,
images/fcloud80-20_D1.2_9.tif,1.2,2,,,,,,,,,,,,,0,110,110,114,,,,,,,,,,,None,None,None,19.369,,,,,,,,,,,,,,,,,,,2019_Feb_08_1706,60.6871691287296,Cloud_Experiment_FR_REAL,001,17,
images/fcloud80-20_D0.8_8.tif,0.8,2,,,,,,,,,,,,,0,111,111,97,,,,,,,,,,,1,space,5,1.202,2.61772294284,,,,,,,,,,,,,,,,,,2019_Feb_08_1706,60.6871691287296,Cloud_Experiment_FR_REAL,001,17,
images/fcloud65-35_D1.6_7.tif,1.6,1,,,,,,,,,,,,,0,112,112,80,,,,,,,,,,,None,None,None,10.092,,,,,,,,,,,,,,,,,,,2019_Feb_08_1706,60.6871691287296,Cloud_Experiment_FR_REAL,001,17,
images/fcloud80-20_D1.6_8.tif,1.6,2,,,,,,,,,,,,,0,113,113,129,,,,,,,,,,,1,space,1,0.623,4.94409063039,,,,,,,,,,,,,,,,,,2019_Feb_08_1706,60.6871691287296,Cloud_Experiment_FR_REAL,001,17,
images/fcloud80-20_D1.8_9.tif,1.8,2,,,,,,,,,,,,,0,114,114,138,,,,,,,,,,,1,space,2,0.603,4.29367519508,,,,,,,,,,,,,,,,,,2019_Feb_08_1706,60.6871691287296,Cloud_Experiment_FR_REAL,001,17,
images/fcloud_D0.9_7.tif,0.9,0,,,,,,,,,,,,,0,115,115,4,,,,,,,,,,,2,space,5,1.401,3.09604129731,,,,,,,,,,,,,,,,,,2019_Feb_08_1706,60.6871691287296,Cloud_Experiment_FR_REAL,001,17,
images/fcloud_D1.4_8.tif,1.4,0,,,,,,,,,,,,,0,116,116,25,,,,,,,,,,,None,None,None,10.444,,,,,,,,,,,,,,,,,,,2019_Feb_08_1706,60.6871691287296,Cloud_Experiment_FR_REAL,001,17,
images/fcloud65-35_D1.5_7.tif,1.5,1,,,,,,,,,,,,,0,117,117,76,,,,,,,,,,,1,space,3,0.901,4.3910977639,,,,,,,,,,,,,,,,,,2019_Feb_08_1706,60.6871691287296,Cloud_Experiment_FR_REAL,001,17,
images/fcloud65-35_D1.6_10.tif,1.6,1,,,,,,,,,,,,,0,118,118,83,,,,,,,,,,,1,space,2,0.517,4.63193508075,,,,,,,,,,,,,,,,,,2019_Feb_08_1706,60.6871691287296,Cloud_Experiment_FR_REAL,001,17,
images/fcloud65-35_D1.4_9.tif,1.4,1,,,,,,,,,,,,,0,119,119,74,,,,,,,,,,,1,space,1,1.288,4.03068458533,,,,,,,,,,,,,,,,,,2019_Feb_08_1706,60.6871691287296,Cloud_Experiment_FR_REAL,001,17,
images/fcloud65-35_D1_8.tif,1.0,1,,,,,,,,,,,,,0,120,120,57,,,,,,,,,,,1,space,4,0.701,2.64432745648,,,,,,,,,,,,,,,,,,2019_Feb_08_1706,60.6871691287296,Cloud_Experiment_FR_REAL,001,17,
images/fcloud_D0.9_8.tif,0.9,0,,,,,,,,,,,,,0,121,121,5,,,,,,,,,,,1,space,3,0.635,5.74170170387,,,,,,,,,,,,,,,,,,2019_Feb_08_1706,60.6871691287296,Cloud_Experiment_FR_REAL,001,17,
images/fcloud65-35_D1.2_9.tif,1.2,1,,,,,,,,,,,,,0,122,122,66,,,,,,,,,,,None,None,None,9.536,,,,,,,,,,,,,,,,,,,2019_Feb_08_1706,60.6871691287296,Cloud_Experiment_FR_REAL,001,17,
images/fcloud_D0.9_9.tif,0.9,0,,,,,,,,,,,,,0,123,123,6,,,,,,,,,,,2,space,2,1.655,6.08982326207,,,,,,,,,,,,,,,,,,2019_Feb_08_1706,60.6871691287296,Cloud_Experiment_FR_REAL,001,17,
images/fcloud_D0.8_10.tif,0.8,0,,,,,,,,,,,,,0,124,124,3,,,,,,,,,,,2,space,3,1.268,3.81881952938,,,,,,,,,,,,,,,,,,2019_Feb_08_1706,60.6871691287296,Cloud_Experiment_FR_REAL,001,17,
images/fcloud_D1.3_9.tif,1.3,0,,,,,,,,,,,,,0,125,125,22,,,,,,,,,,,None,None,None,10.5,,,,,,,,,,,,,,,,,,,2019_Feb_08_1706,60.6871691287296,Cloud_Experiment_FR_REAL,001,17,
images/fcloud_D1.7_9.tif,1.7,0,,,,,,,,,,,,,0,126,126,38,,,,,,,,,,,None,None,None,19.088,,,,,,,,,,,,,,,,,,,2019_Feb_08_1706,60.6871691287296,Cloud_Experiment_FR_REAL,001,17,
images/fcloud65-35_D1.7_10.tif,1.7,1,,,,,,,,,,,,,0,127,127,87,,,,,,,,,,,1,space,2,0.601,6.07158348616,,,,,,,,,,,,,,,,,,2019_Feb_08_1706,60.6871691287296,Cloud_Experiment_FR_REAL,001,17,
images/fcloud65-35_D1_10.tif,1.0,1,,,,,,,,,,,,,0,128,128,59,,,,,,,,,,,1,space,1,0.551,5.71607338474,,,,,,,,,,,,,,,,,,2019_Feb_08_1706,60.6871691287296,Cloud_Experiment_FR_REAL,001,17,
images/fcloud65-35_D1.3_9.tif,1.3,1,,,,,,,,,,,,,0,129,129,70,,,,,,,,,,,2,space,3,1.004,2.4342903879,,,,,,,,,,,,,,,,,,2019_Feb_08_1706,60.6871691287296,Cloud_Experiment_FR_REAL,001,17,
images/fcloud_D1.5_8.tif,1.5,0,,,,,,,,,,,,,0,130,130,29,,,,,,,,,,,None,space,None,10.257,7.52464672714,,,,,,,,,,,,,,,,,,2019_Feb_08_1706,60.6871691287296,Cloud_Experiment_FR_REAL,001,17,
images/fcloud_D1.8_9.tif,1.8,0,,,,,,,,,,,,,0,131,131,42,,,,,,,,,,,None,None,None,19.116,,,,,,,,,,,,,,,,,,,2019_Feb_08_1706,60.6871691287296,Cloud_Experiment_FR_REAL,001,17,
images/fcloud_D1.7_7.tif,1.7,0,,,,,,,,,,,,,0,132,132,36,,,,,,,,,,,None,None,None,27.759,,,,,,,,,,,,,,,,,,,2019_Feb_08_1706,60.6871691287296,Cloud_Experiment_FR_REAL,001,17,
images/fcloud80-20_D1.9_8.tif,1.9,2,,,,,,,,,,,,,0,133,133,141,,,,,,,,,,,None,None,None,37.051,,,,,,,,,,,,,,,,,,,2019_Feb_08_1706,60.6871691287296,Cloud_Experiment_FR_REAL,001,17,
images/fcloud80-20_D1_8.tif,1.0,2,,,,,,,,,,,,,0,134,134,105,,,,,,,,,,,2,space,3,1.403,2.15483401355,,,,,,,,,,,,,,,,,,2019_Feb_08_1706,60.6871691287296,Cloud_Experiment_FR_REAL,001,17,
images/fcloud65-35_D1.4_7.tif,1.4,1,,,,,,,,,,,,,0,135,135,72,,,,,,,,,,,1,space,4,2.1,2.99435668055,,,,,,,,,,,,,,,,,,2019_Feb_08_1706,60.6871691287296,Cloud_Experiment_FR_REAL,001,17,
images/fcloud65-35_D1.1_9.tif,1.1,1,,,,,,,,,,,,,0,136,136,62,,,,,,,,,,,None,None,None,11.041,,,,,,,,,,,,,,,,,,,2019_Feb_08_1706,60.6871691287296,Cloud_Experiment_FR_REAL,001,17,
images/fcloud65-35_D1.8_7.tif,1.8,1,,,,,,,,,,,,,0,137,137,88,,,,,,,,,,,2,space,2,0.852,4.92881439405,,,,,,,,,,,,,,,,,,2019_Feb_08_1706,60.6871691287296,Cloud_Experiment_FR_REAL,001,17,
images/fcloud_D1.8_10.tif,1.8,0,,,,,,,,,,,,,0,138,138,43,,,,,,,,,,,2,space,1,1.853,6.56904121651,,,,,,,,,,,,,,,,,,2019_Feb_08_1706,60.6871691287296,Cloud_Experiment_FR_REAL,001,17,
images/fcloud80-20_D1.2_10.tif,1.2,2,,,,,,,,,,,,,0,139,139,115,,,,,,,,,,,1,space,3,1.271,4.55632344261,,,,,,,,,,,,,,,,,,2019_Feb_08_1706,60.6871691287296,Cloud_Experiment_FR_REAL,001,17,
images/fcloud65-35_D1.7_8.tif,1.7,1,,,,,,,,,,,,,0,140,140,85,,,,,,,,,,,1,space,4,0.501,3.23009763495,,,,,,,,,,,,,,,,,,2019_Feb_08_1706,60.6871691287296,Cloud_Experiment_FR_REAL,001,17,
images/fcloud65-35_D1.2_8.tif,1.2,1,,,,,,,,,,,,,0,141,141,65,,,,,,,,,,,1,space,4,1.385,6.345278822,,,,,,,,,,,,,,,,,,2019_Feb_08_1706,60.6871691287296,Cloud_Experiment_FR_REAL,001,17,
images/fcloud65-35_D1.9_10.tif,1.9,1,,,,,,,,,,,,,0,142,142,95,,,,,,,,,,,None,None,None,10.145,,,,,,,,,,,,,,,,,,,2019_Feb_08_1706,60.6871691287296,Cloud_Experiment_FR_REAL,001,17,
images/fcloud65-35_D1_7.tif,1.0,1,,,,,,,,,,,,,0,143,143,56,,,,,,,,,,,1,space,4,0.702,3.96688957897,,,,,,,,,,,,,,,,,,2019_Feb_08_1706,60.6871691287296,Cloud_Experiment_FR_REAL,001,17,
,,,,,,,,,,,,,,,,,,,,,,,,,2,6.906,,,,,,,,,,,,,,,,,,,,,,,,,2019_Feb_08_1706,60.6871691287296,Cloud_Experiment_FR_REAL,001,17,
,,,,,,,,,,,,,,,,,,,,,,,,,,,,,,,,,,2,,,,,,,,,,,,,,,,,2019_Feb_08_1706,60.6871691287296,Cloud_Experiment_FR_REAL,001,17,
,,,,,,,,,,,,,,,,,,,,,,,,,,,,,,,,,,,3,,,,,,,,,,,,,,,,2019_Feb_08_1706,60.6871691287296,Cloud_Experiment_FR_REAL,001,17,
,,,,,,,,,,,,,,,,,,,,,,,,,,,,,,,,,,,,3,,,,,,,,,,,,,,,2019_Feb_08_1706,60.6871691287296,Cloud_Experiment_FR_REAL,001,17,
,,,,,,,,,,,,,,,,,,,,,,,,,,,,,,,,,,,,,2,,,,,,,,,,,,,,2019_Feb_08_1706,60.6871691287296,Cloud_Experiment_FR_REAL,001,17,
,,,,,,,,,,,,,,,,,,,,,,,,,,,,,,,,,,,,,,1,,,,,,,,,,,,,2019_Feb_08_1706,60.6871691287296,Cloud_Experiment_FR_REAL,001,17,
,,,,,,,,,,,,,,,,,,,,,,,,,,,,,,,,,,,,,,,3,,,,,,,,,,,,2019_Feb_08_1706,60.6871691287296,Cloud_Experiment_FR_REAL,001,17,
,,,,,,,,,,,,,,,,,,,,,,,,,,,,,,,,,,,,,,,,4,,,,,,,,,,,2019_Feb_08_1706,60.6871691287296,Cloud_Experiment_FR_REAL,001,17,
,,,,,,,,,,,,,,,,,,,,,,,,,,,,,,,,,,,,,,,,,6,,,,,,,,,,2019_Feb_08_1706,60.6871691287296,Cloud_Experiment_FR_REAL,001,17,
,,,,,,,,,,,,,,,,,,,,,,,,,,,,,,,,,,,,,,,,,,5,,,,,,,,,2019_Feb_08_1706,60.6871691287296,Cloud_Experiment_FR_REAL,001,17,
,,,,,,,,,,,,,,,,,,,,,,,,,,,,,,,,,,,,,,,,,,,6,,,,,,,,2019_Feb_08_1706,60.6871691287296,Cloud_Experiment_FR_REAL,001,17,
,,,,,,,,,,,,,,,,,,,,,,,,,,,,,,,,,,,,,,,,,,,,,,,,,,2,2019_Feb_08_1706,60.6871691287296,Cloud_Experiment_FR_REAL,001,17,
