ImageFile,FD,Contrast,trials_4.thisRepN,trials_4.thisTrialN,trials_4.thisN,trials_4.thisIndex,trials.thisRepN,trials.thisTrialN,trials.thisN,trials.thisIndex,trials_2.thisRepN,trials_2.thisTrialN,trials_2.thisN,trials_2.thisIndex,trials_3.thisRepN,trials_3.thisTrialN,trials_3.thisN,trials_3.thisIndex,end_instructions.keys,end_instructions.rt,key_resp_4.keys,key_resp_4.rt,key_resp_6.keys,key_resp_6.rt,Fatigue.response,Fatigue.rt,key_resp_5.keys,key_resp_5.rt,n_objets.response,reaction_time.keys,vividness.response,vividness.rt,Flow01.response,Flow02.response,Flow03.response,Flow04.response,Flow05.response,Flow06.response,Flow07.response,Flow08.response,Flow09.response,Flow10.response,key_resp_2.keys,key_resp_2.rt,reaction_time.rt,key_resp_8.keys,key_resp_8.rt,key_resp_3.keys,key_resp_3.rt,Redondance_question.response,date,frameRate,expName,session,participant,
,,,,,,,,,,,,,,,,,,,space,14.2069090309,,,,,,,,,,,,,,,,,,,,,,,,,,,,,,,2019_Feb_10_1539,60.149189570012176,Cloud_Experiment_FR_REAL,001,18,
,,,,,,,,,,,,,,,,,,,,,space,30.3095194646,,,,,,,,,,,,,,,,,,,,,,,,,,,,,2019_Feb_10_1539,60.149189570012176,Cloud_Experiment_FR_REAL,001,18,
,,,,,,,,,,,,,,,,,,,,,,,space,15.0227860973,,,,,,,,,,,,,,,,,,,,,,,,,,,2019_Feb_10_1539,60.149189570012176,Cloud_Experiment_FR_REAL,001,18,
,,,,,,,,,,,,,,,,,,,,,,,,,8,218.176,,,,,,,,,,,,,,,,,,,,,,,,,2019_Feb_10_1539,60.149189570012176,Cloud_Experiment_FR_REAL,001,18,
,,,,,,,,,,,,,,,,,,,,,,,,,,,space,3.31450941728,,,,,,,,,,,,,,,,,,,,,,,2019_Feb_10_1539,60.149189570012176,Cloud_Experiment_FR_REAL,001,18,
pratique/fcloud_D1.6_28,1.6,0,0,0,0,5,,,,,,,,,,,,,,,,,,,,,,,None,None,None,293.177,,,,,,,,,,,,,,,,,,,2019_Feb_10_1539,60.149189570012176,Cloud_Experiment_FR_REAL,001,18,
pratique/fcloud80-20_D1.5_30,1.5,2,0,1,1,8,,,,,,,,,,,,,,,,,,,,,,,None,None,None,302.421,,,,,,,,,,,,,,,,,,,2019_Feb_10_1539,60.149189570012176,Cloud_Experiment_FR_REAL,001,18,
pratique/fcloud65-35_D1.2_30,1.2,1,0,2,2,3,,,,,,,,,,,,,,,,,,,,,,,None,None,None,311.43,,,,,,,,,,,,,,,,,,,2019_Feb_10_1539,60.149189570012176,Cloud_Experiment_FR_REAL,001,18,
pratique/fcloud80-20_D1_30,1.0,2,0,3,3,9,,,,,,,,,,,,,,,,,,,,,,,None,None,None,320.336,,,,,,,,,,,,,,,,,,,2019_Feb_10_1539,60.149189570012176,Cloud_Experiment_FR_REAL,001,18,
pratique/fcloud65-35_D1.6_30,1.6,1,0,4,4,2,,,,,,,,,,,,,,,,,,,,,,,None,None,None,329.534,,,,,,,,,,,,,,,,,,,2019_Feb_10_1539,60.149189570012176,Cloud_Experiment_FR_REAL,001,18,
pratique/fcloud65-35_D1.9_29,1.9,1,0,5,5,7,,,,,,,,,,,,,,,,,,,,,,,None,None,None,341.171,,,,,,,,,,,,,,,,,,,2019_Feb_10_1539,60.149189570012176,Cloud_Experiment_FR_REAL,001,18,
pratique/fcloud_D1.4_30,1.4,0,0,6,6,1,,,,,,,,,,,,,,,,,,,,,,,None,None,None,350.335,,,,,,,,,,,,,,,,,,,2019_Feb_10_1539,60.149189570012176,Cloud_Experiment_FR_REAL,001,18,
pratique/fcloud65-35_D1.3_30,1.3,1,0,7,7,6,,,,,,,,,,,,,,,,,,,,,,,None,None,None,359.523,,,,,,,,,,,,,,,,,,,2019_Feb_10_1539,60.149189570012176,Cloud_Experiment_FR_REAL,001,18,
pratique/fcloud80-20_D1.8_30,1.8,2,0,8,8,4,,,,,,,,,,,,,,,,,,,,,,,None,None,None,368.477,,,,,,,,,,,,,,,,,,,2019_Feb_10_1539,60.149189570012176,Cloud_Experiment_FR_REAL,001,18,
pratique/fcloud_D0.8_30,0.8,0,0,9,9,0,,,,,,,,,,,,,,,,,,,,,,,1,None,1,6.165,,,,,,,,,,,,,,,,,,,2019_Feb_10_1539,60.149189570012176,Cloud_Experiment_FR_REAL,001,18,
,,,,,,,,,,,,,,,,,,,,,,,,,,,,,,,,,6,,,,,,,,,,,,,,,,,,2019_Feb_10_1539,60.149189570012176,Cloud_Experiment_FR_REAL,001,18,
,,,,,,,,,,,,,,,,,,,,,,,,,,,,,,,,,,6,,,,,,,,,,,,,,,,,2019_Feb_10_1539,60.149189570012176,Cloud_Experiment_FR_REAL,001,18,
,,,,,,,,,,,,,,,,,,,,,,,,,,,,,,,,,,,6,,,,,,,,,,,,,,,,2019_Feb_10_1539,60.149189570012176,Cloud_Experiment_FR_REAL,001,18,
,,,,,,,,,,,,,,,,,,,,,,,,,,,,,,,,,,,,5,,,,,,,,,,,,,,,2019_Feb_10_1539,60.149189570012176,Cloud_Experiment_FR_REAL,001,18,
,,,,,,,,,,,,,,,,,,,,,,,,,,,,,,,,,,,,,5,,,,,,,,,,,,,,2019_Feb_10_1539,60.149189570012176,Cloud_Experiment_FR_REAL,001,18,
,,,,,,,,,,,,,,,,,,,,,,,,,,,,,,,,,,,,,,5,,,,,,,,,,,,,2019_Feb_10_1539,60.149189570012176,Cloud_Experiment_FR_REAL,001,18,
,,,,,,,,,,,,,,,,,,,,,,,,,,,,,,,,,,,,,,,5,,,,,,,,,,,,2019_Feb_10_1539,60.149189570012176,Cloud_Experiment_FR_REAL,001,18,
,,,,,,,,,,,,,,,,,,,,,,,,,,,,,,,,,,,,,,,,6,,,,,,,,,,,2019_Feb_10_1539,60.149189570012176,Cloud_Experiment_FR_REAL,001,18,
,,,,,,,,,,,,,,,,,,,,,,,,,,,,,,,,,,,,,,,,,6,,,,,,,,,,2019_Feb_10_1539,60.149189570012176,Cloud_Experiment_FR_REAL,001,18,
,,,,,,,,,,,,,,,,,,,,,,,,,,,,,,,,,,,,,,,,,,1,,,,,,,,,2019_Feb_10_1539,60.149189570012176,Cloud_Experiment_FR_REAL,001,18,
,,,,,,,,,,,,,,,,,,,,,,,,,,,,,,,,,,,,,,,,,,,space,3.43583512958,,,,,,,2019_Feb_10_1539,60.149189570012176,Cloud_Experiment_FR_REAL,001,18,
images/fcloud65-35_D0.8_1.tif,0.8,1,,,,,0,0,0,36,,,,,,,,,,,,,,,,,,,None,None,None,217.298,,,,,,,,,,,,,,,,,,,2019_Feb_10_1539,60.149189570012176,Cloud_Experiment_FR_REAL,001,18,
images/fcloud80-20_D1.8_1.tif,1.8,2,,,,,0,1,1,102,,,,,,,,,,,,,,,,,,,None,None,None,226.386,,,,,,,,,,,,,,,,,,,2019_Feb_10_1539,60.149189570012176,Cloud_Experiment_FR_REAL,001,18,
images/fcloud65-35_D1.1_1.tif,1.1,1,,,,,0,2,2,45,,,,,,,,,,,,,,,,,,,1,space,1,7.613,,,,,,,,,,,,,15.289122705,,,,,,2019_Feb_10_1539,60.149189570012176,Cloud_Experiment_FR_REAL,001,18,
images/fcloud65-35_D1.5_2.tif,1.5,1,,,,,0,3,3,58,,,,,,,,,,,,,,,,,,,None,None,None,17.036,,,,,,,,,,,,,,,,,,,2019_Feb_10_1539,60.149189570012176,Cloud_Experiment_FR_REAL,001,18,
images/fcloud65-35_D1.5_3.tif,1.5,1,,,,,0,4,4,59,,,,,,,,,,,,,,,,,,,None,None,None,27.329,,,,,,,,,,,,,,,,,,,2019_Feb_10_1539,60.149189570012176,Cloud_Experiment_FR_REAL,001,18,
images/fcloud_D1.5_1.tif,1.5,0,,,,,0,5,5,21,,,,,,,,,,,,,,,,,,,1,None,2,5.931,,,,,,,,,,,,,,,,,,,2019_Feb_10_1539,60.149189570012176,Cloud_Experiment_FR_REAL,001,18,
images/fcloud_D1.7_2.tif,1.7,0,,,,,0,6,6,28,,,,,,,,,,,,,,,,,,,None,None,None,15.36,,,,,,,,,,,,,,,,,,,2019_Feb_10_1539,60.149189570012176,Cloud_Experiment_FR_REAL,001,18,
images/fcloud_D1_2.tif,1.0,0,,,,,0,7,7,7,,,,,,,,,,,,,,,,,,,1,space,3,4.666,,,,,,,,,,,,,12.2234169481,,,,,,2019_Feb_10_1539,60.149189570012176,Cloud_Experiment_FR_REAL,001,18,
images/fcloud80-20_D1.4_1.tif,1.4,2,,,,,0,8,8,90,,,,,,,,,,,,,,,,,,,None,None,None,13.672,,,,,,,,,,,,,,,,,,,2019_Feb_10_1539,60.149189570012176,Cloud_Experiment_FR_REAL,001,18,
images/fcloud65-35_D1.7_3.tif,1.7,1,,,,,0,9,9,65,,,,,,,,,,,,,,,,,,,None,None,None,22.814,,,,,,,,,,,,,,,,,,,2019_Feb_10_1539,60.149189570012176,Cloud_Experiment_FR_REAL,001,18,
images/fcloud_D1.7_1.tif,1.7,0,,,,,0,10,10,27,,,,,,,,,,,,,,,,,,,None,None,None,31.889,,,,,,,,,,,,,,,,,,,2019_Feb_10_1539,60.149189570012176,Cloud_Experiment_FR_REAL,001,18,
images/fcloud80-20_D1.3_2.tif,1.3,2,,,,,0,11,11,88,,,,,,,,,,,,,,,,,,,1,None,1,3.235,,,,,,,,,,,,,,,,,,,2019_Feb_10_1539,60.149189570012176,Cloud_Experiment_FR_REAL,001,18,
images/fcloud65-35_D1.4_2.tif,1.4,1,,,,,0,12,12,55,,,,,,,,,,,,,,,,,,,1,None,2,2.169,,,,,,,,,,,,,,,,,,,2019_Feb_10_1539,60.149189570012176,Cloud_Experiment_FR_REAL,001,18,
images/fcloud65-35_D1.2_1.tif,1.2,1,,,,,0,13,13,48,,,,,,,,,,,,,,,,,,,None,None,None,11.307,,,,,,,,,,,,,,,,,,,2019_Feb_10_1539,60.149189570012176,Cloud_Experiment_FR_REAL,001,18,
images/fcloud65-35_D1.5_1.tif,1.5,1,,,,,0,14,14,57,,,,,,,,,,,,,,,,,,,None,None,None,20.369,,,,,,,,,,,,,,,,,,,2019_Feb_10_1539,60.149189570012176,Cloud_Experiment_FR_REAL,001,18,
images/fcloud_D1.1_3.tif,1.1,0,,,,,0,15,15,11,,,,,,,,,,,,,,,,,,,2,None,4,2.97,,,,,,,,,,,,,,,,,,,2019_Feb_10_1539,60.149189570012176,Cloud_Experiment_FR_REAL,001,18,
images/fcloud65-35_D1.1_2.tif,1.1,1,,,,,0,16,16,46,,,,,,,,,,,,,,,,,,,2,None,3,2.434,,,,,,,,,,,,,,,,,,,2019_Feb_10_1539,60.149189570012176,Cloud_Experiment_FR_REAL,001,18,
images/fcloud_D0.9_1.tif,0.9,0,,,,,0,17,17,3,,,,,,,,,,,,,,,,,,,None,None,None,11.976,,,,,,,,,,,,,,,,,,,2019_Feb_10_1539,60.149189570012176,Cloud_Experiment_FR_REAL,001,18,
images/fcloud80-20_D0.8_3.tif,0.8,2,,,,,0,18,18,74,,,,,,,,,,,,,,,,,,,None,None,None,20.803,,,,,,,,,,,,,,,,,,,2019_Feb_10_1539,60.149189570012176,Cloud_Experiment_FR_REAL,001,18,
images/fcloud_D0.9_2.tif,0.9,0,,,,,0,19,19,4,,,,,,,,,,,,,,,,,,,2,None,3,2.401,,,,,,,,,,,,,,,,,,,2019_Feb_10_1539,60.149189570012176,Cloud_Experiment_FR_REAL,001,18,
images/fcloud65-35_D0.8_2.tif,0.8,1,,,,,0,20,20,37,,,,,,,,,,,,,,,,,,,None,None,None,12.876,,,,,,,,,,,,,,,,,,,2019_Feb_10_1539,60.149189570012176,Cloud_Experiment_FR_REAL,001,18,
images/fcloud65-35_D0.9_1.tif,0.9,1,,,,,0,21,21,39,,,,,,,,,,,,,,,,,,,None,None,None,22.631,,,,,,,,,,,,,,,,,,,2019_Feb_10_1539,60.149189570012176,Cloud_Experiment_FR_REAL,001,18,
images/fcloud80-20_D1.5_3.tif,1.5,2,,,,,0,22,22,95,,,,,,,,,,,,,,,,,,,1,None,1,0.836,,,,,,,,,,,,,,,,,,,2019_Feb_10_1539,60.149189570012176,Cloud_Experiment_FR_REAL,001,18,
images/fcloud80-20_D0.9_1.tif,0.9,2,,,,,0,23,23,75,,,,,,,,,,,,,,,,,,,1,None,1,0.719,,,,,,,,,,,,,,,,,,,2019_Feb_10_1539,60.149189570012176,Cloud_Experiment_FR_REAL,001,18,
images/fcloud65-35_D1.7_1.tif,1.7,1,,,,,0,24,24,63,,,,,,,,,,,,,,,,,,,1,None,1,3.418,,,,,,,,,,,,,,,,,,,2019_Feb_10_1539,60.149189570012176,Cloud_Experiment_FR_REAL,001,18,
images/fcloud80-20_D0.9_3.tif,0.9,2,,,,,0,25,25,77,,,,,,,,,,,,,,,,,,,2,None,2,0.721,,,,,,,,,,,,,,,,,,,2019_Feb_10_1539,60.149189570012176,Cloud_Experiment_FR_REAL,001,18,
images/fcloud65-35_D1.3_2.tif,1.3,1,,,,,0,26,26,52,,,,,,,,,,,,,,,,,,,2,None,1,0.721,,,,,,,,,,,,,,,,,,,2019_Feb_10_1539,60.149189570012176,Cloud_Experiment_FR_REAL,001,18,
images/fcloud_D1.6_2.tif,1.6,0,,,,,0,27,27,25,,,,,,,,,,,,,,,,,,,None,None,None,9.646,,,,,,,,,,,,,,,,,,,2019_Feb_10_1539,60.149189570012176,Cloud_Experiment_FR_REAL,001,18,
images/fcloud_D0.8_2.tif,0.8,0,,,,,0,28,28,1,,,,,,,,,,,,,,,,,,,1,None,4,4.781,,,,,,,,,,,,,,,,,,,2019_Feb_10_1539,60.149189570012176,Cloud_Experiment_FR_REAL,001,18,
images/fcloud_D1.6_1.tif,1.6,0,,,,,0,29,29,24,,,,,,,,,,,,,,,,,,,1,None,3,2.001,,,,,,,,,,,,,,,,,,,2019_Feb_10_1539,60.149189570012176,Cloud_Experiment_FR_REAL,001,18,
images/fcloud80-20_D1.1_1.tif,1.1,2,,,,,0,30,30,81,,,,,,,,,,,,,,,,,,,None,None,None,11.424,,,,,,,,,,,,,,,,,,,2019_Feb_10_1539,60.149189570012176,Cloud_Experiment_FR_REAL,001,18,
images/fcloud65-35_D0.9_3.tif,0.9,1,,,,,0,31,31,41,,,,,,,,,,,,,,,,,,,None,None,None,20.25,,,,,,,,,,,,,,,,,,,2019_Feb_10_1539,60.149189570012176,Cloud_Experiment_FR_REAL,001,18,
images/fcloud80-20_D1.2_2.tif,1.2,2,,,,,0,32,32,85,,,,,,,,,,,,,,,,,,,1,None,3,1.519,,,,,,,,,,,,,,,,,,,2019_Feb_10_1539,60.149189570012176,Cloud_Experiment_FR_REAL,001,18,
images/fcloud80-20_D1.2_3.tif,1.2,2,,,,,0,33,33,86,,,,,,,,,,,,,,,,,,,None,None,None,10.408,,,,,,,,,,,,,,,,,,,2019_Feb_10_1539,60.149189570012176,Cloud_Experiment_FR_REAL,001,18,
images/fcloud65-35_D0.8_3.tif,0.8,1,,,,,0,34,34,38,,,,,,,,,,,,,,,,,,,1,None,1,1.483,,,,,,,,,,,,,,,,,,,2019_Feb_10_1539,60.149189570012176,Cloud_Experiment_FR_REAL,001,18,
images/fcloud_D1.9_3.tif,1.9,0,,,,,0,35,35,35,,,,,,,,,,,,,,,,,,,1,None,1,1.867,,,,,,,,,,,,,,,,,,,2019_Feb_10_1539,60.149189570012176,Cloud_Experiment_FR_REAL,001,18,
images/fcloud_D1_3.tif,1.0,0,,,,,0,36,36,8,,,,,,,,,,,,,,,,,,,2,None,2,3.866,,,,,,,,,,,,,,,,,,,2019_Feb_10_1539,60.149189570012176,Cloud_Experiment_FR_REAL,001,18,
images/fcloud65-35_D1.6_1.tif,1.6,1,,,,,0,37,37,60,,,,,,,,,,,,,,,,,,,None,None,None,13.539,,,,,,,,,,,,,,,,,,,2019_Feb_10_1539,60.149189570012176,Cloud_Experiment_FR_REAL,001,18,
images/fcloud80-20_D1.9_1.tif,1.9,2,,,,,0,38,38,105,,,,,,,,,,,,,,,,,,,1,None,3,1.169,,,,,,,,,,,,,,,,,,,2019_Feb_10_1539,60.149189570012176,Cloud_Experiment_FR_REAL,001,18,
images/fcloud80-20_D1.8_3.tif,1.8,2,,,,,0,39,39,104,,,,,,,,,,,,,,,,,,,None,None,None,10.594,,,,,,,,,,,,,,,,,,,2019_Feb_10_1539,60.149189570012176,Cloud_Experiment_FR_REAL,001,18,
images/fcloud80-20_D1_2.tif,1.0,2,,,,,0,40,40,79,,,,,,,,,,,,,,,,,,,None,None,None,19.119,,,,,,,,,,,,,,,,,,,2019_Feb_10_1539,60.149189570012176,Cloud_Experiment_FR_REAL,001,18,
images/fcloud65-35_D1.8_1.tif,1.8,1,,,,,0,41,41,66,,,,,,,,,,,,,,,,,,,None,None,None,28.228,,,,,,,,,,,,,,,,,,,2019_Feb_10_1539,60.149189570012176,Cloud_Experiment_FR_REAL,001,18,
images/fcloud65-35_D0.9_2.tif,0.9,1,,,,,0,42,42,40,,,,,,,,,,,,,,,,,,,None,None,None,37.169,,,,,,,,,,,,,,,,,,,2019_Feb_10_1539,60.149189570012176,Cloud_Experiment_FR_REAL,001,18,
images/fcloud65-35_D1.6_2.tif,1.6,1,,,,,0,43,43,61,,,,,,,,,,,,,,,,,,,None,None,None,52.906,,,,,,,,,,,,,,,,,,,2019_Feb_10_1539,60.149189570012176,Cloud_Experiment_FR_REAL,001,18,
images/fcloud65-35_D1_3.tif,1.0,1,,,,,0,44,44,44,,,,,,,,,,,,,,,,,,,1,None,4,1.153,,,,,,,,,,,,,,,,,,,2019_Feb_10_1539,60.149189570012176,Cloud_Experiment_FR_REAL,001,18,
images/fcloud80-20_D0.8_1.tif,0.8,2,,,,,0,45,45,72,,,,,,,,,,,,,,,,,,,None,None,None,10.043,,,,,,,,,,,,,,,,,,,2019_Feb_10_1539,60.149189570012176,Cloud_Experiment_FR_REAL,001,18,
images/fcloud80-20_D1.7_3.tif,1.7,2,,,,,0,46,46,101,,,,,,,,,,,,,,,,,,,2,None,3,1.418,,,,,,,,,,,,,,,,,,,2019_Feb_10_1539,60.149189570012176,Cloud_Experiment_FR_REAL,001,18,
images/fcloud80-20_D1.8_2.tif,1.8,2,,,,,0,47,47,103,,,,,,,,,,,,,,,,,,,2,None,2,1.202,,,,,,,,,,,,,,,,,,,2019_Feb_10_1539,60.149189570012176,Cloud_Experiment_FR_REAL,001,18,
images/fcloud80-20_D1.5_2.tif,1.5,2,,,,,0,48,48,94,,,,,,,,,,,,,,,,,,,1,None,1,1.186,,,,,,,,,,,,,,,,,,,2019_Feb_10_1539,60.149189570012176,Cloud_Experiment_FR_REAL,001,18,
images/fcloud80-20_D1.4_3.tif,1.4,2,,,,,0,49,49,92,,,,,,,,,,,,,,,,,,,1,None,4,1.07,,,,,,,,,,,,,,,,,,,2019_Feb_10_1539,60.149189570012176,Cloud_Experiment_FR_REAL,001,18,
images/fcloud80-20_D1.4_2.tif,1.4,2,,,,,0,50,50,91,,,,,,,,,,,,,,,,,,,1,None,1,0.719,,,,,,,,,,,,,,,,,,,2019_Feb_10_1539,60.149189570012176,Cloud_Experiment_FR_REAL,001,18,
images/fcloud80-20_D1.1_3.tif,1.1,2,,,,,0,51,51,83,,,,,,,,,,,,,,,,,,,2,None,3,1.417,,,,,,,,,,,,,,,,,,,2019_Feb_10_1539,60.149189570012176,Cloud_Experiment_FR_REAL,001,18,
images/fcloud80-20_D1.6_3.tif,1.6,2,,,,,0,52,52,98,,,,,,,,,,,,,,,,,,,1,None,3,2.42,,,,,,,,,,,,,,,,,,,2019_Feb_10_1539,60.149189570012176,Cloud_Experiment_FR_REAL,001,18,
images/fcloud_D0.9_3.tif,0.9,0,,,,,0,53,53,5,,,,,,,,,,,,,,,,,,,None,None,None,12.409,,,,,,,,,,,,,,,,,,,2019_Feb_10_1539,60.149189570012176,Cloud_Experiment_FR_REAL,001,18,
images/fcloud_D0.8_1.tif,0.8,0,,,,,0,54,54,0,,,,,,,,,,,,,,,,,,,1,None,1,0.736,,,,,,,,,,,,,,,,,,,2019_Feb_10_1539,60.149189570012176,Cloud_Experiment_FR_REAL,001,18,
images/fcloud_D1.1_2.tif,1.1,0,,,,,0,55,55,10,,,,,,,,,,,,,,,,,,,None,None,None,10.361,,,,,,,,,,,,,,,,,,,2019_Feb_10_1539,60.149189570012176,Cloud_Experiment_FR_REAL,001,18,
images/fcloud_D1.8_2.tif,1.8,0,,,,,0,56,56,31,,,,,,,,,,,,,,,,,,,1,None,4,1.352,,,,,,,,,,,,,,,,,,,2019_Feb_10_1539,60.149189570012176,Cloud_Experiment_FR_REAL,001,18,
images/fcloud65-35_D1.9_3.tif,1.9,1,,,,,0,57,57,71,,,,,,,,,,,,,,,,,,,None,None,None,10.175,,,,,,,,,,,,,,,,,,,2019_Feb_10_1539,60.149189570012176,Cloud_Experiment_FR_REAL,001,18,
images/fcloud65-35_D1.1_3.tif,1.1,1,,,,,0,58,58,47,,,,,,,,,,,,,,,,,,,2,None,4,1.334,,,,,,,,,,,,,,,,,,,2019_Feb_10_1539,60.149189570012176,Cloud_Experiment_FR_REAL,001,18,
images/fcloud65-35_D1.9_1.tif,1.9,1,,,,,0,59,59,69,,,,,,,,,,,,,,,,,,,1,None,1,0.604,,,,,,,,,,,,,,,,,,,2019_Feb_10_1539,60.149189570012176,Cloud_Experiment_FR_REAL,001,18,
images/fcloud80-20_D1.7_1.tif,1.7,2,,,,,0,60,60,99,,,,,,,,,,,,,,,,,,,1,None,4,1.687,,,,,,,,,,,,,,,,,,,2019_Feb_10_1539,60.149189570012176,Cloud_Experiment_FR_REAL,001,18,
images/fcloud65-35_D1.2_2.tif,1.2,1,,,,,0,61,61,49,,,,,,,,,,,,,,,,,,,None,None,None,10.71,,,,,,,,,,,,,,,,,,,2019_Feb_10_1539,60.149189570012176,Cloud_Experiment_FR_REAL,001,18,
images/fcloud80-20_D1.3_3.tif,1.3,2,,,,,0,62,62,89,,,,,,,,,,,,,,,,,,,1,None,2,2.384,,,,,,,,,,,,,,,,,,,2019_Feb_10_1539,60.149189570012176,Cloud_Experiment_FR_REAL,001,18,
images/fcloud80-20_D1.5_1.tif,1.5,2,,,,,0,63,63,93,,,,,,,,,,,,,,,,,,,1,None,2,1.053,,,,,,,,,,,,,,,,,,,2019_Feb_10_1539,60.149189570012176,Cloud_Experiment_FR_REAL,001,18,
images/fcloud_D0.8_3.tif,0.8,0,,,,,0,64,64,2,,,,,,,,,,,,,,,,,,,1,None,3,3.336,,,,,,,,,,,,,,,,,,,2019_Feb_10_1539,60.149189570012176,Cloud_Experiment_FR_REAL,001,18,
images/fcloud80-20_D1.9_2.tif,1.9,2,,,,,0,65,65,106,,,,,,,,,,,,,,,,,,,1,None,3,4.082,,,,,,,,,,,,,,,,,,,2019_Feb_10_1539,60.149189570012176,Cloud_Experiment_FR_REAL,001,18,
images/fcloud_D1.3_2.tif,1.3,0,,,,,0,66,66,16,,,,,,,,,,,,,,,,,,,1,None,1,0.703,,,,,,,,,,,,,,,,,,,2019_Feb_10_1539,60.149189570012176,Cloud_Experiment_FR_REAL,001,18,
images/fcloud_D1.2_3.tif,1.2,0,,,,,0,67,67,14,,,,,,,,,,,,,,,,,,,1,None,3,1.152,,,,,,,,,,,,,,,,,,,2019_Feb_10_1539,60.149189570012176,Cloud_Experiment_FR_REAL,001,18,
images/fcloud65-35_D1.8_3.tif,1.8,1,,,,,0,68,68,68,,,,,,,,,,,,,,,,,,,None,None,None,10.028,,,,,,,,,,,,,,,,,,,2019_Feb_10_1539,60.149189570012176,Cloud_Experiment_FR_REAL,001,18,
images/fcloud_D1.2_1.tif,1.2,0,,,,,0,69,69,12,,,,,,,,,,,,,,,,,,,1,None,3,2.783,,,,,,,,,,,,,,,,,,,2019_Feb_10_1539,60.149189570012176,Cloud_Experiment_FR_REAL,001,18,
images/fcloud65-35_D1.6_3.tif,1.6,1,,,,,0,70,70,62,,,,,,,,,,,,,,,,,,,1,None,4,0.736,,,,,,,,,,,,,,,,,,,2019_Feb_10_1539,60.149189570012176,Cloud_Experiment_FR_REAL,001,18,
images/fcloud80-20_D0.9_2.tif,0.9,2,,,,,0,71,71,76,,,,,,,,,,,,,,,,,,,1,None,4,1.036,,,,,,,,,,,,,,,,,,,2019_Feb_10_1539,60.149189570012176,Cloud_Experiment_FR_REAL,001,18,
images/fcloud80-20_D1.2_1.tif,1.2,2,,,,,0,72,72,84,,,,,,,,,,,,,,,,,,,None,None,None,10.057,,,,,,,,,,,,,,,,,,,2019_Feb_10_1539,60.149189570012176,Cloud_Experiment_FR_REAL,001,18,
images/fcloud_D1.9_1.tif,1.9,0,,,,,0,73,73,33,,,,,,,,,,,,,,,,,,,None,None,None,19.019,,,,,,,,,,,,,,,,,,,2019_Feb_10_1539,60.149189570012176,Cloud_Experiment_FR_REAL,001,18,
images/fcloud65-35_D1.9_2.tif,1.9,1,,,,,0,74,74,70,,,,,,,,,,,,,,,,,,,1,None,4,2.1,,,,,,,,,,,,,,,,,,,2019_Feb_10_1539,60.149189570012176,Cloud_Experiment_FR_REAL,001,18,
images/fcloud_D1_1.tif,1.0,0,,,,,0,75,75,6,,,,,,,,,,,,,,,,,,,1,None,4,1.166,,,,,,,,,,,,,,,,,,,2019_Feb_10_1539,60.149189570012176,Cloud_Experiment_FR_REAL,001,18,
images/fcloud80-20_D1_1.tif,1.0,2,,,,,0,76,76,78,,,,,,,,,,,,,,,,,,,1,None,5,1.601,,,,,,,,,,,,,,,,,,,2019_Feb_10_1539,60.149189570012176,Cloud_Experiment_FR_REAL,001,18,
images/fcloud80-20_D1.9_3.tif,1.9,2,,,,,0,77,77,107,,,,,,,,,,,,,,,,,,,1,None,5,1.72,,,,,,,,,,,,,,,,,,,2019_Feb_10_1539,60.149189570012176,Cloud_Experiment_FR_REAL,001,18,
images/fcloud65-35_D1.4_3.tif,1.4,1,,,,,0,78,78,56,,,,,,,,,,,,,,,,,,,1,None,1,2.136,,,,,,,,,,,,,,,,,,,2019_Feb_10_1539,60.149189570012176,Cloud_Experiment_FR_REAL,001,18,
images/fcloud65-35_D1.7_2.tif,1.7,1,,,,,0,79,79,64,,,,,,,,,,,,,,,,,,,1,None,3,0.789,,,,,,,,,,,,,,,,,,,2019_Feb_10_1539,60.149189570012176,Cloud_Experiment_FR_REAL,001,18,
images/fcloud_D1.3_3.tif,1.3,0,,,,,0,80,80,17,,,,,,,,,,,,,,,,,,,1,None,5,1.8,,,,,,,,,,,,,,,,,,,2019_Feb_10_1539,60.149189570012176,Cloud_Experiment_FR_REAL,001,18,
images/fcloud65-35_D1.2_3.tif,1.2,1,,,,,0,81,81,50,,,,,,,,,,,,,,,,,,,2,None,3,2.118,,,,,,,,,,,,,,,,,,,2019_Feb_10_1539,60.149189570012176,Cloud_Experiment_FR_REAL,001,18,
images/fcloud65-35_D1_2.tif,1.0,1,,,,,0,82,82,43,,,,,,,,,,,,,,,,,,,None,None,None,11.824,,,,,,,,,,,,,,,,,,,2019_Feb_10_1539,60.149189570012176,Cloud_Experiment_FR_REAL,001,18,
images/fcloud_D1.5_3.tif,1.5,0,,,,,0,83,83,23,,,,,,,,,,,,,,,,,,,None,None,None,20.866,,,,,,,,,,,,,,,,,,,2019_Feb_10_1539,60.149189570012176,Cloud_Experiment_FR_REAL,001,18,
images/fcloud_D1.4_1.tif,1.4,0,,,,,0,84,84,18,,,,,,,,,,,,,,,,,,,None,None,None,29.744,,,,,,,,,,,,,,,,,,,2019_Feb_10_1539,60.149189570012176,Cloud_Experiment_FR_REAL,001,18,
images/fcloud80-20_D1.1_2.tif,1.1,2,,,,,0,85,85,82,,,,,,,,,,,,,,,,,,,None,None,None,38.32,,,,,,,,,,,,,,,,,,,2019_Feb_10_1539,60.149189570012176,Cloud_Experiment_FR_REAL,001,18,
images/fcloud_D1.4_2.tif,1.4,0,,,,,0,86,86,19,,,,,,,,,,,,,,,,,,,None,None,None,46.86,,,,,,,,,,,,,,,,,,,2019_Feb_10_1539,60.149189570012176,Cloud_Experiment_FR_REAL,001,18,
images/fcloud65-35_D1.3_3.tif,1.3,1,,,,,0,87,87,53,,,,,,,,,,,,,,,,,,,None,None,None,56.318,,,,,,,,,,,,,,,,,,,2019_Feb_10_1539,60.149189570012176,Cloud_Experiment_FR_REAL,001,18,
images/fcloud_D1.5_2.tif,1.5,0,,,,,0,88,88,22,,,,,,,,,,,,,,,,,,,None,None,None,65.144,,,,,,,,,,,,,,,,,,,2019_Feb_10_1539,60.149189570012176,Cloud_Experiment_FR_REAL,001,18,
images/fcloud_D1.6_3.tif,1.6,0,,,,,0,89,89,26,,,,,,,,,,,,,,,,,,,None,None,None,74.153,,,,,,,,,,,,,,,,,,,2019_Feb_10_1539,60.149189570012176,Cloud_Experiment_FR_REAL,001,18,
images/fcloud80-20_D0.8_2.tif,0.8,2,,,,,0,90,90,73,,,,,,,,,,,,,,,,,,,None,None,None,82.616,,,,,,,,,,,,,,,,,,,2019_Feb_10_1539,60.149189570012176,Cloud_Experiment_FR_REAL,001,18,
images/fcloud65-35_D1.3_1.tif,1.3,1,,,,,0,91,91,51,,,,,,,,,,,,,,,,,,,1,None,5,1.068,,,,,,,,,,,,,,,,,,,2019_Feb_10_1539,60.149189570012176,Cloud_Experiment_FR_REAL,001,18,
images/fcloud65-35_D1_1.tif,1.0,1,,,,,0,92,92,42,,,,,,,,,,,,,,,,,,,None,None,None,10.529,,,,,,,,,,,,,,,,,,,2019_Feb_10_1539,60.149189570012176,Cloud_Experiment_FR_REAL,001,18,
images/fcloud_D1.8_3.tif,1.8,0,,,,,0,93,93,32,,,,,,,,,,,,,,,,,,,None,None,None,19.352,,,,,,,,,,,,,,,,,,,2019_Feb_10_1539,60.149189570012176,Cloud_Experiment_FR_REAL,001,18,
images/fcloud_D1.7_3.tif,1.7,0,,,,,0,94,94,29,,,,,,,,,,,,,,,,,,,None,None,None,27.915,,,,,,,,,,,,,,,,,,,2019_Feb_10_1539,60.149189570012176,Cloud_Experiment_FR_REAL,001,18,
images/fcloud_D1.3_1.tif,1.3,0,,,,,0,95,95,15,,,,,,,,,,,,,,,,,,,None,None,None,36.535,,,,,,,,,,,,,,,,,,,2019_Feb_10_1539,60.149189570012176,Cloud_Experiment_FR_REAL,001,18,
images/fcloud65-35_D1.8_2.tif,1.8,1,,,,,0,96,96,67,,,,,,,,,,,,,,,,,,,1,None,1,0.837,,,,,,,,,,,,,,,,,,,2019_Feb_10_1539,60.149189570012176,Cloud_Experiment_FR_REAL,001,18,
images/fcloud_D1.2_2.tif,1.2,0,,,,,0,97,97,13,,,,,,,,,,,,,,,,,,,None,None,None,10.892,,,,,,,,,,,,,,,,,,,2019_Feb_10_1539,60.149189570012176,Cloud_Experiment_FR_REAL,001,18,
images/fcloud80-20_D1.6_2.tif,1.6,2,,,,,0,98,98,97,,,,,,,,,,,,,,,,,,,None,None,None,19.951,,,,,,,,,,,,,,,,,,,2019_Feb_10_1539,60.149189570012176,Cloud_Experiment_FR_REAL,001,18,
images/fcloud_D1.9_2.tif,1.9,0,,,,,0,99,99,34,,,,,,,,,,,,,,,,,,,None,None,None,28.945,,,,,,,,,,,,,,,,,,,2019_Feb_10_1539,60.149189570012176,Cloud_Experiment_FR_REAL,001,18,
images/fcloud_D1.8_1.tif,1.8,0,,,,,0,100,100,30,,,,,,,,,,,,,,,,,,,None,None,None,38.235,,,,,,,,,,,,,,,,,,,2019_Feb_10_1539,60.149189570012176,Cloud_Experiment_FR_REAL,001,18,
images/fcloud80-20_D1.7_2.tif,1.7,2,,,,,0,101,101,100,,,,,,,,,,,,,,,,,,,1,None,1,1.12,,,,,,,,,,,,,,,,,,,2019_Feb_10_1539,60.149189570012176,Cloud_Experiment_FR_REAL,001,18,
images/fcloud65-35_D1.4_1.tif,1.4,1,,,,,0,102,102,54,,,,,,,,,,,,,,,,,,,None,None,None,10.392,,,,,,,,,,,,,,,,,,,2019_Feb_10_1539,60.149189570012176,Cloud_Experiment_FR_REAL,001,18,
images/fcloud80-20_D1.6_1.tif,1.6,2,,,,,0,103,103,96,,,,,,,,,,,,,,,,,,,None,None,None,19.355,,,,,,,,,,,,,,,,,,,2019_Feb_10_1539,60.149189570012176,Cloud_Experiment_FR_REAL,001,18,
images/fcloud_D1.1_1.tif,1.1,0,,,,,0,104,104,9,,,,,,,,,,,,,,,,,,,None,None,None,28.477,,,,,,,,,,,,,,,,,,,2019_Feb_10_1539,60.149189570012176,Cloud_Experiment_FR_REAL,001,18,
images/fcloud80-20_D1_3.tif,1.0,2,,,,,0,105,105,80,,,,,,,,,,,,,,,,,,,None,None,None,37.504,,,,,,,,,,,,,,,,,,,2019_Feb_10_1539,60.149189570012176,Cloud_Experiment_FR_REAL,001,18,
images/fcloud_D1.4_3.tif,1.4,0,,,,,0,106,106,20,,,,,,,,,,,,,,,,,,,None,None,None,46.226,,,,,,,,,,,,,,,,,,,2019_Feb_10_1539,60.149189570012176,Cloud_Experiment_FR_REAL,001,18,
images/fcloud80-20_D1.3_1.tif,1.3,2,,,,,0,107,107,87,,,,,,,,,,,,,,,,,,,None,None,None,54.987,,,,,,,,,,,,,,,,,,,2019_Feb_10_1539,60.149189570012176,Cloud_Experiment_FR_REAL,001,18,
,,,,,,,,,,,,,,,,,,,,,,,,,,,,,,,,,,,,,,,,,,,,,,space,5.59631811711,,,,2019_Feb_10_1539,60.149189570012176,Cloud_Experiment_FR_REAL,001,18,
,,,,,,,,,,,,,,,,,,,,,,,,,7,12.097,,,,,,,,,,,,,,,,,,,,,,,,,2019_Feb_10_1539,60.149189570012176,Cloud_Experiment_FR_REAL,001,18,
,,,,,,,,,,,,,,,,,,,,,,,,,,,,,,,,,5,,,,,,,,,,,,,,,,,,2019_Feb_10_1539,60.149189570012176,Cloud_Experiment_FR_REAL,001,18,
,,,,,,,,,,,,,,,,,,,,,,,,,,,,,,,,,,5,,,,,,,,,,,,,,,,,2019_Feb_10_1539,60.149189570012176,Cloud_Experiment_FR_REAL,001,18,
,,,,,,,,,,,,,,,,,,,,,,,,,,,,,,,,,,,5,,,,,,,,,,,,,,,,2019_Feb_10_1539,60.149189570012176,Cloud_Experiment_FR_REAL,001,18,
,,,,,,,,,,,,,,,,,,,,,,,,,,,,,,,,,,,,4,,,,,,,,,,,,,,,2019_Feb_10_1539,60.149189570012176,Cloud_Experiment_FR_REAL,001,18,
,,,,,,,,,,,,,,,,,,,,,,,,,,,,,,,,,,,,,4,,,,,,,,,,,,,,2019_Feb_10_1539,60.149189570012176,Cloud_Experiment_FR_REAL,001,18,
,,,,,,,,,,,,,,,,,,,,,,,,,,,,,,,,,,,,,,5,,,,,,,,,,,,,2019_Feb_10_1539,60.149189570012176,Cloud_Experiment_FR_REAL,001,18,
,,,,,,,,,,,,,,,,,,,,,,,,,,,,,,,,,,,,,,,5,,,,,,,,,,,,2019_Feb_10_1539,60.149189570012176,Cloud_Experiment_FR_REAL,001,18,
,,,,,,,,,,,,,,,,,,,,,,,,,,,,,,,,,,,,,,,,6,,,,,,,,,,,2019_Feb_10_1539,60.149189570012176,Cloud_Experiment_FR_REAL,001,18,
,,,,,,,,,,,,,,,,,,,,,,,,,,,,,,,,,,,,,,,,,6,,,,,,,,,,2019_Feb_10_1539,60.149189570012176,Cloud_Experiment_FR_REAL,001,18,
,,,,,,,,,,,,,,,,,,,,,,,,,,,,,,,,,,,,,,,,,,3,,,,,,,,,2019_Feb_10_1539,60.149189570012176,Cloud_Experiment_FR_REAL,001,18,
,,,,,,,,,,,,,,,,,,,,,,,,,,,,,,,,,,,,,,,,,,,,,,,,space,388.830782153,,2019_Feb_10_1539,60.149189570012176,Cloud_Experiment_FR_REAL,001,18,
images/fcloud65-35_D1.9_6.tif,1.9,1,,,,,,,,,0,0,0,71,,,,,,,,,,,,,,,1,None,4,1.006,,,,,,,,,,,,,,,,,,,2019_Feb_10_1539,60.149189570012176,Cloud_Experiment_FR_REAL,001,18,
images/fcloud65-35_D0.8_4.tif,0.8,1,,,,,,,,,0,1,1,36,,,,,,,,,,,,,,,None,None,None,9.845,,,,,,,,,,,,,,,,,,,2019_Feb_10_1539,60.149189570012176,Cloud_Experiment_FR_REAL,001,18,
images/fcloud80-20_D1_4.tif,1.0,2,,,,,,,,,0,2,2,78,,,,,,,,,,,,,,,None,None,None,19.158,,,,,,,,,,,,,,,,,,,2019_Feb_10_1539,60.149189570012176,Cloud_Experiment_FR_REAL,001,18,
images/fcloud80-20_D1.1_5.tif,1.1,2,,,,,,,,,0,3,3,82,,,,,,,,,,,,,,,None,None,None,28.247,,,,,,,,,,,,,,,,,,,2019_Feb_10_1539,60.149189570012176,Cloud_Experiment_FR_REAL,001,18,
images/fcloud80-20_D1.1_6.tif,1.1,2,,,,,,,,,0,4,4,83,,,,,,,,,,,,,,,None,None,None,36.709,,,,,,,,,,,,,,,,,,,2019_Feb_10_1539,60.149189570012176,Cloud_Experiment_FR_REAL,001,18,
images/fcloud_D0.8_4.tif,0.8,0,,,,,,,,,0,5,5,0,,,,,,,,,,,,,,,None,None,None,45.211,,,,,,,,,,,,,,,,,,,2019_Feb_10_1539,60.149189570012176,Cloud_Experiment_FR_REAL,001,18,
images/fcloud_D1_6.tif,1.0,0,,,,,,,,,0,6,6,8,,,,,,,,,,,,,,,1,None,1,1.051,,,,,,,,,,,,,,,,,,,2019_Feb_10_1539,60.149189570012176,Cloud_Experiment_FR_REAL,001,18,
images/fcloud65-35_D0.8_5.tif,0.8,1,,,,,,,,,0,7,7,37,,,,,,,,,,,,,,,1,None,2,0.934,,,,,,,,,,,,,,,,,,,2019_Feb_10_1539,60.149189570012176,Cloud_Experiment_FR_REAL,001,18,
images/fcloud65-35_D1.7_5.tif,1.7,1,,,,,,,,,0,8,8,64,,,,,,,,,,,,,,,None,None,None,10.792,,,,,,,,,,,,,,,,,,,2019_Feb_10_1539,60.149189570012176,Cloud_Experiment_FR_REAL,001,18,
images/fcloud_D1.9_6.tif,1.9,0,,,,,,,,,0,9,9,35,,,,,,,,,,,,,,,None,None,None,20.15,,,,,,,,,,,,,,,,,,,2019_Feb_10_1539,60.149189570012176,Cloud_Experiment_FR_REAL,001,18,
images/fcloud_D0.9_4.tif,0.9,0,,,,,,,,,0,10,10,3,,,,,,,,,,,,,,,1,None,5,1.169,,,,,,,,,,,,,,,,,,,2019_Feb_10_1539,60.149189570012176,Cloud_Experiment_FR_REAL,001,18,
images/fcloud65-35_D1.3_5.tif,1.3,1,,,,,,,,,0,11,11,52,,,,,,,,,,,,,,,None,None,None,10.362,,,,,,,,,,,,,,,,,,,2019_Feb_10_1539,60.149189570012176,Cloud_Experiment_FR_REAL,001,18,
images/fcloud80-20_D1.3_4.tif,1.3,2,,,,,,,,,0,12,12,87,,,,,,,,,,,,,,,None,None,None,19.149,,,,,,,,,,,,,,,,,,,2019_Feb_10_1539,60.149189570012176,Cloud_Experiment_FR_REAL,001,18,
images/fcloud80-20_D0.8_4.tif,0.8,2,,,,,,,,,0,13,13,72,,,,,,,,,,,,,,,None,None,None,28.027,,,,,,,,,,,,,,,,,,,2019_Feb_10_1539,60.149189570012176,Cloud_Experiment_FR_REAL,001,18,
images/fcloud_D1.9_4.tif,1.9,0,,,,,,,,,0,14,14,33,,,,,,,,,,,,,,,None,None,None,36.47,,,,,,,,,,,,,,,,,,,2019_Feb_10_1539,60.149189570012176,Cloud_Experiment_FR_REAL,001,18,
images/fcloud80-20_D0.8_5.tif,0.8,2,,,,,,,,,0,15,15,73,,,,,,,,,,,,,,,None,None,None,45.031,,,,,,,,,,,,,,,,,,,2019_Feb_10_1539,60.149189570012176,Cloud_Experiment_FR_REAL,001,18,
images/fcloud_D1.7_6.tif,1.7,0,,,,,,,,,0,16,16,29,,,,,,,,,,,,,,,None,None,None,53.938,,,,,,,,,,,,,,,,,,,2019_Feb_10_1539,60.149189570012176,Cloud_Experiment_FR_REAL,001,18,
images/fcloud65-35_D1_6.tif,1.0,1,,,,,,,,,0,17,17,44,,,,,,,,,,,,,,,None,None,None,62.979,,,,,,,,,,,,,,,,,,,2019_Feb_10_1539,60.149189570012176,Cloud_Experiment_FR_REAL,001,18,
images/fcloud_D1.3_4.tif,1.3,0,,,,,,,,,0,18,18,15,,,,,,,,,,,,,,,None,None,None,71.456,,,,,,,,,,,,,,,,,,,2019_Feb_10_1539,60.149189570012176,Cloud_Experiment_FR_REAL,001,18,
images/fcloud_D1.5_4.tif,1.5,0,,,,,,,,,0,19,19,21,,,,,,,,,,,,,,,1,None,5,1.469,,,,,,,,,,,,,,,,,,,2019_Feb_10_1539,60.149189570012176,Cloud_Experiment_FR_REAL,001,18,
images/fcloud_D1.1_6.tif,1.1,0,,,,,,,,,0,20,20,11,,,,,,,,,,,,,,,1,None,1,0.418,,,,,,,,,,,,,,,,,,,2019_Feb_10_1539,60.149189570012176,Cloud_Experiment_FR_REAL,001,18,
images/fcloud65-35_D1.8_5.tif,1.8,1,,,,,,,,,0,21,21,67,,,,,,,,,,,,,,,1,None,4,0.687,,,,,,,,,,,,,,,,,,,2019_Feb_10_1539,60.149189570012176,Cloud_Experiment_FR_REAL,001,18,
images/fcloud80-20_D1.4_6.tif,1.4,2,,,,,,,,,0,22,22,92,,,,,,,,,,,,,,,1,None,5,1.785,,,,,,,,,,,,,,,,,,,2019_Feb_10_1539,60.149189570012176,Cloud_Experiment_FR_REAL,001,18,
images/fcloud_D1.1_4.tif,1.1,0,,,,,,,,,0,23,23,9,,,,,,,,,,,,,,,1,None,3,1.718,,,,,,,,,,,,,,,,,,,2019_Feb_10_1539,60.149189570012176,Cloud_Experiment_FR_REAL,001,18,
images/fcloud65-35_D1.1_4.tif,1.1,1,,,,,,,,,0,24,24,45,,,,,,,,,,,,,,,None,None,None,10.863,,,,,,,,,,,,,,,,,,,2019_Feb_10_1539,60.149189570012176,Cloud_Experiment_FR_REAL,001,18,
images/fcloud_D1.1_5.tif,1.1,0,,,,,,,,,0,25,25,10,,,,,,,,,,,,,,,None,None,None,19.636,,,,,,,,,,,,,,,,,,,2019_Feb_10_1539,60.149189570012176,Cloud_Experiment_FR_REAL,001,18,
images/fcloud_D1.8_6.tif,1.8,0,,,,,,,,,0,26,26,32,,,,,,,,,,,,,,,None,None,None,28.11,,,,,,,,,,,,,,,,,,,2019_Feb_10_1539,60.149189570012176,Cloud_Experiment_FR_REAL,001,18,
images/fcloud65-35_D0.9_4.tif,0.9,1,,,,,,,,,0,27,27,39,,,,,,,,,,,,,,,None,None,None,36.485,,,,,,,,,,,,,,,,,,,2019_Feb_10_1539,60.149189570012176,Cloud_Experiment_FR_REAL,001,18,
images/fcloud_D1.7_4.tif,1.7,0,,,,,,,,,0,28,28,27,,,,,,,,,,,,,,,1,None,4,0.786,,,,,,,,,,,,,,,,,,,2019_Feb_10_1539,60.149189570012176,Cloud_Experiment_FR_REAL,001,18,
images/fcloud80-20_D1.6_5.tif,1.6,2,,,,,,,,,0,29,29,97,,,,,,,,,,,,,,,None,None,None,9.742,,,,,,,,,,,,,,,,,,,2019_Feb_10_1539,60.149189570012176,Cloud_Experiment_FR_REAL,001,18,
images/fcloud80-20_D1_5.tif,1.0,2,,,,,,,,,0,30,30,79,,,,,,,,,,,,,,,1,None,3,0.904,,,,,,,,,,,,,,,,,,,2019_Feb_10_1539,60.149189570012176,Cloud_Experiment_FR_REAL,001,18,
images/fcloud_D1.3_6.tif,1.3,0,,,,,,,,,0,31,31,17,,,,,,,,,,,,,,,None,None,None,9.793,,,,,,,,,,,,,,,,,,,2019_Feb_10_1539,60.149189570012176,Cloud_Experiment_FR_REAL,001,18,
images/fcloud_D1.6_5.tif,1.6,0,,,,,,,,,0,32,32,25,,,,,,,,,,,,,,,None,None,None,19.684,,,,,,,,,,,,,,,,,,,2019_Feb_10_1539,60.149189570012176,Cloud_Experiment_FR_REAL,001,18,
images/fcloud65-35_D1.1_6.tif,1.1,1,,,,,,,,,0,33,33,47,,,,,,,,,,,,,,,None,None,None,28.243,,,,,,,,,,,,,,,,,,,2019_Feb_10_1539,60.149189570012176,Cloud_Experiment_FR_REAL,001,18,
images/fcloud_D1.2_5.tif,1.2,0,,,,,,,,,0,34,34,13,,,,,,,,,,,,,,,None,None,None,36.785,,,,,,,,,,,,,,,,,,,2019_Feb_10_1539,60.149189570012176,Cloud_Experiment_FR_REAL,001,18,
images/fcloud65-35_D1.8_4.tif,1.8,1,,,,,,,,,0,35,35,66,,,,,,,,,,,,,,,None,None,None,45.415,,,,,,,,,,,,,,,,,,,2019_Feb_10_1539,60.149189570012176,Cloud_Experiment_FR_REAL,001,18,
images/fcloud80-20_D1.6_4.tif,1.6,2,,,,,,,,,0,36,36,96,,,,,,,,,,,,,,,None,None,None,53.905,,,,,,,,,,,,,,,,,,,2019_Feb_10_1539,60.149189570012176,Cloud_Experiment_FR_REAL,001,18,
images/fcloud_D1.6_4.tif,1.6,0,,,,,,,,,0,37,37,24,,,,,,,,,,,,,,,None,None,None,62.301,,,,,,,,,,,,,,,,,,,2019_Feb_10_1539,60.149189570012176,Cloud_Experiment_FR_REAL,001,18,
images/fcloud65-35_D0.9_5.tif,0.9,1,,,,,,,,,0,38,38,40,,,,,,,,,,,,,,,None,None,None,70.808,,,,,,,,,,,,,,,,,,,2019_Feb_10_1539,60.149189570012176,Cloud_Experiment_FR_REAL,001,18,
images/fcloud80-20_D1.1_4.tif,1.1,2,,,,,,,,,0,39,39,81,,,,,,,,,,,,,,,None,None,None,79.248,,,,,,,,,,,,,,,,,,,2019_Feb_10_1539,60.149189570012176,Cloud_Experiment_FR_REAL,001,18,
images/fcloud65-35_D1.6_4.tif,1.6,1,,,,,,,,,0,40,40,60,,,,,,,,,,,,,,,None,None,None,87.947,,,,,,,,,,,,,,,,,,,2019_Feb_10_1539,60.149189570012176,Cloud_Experiment_FR_REAL,001,18,
images/fcloud80-20_D1.2_4.tif,1.2,2,,,,,,,,,0,41,41,84,,,,,,,,,,,,,,,1,None,4,1.187,,,,,,,,,,,,,,,,,,,2019_Feb_10_1539,60.149189570012176,Cloud_Experiment_FR_REAL,001,18,
images/fcloud65-35_D1.9_4.tif,1.9,1,,,,,,,,,0,42,42,69,,,,,,,,,,,,,,,1,None,2,0.864,,,,,,,,,,,,,,,,,,,2019_Feb_10_1539,60.149189570012176,Cloud_Experiment_FR_REAL,001,18,
images/fcloud80-20_D1.7_4.tif,1.7,2,,,,,,,,,0,43,43,99,,,,,,,,,,,,,,,None,None,None,9.957,,,,,,,,,,,,,,,,,,,2019_Feb_10_1539,60.149189570012176,Cloud_Experiment_FR_REAL,001,18,
images/fcloud80-20_D1.8_6.tif,1.8,2,,,,,,,,,0,44,44,104,,,,,,,,,,,,,,,None,None,None,18.415,,,,,,,,,,,,,,,,,,,2019_Feb_10_1539,60.149189570012176,Cloud_Experiment_FR_REAL,001,18,
images/fcloud65-35_D1.2_4.tif,1.2,1,,,,,,,,,0,45,45,48,,,,,,,,,,,,,,,None,None,None,27.259,,,,,,,,,,,,,,,,,,,2019_Feb_10_1539,60.149189570012176,Cloud_Experiment_FR_REAL,001,18,
images/fcloud65-35_D1.9_5.tif,1.9,1,,,,,,,,,0,46,46,70,,,,,,,,,,,,,,,None,None,None,35.718,,,,,,,,,,,,,,,,,,,2019_Feb_10_1539,60.149189570012176,Cloud_Experiment_FR_REAL,001,18,
images/fcloud65-35_D0.8_6.tif,0.8,1,,,,,,,,,0,47,47,38,,,,,,,,,,,,,,,None,None,None,44.213,,,,,,,,,,,,,,,,,,,2019_Feb_10_1539,60.149189570012176,Cloud_Experiment_FR_REAL,001,18,
images/fcloud80-20_D0.9_5.tif,0.9,2,,,,,,,,,0,48,48,76,,,,,,,,,,,,,,,None,None,None,52.67,,,,,,,,,,,,,,,,,,,2019_Feb_10_1539,60.149189570012176,Cloud_Experiment_FR_REAL,001,18,
images/fcloud_D1.3_5.tif,1.3,0,,,,,,,,,0,49,49,16,,,,,,,,,,,,,,,1,None,4,0.721,,,,,,,,,,,,,,,,,,,2019_Feb_10_1539,60.149189570012176,Cloud_Experiment_FR_REAL,001,18,
images/fcloud65-35_D1.5_6.tif,1.5,1,,,,,,,,,0,50,50,59,,,,,,,,,,,,,,,1,None,4,1.252,,,,,,,,,,,,,,,,,,,2019_Feb_10_1539,60.149189570012176,Cloud_Experiment_FR_REAL,001,18,
images/fcloud_D1.4_5.tif,1.4,0,,,,,,,,,0,51,51,19,,,,,,,,,,,,,,,None,None,None,10.609,,,,,,,,,,,,,,,,,,,2019_Feb_10_1539,60.149189570012176,Cloud_Experiment_FR_REAL,001,18,
images/fcloud80-20_D0.8_6.tif,0.8,2,,,,,,,,,0,52,52,74,,,,,,,,,,,,,,,None,None,None,19.002,,,,,,,,,,,,,,,,,,,2019_Feb_10_1539,60.149189570012176,Cloud_Experiment_FR_REAL,001,18,
images/fcloud80-20_D1.2_6.tif,1.2,2,,,,,,,,,0,53,53,86,,,,,,,,,,,,,,,1,None,1,1.136,,,,,,,,,,,,,,,,,,,2019_Feb_10_1539,60.149189570012176,Cloud_Experiment_FR_REAL,001,18,
images/fcloud65-35_D1.5_5.tif,1.5,1,,,,,,,,,0,54,54,58,,,,,,,,,,,,,,,1,None,1,1.152,,,,,,,,,,,,,,,,,,,2019_Feb_10_1539,60.149189570012176,Cloud_Experiment_FR_REAL,001,18,
images/fcloud80-20_D1.4_4.tif,1.4,2,,,,,,,,,0,55,55,90,,,,,,,,,,,,,,,None,None,None,10.595,,,,,,,,,,,,,,,,,,,2019_Feb_10_1539,60.149189570012176,Cloud_Experiment_FR_REAL,001,18,
images/fcloud_D1.8_5.tif,1.8,0,,,,,,,,,0,56,56,31,,,,,,,,,,,,,,,None,None,None,19.919,,,,,,,,,,,,,,,,,,,2019_Feb_10_1539,60.149189570012176,Cloud_Experiment_FR_REAL,001,18,
images/fcloud_D1.5_5.tif,1.5,0,,,,,,,,,0,57,57,22,,,,,,,,,,,,,,,None,None,None,28.909,,,,,,,,,,,,,,,,,,,2019_Feb_10_1539,60.149189570012176,Cloud_Experiment_FR_REAL,001,18,
images/fcloud80-20_D1.4_5.tif,1.4,2,,,,,,,,,0,58,58,91,,,,,,,,,,,,,,,None,None,None,37.836,,,,,,,,,,,,,,,,,,,2019_Feb_10_1539,60.149189570012176,Cloud_Experiment_FR_REAL,001,18,
images/fcloud_D0.8_6.tif,0.8,0,,,,,,,,,0,59,59,2,,,,,,,,,,,,,,,2,None,3,1.52,,,,,,,,,,,,,,,,,,,2019_Feb_10_1539,60.149189570012176,Cloud_Experiment_FR_REAL,001,18,
images/fcloud80-20_D1.7_5.tif,1.7,2,,,,,,,,,0,60,60,100,,,,,,,,,,,,,,,1,None,4,0.587,,,,,,,,,,,,,,,,,,,2019_Feb_10_1539,60.149189570012176,Cloud_Experiment_FR_REAL,001,18,
images/fcloud_D1.4_6.tif,1.4,0,,,,,,,,,0,61,61,20,,,,,,,,,,,,,,,None,None,None,9.094,,,,,,,,,,,,,,,,,,,2019_Feb_10_1539,60.149189570012176,Cloud_Experiment_FR_REAL,001,18,
images/fcloud65-35_D1.4_5.tif,1.4,1,,,,,,,,,0,62,62,55,,,,,,,,,,,,,,,None,None,None,18.052,,,,,,,,,,,,,,,,,,,2019_Feb_10_1539,60.149189570012176,Cloud_Experiment_FR_REAL,001,18,
images/fcloud80-20_D1.9_6.tif,1.9,2,,,,,,,,,0,63,63,107,,,,,,,,,,,,,,,None,None,None,26.646,,,,,,,,,,,,,,,,,,,2019_Feb_10_1539,60.149189570012176,Cloud_Experiment_FR_REAL,001,18,
images/fcloud_D1_5.tif,1.0,0,,,,,,,,,0,64,64,7,,,,,,,,,,,,,,,None,None,None,35.255,,,,,,,,,,,,,,,,,,,2019_Feb_10_1539,60.149189570012176,Cloud_Experiment_FR_REAL,001,18,
images/fcloud65-35_D1.1_5.tif,1.1,1,,,,,,,,,0,65,65,46,,,,,,,,,,,,,,,None,None,None,43.93,,,,,,,,,,,,,,,,,,,2019_Feb_10_1539,60.149189570012176,Cloud_Experiment_FR_REAL,001,18,
images/fcloud65-35_D1.5_4.tif,1.5,1,,,,,,,,,0,66,66,57,,,,,,,,,,,,,,,None,None,None,52.543,,,,,,,,,,,,,,,,,,,2019_Feb_10_1539,60.149189570012176,Cloud_Experiment_FR_REAL,001,18,
images/fcloud_D1.9_5.tif,1.9,0,,,,,,,,,0,67,67,34,,,,,,,,,,,,,,,None,None,None,61.014,,,,,,,,,,,,,,,,,,,2019_Feb_10_1539,60.149189570012176,Cloud_Experiment_FR_REAL,001,18,
images/fcloud_D0.9_6.tif,0.9,0,,,,,,,,,0,68,68,5,,,,,,,,,,,,,,,None,None,None,69.492,,,,,,,,,,,,,,,,,,,2019_Feb_10_1539,60.149189570012176,Cloud_Experiment_FR_REAL,001,18,
images/fcloud80-20_D1.2_5.tif,1.2,2,,,,,,,,,0,69,69,85,,,,,,,,,,,,,,,None,None,None,78.036,,,,,,,,,,,,,,,,,,,2019_Feb_10_1539,60.149189570012176,Cloud_Experiment_FR_REAL,001,18,
images/fcloud_D1.4_4.tif,1.4,0,,,,,,,,,0,70,70,18,,,,,,,,,,,,,,,2,None,4,1.82,,,,,,,,,,,,,,,,,,,2019_Feb_10_1539,60.149189570012176,Cloud_Experiment_FR_REAL,001,18,
images/fcloud80-20_D1_6.tif,1.0,2,,,,,,,,,0,71,71,80,,,,,,,,,,,,,,,None,None,None,10.795,,,,,,,,,,,,,,,,,,,2019_Feb_10_1539,60.149189570012176,Cloud_Experiment_FR_REAL,001,18,
images/fcloud65-35_D1.2_5.tif,1.2,1,,,,,,,,,0,72,72,49,,,,,,,,,,,,,,,None,None,None,19.836,,,,,,,,,,,,,,,,,,,2019_Feb_10_1539,60.149189570012176,Cloud_Experiment_FR_REAL,001,18,
images/fcloud_D1_4.tif,1.0,0,,,,,,,,,0,73,73,6,,,,,,,,,,,,,,,2,None,1,0.637,,,,,,,,,,,,,,,,,,,2019_Feb_10_1539,60.149189570012176,Cloud_Experiment_FR_REAL,001,18,
images/fcloud65-35_D1_5.tif,1.0,1,,,,,,,,,0,74,74,43,,,,,,,,,,,,,,,None,None,None,9.777,,,,,,,,,,,,,,,,,,,2019_Feb_10_1539,60.149189570012176,Cloud_Experiment_FR_REAL,001,18,
images/fcloud80-20_D1.5_4.tif,1.5,2,,,,,,,,,0,75,75,93,,,,,,,,,,,,,,,None,None,None,18.518,,,,,,,,,,,,,,,,,,,2019_Feb_10_1539,60.149189570012176,Cloud_Experiment_FR_REAL,001,18,
images/fcloud80-20_D1.8_5.tif,1.8,2,,,,,,,,,0,76,76,103,,,,,,,,,,,,,,,None,None,None,27.68,,,,,,,,,,,,,,,,,,,2019_Feb_10_1539,60.149189570012176,Cloud_Experiment_FR_REAL,001,18,
images/fcloud65-35_D1.3_4.tif,1.3,1,,,,,,,,,0,77,77,51,,,,,,,,,,,,,,,None,None,None,36.386,,,,,,,,,,,,,,,,,,,2019_Feb_10_1539,60.149189570012176,Cloud_Experiment_FR_REAL,001,18,
images/fcloud80-20_D1.9_4.tif,1.9,2,,,,,,,,,0,78,78,105,,,,,,,,,,,,,,,None,None,None,44.865,,,,,,,,,,,,,,,,,,,2019_Feb_10_1539,60.149189570012176,Cloud_Experiment_FR_REAL,001,18,
images/fcloud80-20_D1.6_6.tif,1.6,2,,,,,,,,,0,79,79,98,,,,,,,,,,,,,,,None,None,None,53.339,,,,,,,,,,,,,,,,,,,2019_Feb_10_1539,60.149189570012176,Cloud_Experiment_FR_REAL,001,18,
images/fcloud80-20_D1.8_4.tif,1.8,2,,,,,,,,,0,80,80,102,,,,,,,,,,,,,,,1,None,1,0.452,,,,,,,,,,,,,,,,,,,2019_Feb_10_1539,60.149189570012176,Cloud_Experiment_FR_REAL,001,18,
images/fcloud65-35_D1.3_6.tif,1.3,1,,,,,,,,,0,81,81,53,,,,,,,,,,,,,,,None,None,None,9.909,,,,,,,,,,,,,,,,,,,2019_Feb_10_1539,60.149189570012176,Cloud_Experiment_FR_REAL,001,18,
images/fcloud_D1.5_6.tif,1.5,0,,,,,,,,,0,82,82,23,,,,,,,,,,,,,,,None,None,None,18.701,,,,,,,,,,,,,,,,,,,2019_Feb_10_1539,60.149189570012176,Cloud_Experiment_FR_REAL,001,18,
images/fcloud_D0.8_5.tif,0.8,0,,,,,,,,,0,83,83,1,,,,,,,,,,,,,,,1,None,3,0.867,,,,,,,,,,,,,,,,,,,2019_Feb_10_1539,60.149189570012176,Cloud_Experiment_FR_REAL,001,18,
images/fcloud_D1.7_5.tif,1.7,0,,,,,,,,,0,84,84,28,,,,,,,,,,,,,,,None,None,None,9.742,,,,,,,,,,,,,,,,,,,2019_Feb_10_1539,60.149189570012176,Cloud_Experiment_FR_REAL,001,18,
images/fcloud80-20_D1.7_6.tif,1.7,2,,,,,,,,,0,85,85,101,,,,,,,,,,,,,,,None,None,None,18.465,,,,,,,,,,,,,,,,,,,2019_Feb_10_1539,60.149189570012176,Cloud_Experiment_FR_REAL,001,18,
images/fcloud80-20_D1.5_6.tif,1.5,2,,,,,,,,,0,86,86,95,,,,,,,,,,,,,,,None,None,None,26.958,,,,,,,,,,,,,,,,,,,2019_Feb_10_1539,60.149189570012176,Cloud_Experiment_FR_REAL,001,18,
images/fcloud_D0.9_5.tif,0.9,0,,,,,,,,,0,87,87,4,,,,,,,,,,,,,,,1,None,1,0.685,,,,,,,,,,,,,,,,,,,2019_Feb_10_1539,60.149189570012176,Cloud_Experiment_FR_REAL,001,18,
images/fcloud65-35_D1.7_4.tif,1.7,1,,,,,,,,,0,88,88,63,,,,,,,,,,,,,,,None,None,None,9.61,,,,,,,,,,,,,,,,,,,2019_Feb_10_1539,60.149189570012176,Cloud_Experiment_FR_REAL,001,18,
images/fcloud65-35_D1.6_6.tif,1.6,1,,,,,,,,,0,89,89,62,,,,,,,,,,,,,,,None,None,None,18.418,,,,,,,,,,,,,,,,,,,2019_Feb_10_1539,60.149189570012176,Cloud_Experiment_FR_REAL,001,18,
images/fcloud_D1.6_6.tif,1.6,0,,,,,,,,,0,90,90,26,,,,,,,,,,,,,,,None,None,None,26.877,,,,,,,,,,,,,,,,,,,2019_Feb_10_1539,60.149189570012176,Cloud_Experiment_FR_REAL,001,18,
images/fcloud_D1.2_6.tif,1.2,0,,,,,,,,,0,91,91,14,,,,,,,,,,,,,,,1,None,2,1.169,,,,,,,,,,,,,,,,,,,2019_Feb_10_1539,60.149189570012176,Cloud_Experiment_FR_REAL,001,18,
images/fcloud65-35_D1.4_6.tif,1.4,1,,,,,,,,,0,92,92,56,,,,,,,,,,,,,,,2,None,4,0.521,,,,,,,,,,,,,,,,,,,2019_Feb_10_1539,60.149189570012176,Cloud_Experiment_FR_REAL,001,18,
images/fcloud65-35_D1.2_6.tif,1.2,1,,,,,,,,,0,93,93,50,,,,,,,,,,,,,,,1,None,1,0.652,,,,,,,,,,,,,,,,,,,2019_Feb_10_1539,60.149189570012176,Cloud_Experiment_FR_REAL,001,18,
images/fcloud65-35_D1.4_4.tif,1.4,1,,,,,,,,,0,94,94,54,,,,,,,,,,,,,,,None,None,None,9.662,,,,,,,,,,,,,,,,,,,2019_Feb_10_1539,60.149189570012176,Cloud_Experiment_FR_REAL,001,18,
images/fcloud80-20_D1.9_5.tif,1.9,2,,,,,,,,,0,95,95,106,,,,,,,,,,,,,,,None,None,None,18.402,,,,,,,,,,,,,,,,,,,2019_Feb_10_1539,60.149189570012176,Cloud_Experiment_FR_REAL,001,18,
images/fcloud65-35_D1_4.tif,1.0,1,,,,,,,,,0,96,96,42,,,,,,,,,,,,,,,None,None,None,26.995,,,,,,,,,,,,,,,,,,,2019_Feb_10_1539,60.149189570012176,Cloud_Experiment_FR_REAL,001,18,
images/fcloud80-20_D1.3_6.tif,1.3,2,,,,,,,,,0,97,97,89,,,,,,,,,,,,,,,None,None,None,35.788,,,,,,,,,,,,,,,,,,,2019_Feb_10_1539,60.149189570012176,Cloud_Experiment_FR_REAL,001,18,
images/fcloud80-20_D0.9_4.tif,0.9,2,,,,,,,,,0,98,98,75,,,,,,,,,,,,,,,1,None,2,1.65,,,,,,,,,,,,,,,,,,,2019_Feb_10_1539,60.149189570012176,Cloud_Experiment_FR_REAL,001,18,
images/fcloud_D1.8_4.tif,1.8,0,,,,,,,,,0,99,99,30,,,,,,,,,,,,,,,None,None,None,10.641,,,,,,,,,,,,,,,,,,,2019_Feb_10_1539,60.149189570012176,Cloud_Experiment_FR_REAL,001,18,
images/fcloud65-35_D1.8_6.tif,1.8,1,,,,,,,,,0,100,100,68,,,,,,,,,,,,,,,None,None,None,19.133,,,,,,,,,,,,,,,,,,,2019_Feb_10_1539,60.149189570012176,Cloud_Experiment_FR_REAL,001,18,
images/fcloud65-35_D0.9_6.tif,0.9,1,,,,,,,,,0,101,101,41,,,,,,,,,,,,,,,None,None,None,27.58,,,,,,,,,,,,,,,,,,,2019_Feb_10_1539,60.149189570012176,Cloud_Experiment_FR_REAL,001,18,
images/fcloud80-20_D1.5_5.tif,1.5,2,,,,,,,,,0,102,102,94,,,,,,,,,,,,,,,1,None,3,0.552,,,,,,,,,,,,,,,,,,,2019_Feb_10_1539,60.149189570012176,Cloud_Experiment_FR_REAL,001,18,
images/fcloud80-20_D1.3_5.tif,1.3,2,,,,,,,,,0,103,103,88,,,,,,,,,,,,,,,None,None,None,9.427,,,,,,,,,,,,,,,,,,,2019_Feb_10_1539,60.149189570012176,Cloud_Experiment_FR_REAL,001,18,
images/fcloud65-35_D1.6_5.tif,1.6,1,,,,,,,,,0,104,104,61,,,,,,,,,,,,,,,None,None,None,18.252,,,,,,,,,,,,,,,,,,,2019_Feb_10_1539,60.149189570012176,Cloud_Experiment_FR_REAL,001,18,
images/fcloud65-35_D1.7_6.tif,1.7,1,,,,,,,,,0,105,105,65,,,,,,,,,,,,,,,1,None,1,0.504,,,,,,,,,,,,,,,,,,,2019_Feb_10_1539,60.149189570012176,Cloud_Experiment_FR_REAL,001,18,
images/fcloud80-20_D0.9_6.tif,0.9,2,,,,,,,,,0,106,106,77,,,,,,,,,,,,,,,None,None,None,9.894,,,,,,,,,,,,,,,,,,,2019_Feb_10_1539,60.149189570012176,Cloud_Experiment_FR_REAL,001,18,
images/fcloud_D1.2_4.tif,1.2,0,,,,,,,,,0,107,107,12,,,,,,,,,,,,,,,None,None,None,18.65,,,,,,,,,,,,,,,,,,,2019_Feb_10_1539,60.149189570012176,Cloud_Experiment_FR_REAL,001,18,
,,,,,,,,,,,,,,,,,,,,,,,,,,,,,,,,,,,,,,,,,,,,,,space,3.34893942298,,,,2019_Feb_10_1539,60.149189570012176,Cloud_Experiment_FR_REAL,001,18,
,,,,,,,,,,,,,,,,,,,,,,,,,7,7.056,,,,,,,,,,,,,,,,,,,,,,,,,2019_Feb_10_1539,60.149189570012176,Cloud_Experiment_FR_REAL,001,18,
,,,,,,,,,,,,,,,,,,,,,,,,,,,,,,,,,5,,,,,,,,,,,,,,,,,,2019_Feb_10_1539,60.149189570012176,Cloud_Experiment_FR_REAL,001,18,
,,,,,,,,,,,,,,,,,,,,,,,,,,,,,,,,,,5,,,,,,,,,,,,,,,,,2019_Feb_10_1539,60.149189570012176,Cloud_Experiment_FR_REAL,001,18,
,,,,,,,,,,,,,,,,,,,,,,,,,,,,,,,,,,,5,,,,,,,,,,,,,,,,2019_Feb_10_1539,60.149189570012176,Cloud_Experiment_FR_REAL,001,18,
,,,,,,,,,,,,,,,,,,,,,,,,,,,,,,,,,,,,5,,,,,,,,,,,,,,,2019_Feb_10_1539,60.149189570012176,Cloud_Experiment_FR_REAL,001,18,
,,,,,,,,,,,,,,,,,,,,,,,,,,,,,,,,,,,,,5,,,,,,,,,,,,,,2019_Feb_10_1539,60.149189570012176,Cloud_Experiment_FR_REAL,001,18,
,,,,,,,,,,,,,,,,,,,,,,,,,,,,,,,,,,,,,,5,,,,,,,,,,,,,2019_Feb_10_1539,60.149189570012176,Cloud_Experiment_FR_REAL,001,18,
,,,,,,,,,,,,,,,,,,,,,,,,,,,,,,,,,,,,,,,5,,,,,,,,,,,,2019_Feb_10_1539,60.149189570012176,Cloud_Experiment_FR_REAL,001,18,
,,,,,,,,,,,,,,,,,,,,,,,,,,,,,,,,,,,,,,,,6,,,,,,,,,,,2019_Feb_10_1539,60.149189570012176,Cloud_Experiment_FR_REAL,001,18,
,,,,,,,,,,,,,,,,,,,,,,,,,,,,,,,,,,,,,,,,,7,,,,,,,,,,2019_Feb_10_1539,60.149189570012176,Cloud_Experiment_FR_REAL,001,18,
,,,,,,,,,,,,,,,,,,,,,,,,,,,,,,,,,,,,,,,,,,3,,,,,,,,,2019_Feb_10_1539,60.149189570012176,Cloud_Experiment_FR_REAL,001,18,
,,,,,,,,,,,,,,,,,,,,,,,,,,,,,,,,,,,,,,,,,,,,,,,,space,570.687358666,,2019_Feb_10_1539,60.149189570012176,Cloud_Experiment_FR_REAL,001,18,
images/fcloud65-35_D1.6_7.tif,1.6,1,,,,,,,,,,,,,0,0,0,80,,,,,,,,,,,None,None,None,643.242,,,,,,,,,,,,,,,,,,,2019_Feb_10_1539,60.149189570012176,Cloud_Experiment_FR_REAL,001,18,
images/fcloud80-20_D1.3_10.tif,1.3,2,,,,,,,,,,,,,0,1,1,119,,,,,,,,,,,None,None,None,652.017,,,,,,,,,,,,,,,,,,,2019_Feb_10_1539,60.149189570012176,Cloud_Experiment_FR_REAL,001,18,
images/fcloud80-20_D1.7_7.tif,1.7,2,,,,,,,,,,,,,0,2,2,132,,,,,,,,,,,1,None,3,1.102,,,,,,,,,,,,,,,,,,,2019_Feb_10_1539,60.149189570012176,Cloud_Experiment_FR_REAL,001,18,
images/fcloud80-20_D1.4_8.tif,1.4,2,,,,,,,,,,,,,0,3,3,121,,,,,,,,,,,1,None,1,1.751,,,,,,,,,,,,,,,,,,,2019_Feb_10_1539,60.149189570012176,Cloud_Experiment_FR_REAL,001,18,
images/fcloud80-20_D0.8_9.tif,0.8,2,,,,,,,,,,,,,0,4,4,98,,,,,,,,,,,1,None,3,0.886,,,,,,,,,,,,,,,,,,,2019_Feb_10_1539,60.149189570012176,Cloud_Experiment_FR_REAL,001,18,
images/fcloud_D0.9_7.tif,0.9,0,,,,,,,,,,,,,0,5,5,4,,,,,,,,,,,1,None,1,0.552,,,,,,,,,,,,,,,,,,,2019_Feb_10_1539,60.149189570012176,Cloud_Experiment_FR_REAL,001,18,
images/fcloud65-35_D1.3_7.tif,1.3,1,,,,,,,,,,,,,0,6,6,68,,,,,,,,,,,1,None,4,2.883,,,,,,,,,,,,,,,,,,,2019_Feb_10_1539,60.149189570012176,Cloud_Experiment_FR_REAL,001,18,
images/fcloud_D1.9_8.tif,1.9,0,,,,,,,,,,,,,0,7,7,45,,,,,,,,,,,1,None,3,0.771,,,,,,,,,,,,,,,,,,,2019_Feb_10_1539,60.149189570012176,Cloud_Experiment_FR_REAL,001,18,
images/fcloud65-35_D0.8_9.tif,0.8,1,,,,,,,,,,,,,0,8,8,50,,,,,,,,,,,1,None,2,0.868,,,,,,,,,,,,,,,,,,,2019_Feb_10_1539,60.149189570012176,Cloud_Experiment_FR_REAL,001,18,
images/fcloud_D1.7_10.tif,1.7,0,,,,,,,,,,,,,0,9,9,39,,,,,,,,,,,None,None,None,9.575,,,,,,,,,,,,,,,,,,,2019_Feb_10_1539,60.149189570012176,Cloud_Experiment_FR_REAL,001,18,
images/fcloud80-20_D1.1_9.tif,1.1,2,,,,,,,,,,,,,0,10,10,110,,,,,,,,,,,None,None,None,18.287,,,,,,,,,,,,,,,,,,,2019_Feb_10_1539,60.149189570012176,Cloud_Experiment_FR_REAL,001,18,
images/fcloud65-35_D1.4_9.tif,1.4,1,,,,,,,,,,,,,0,11,11,74,,,,,,,,,,,None,None,None,27.926,,,,,,,,,,,,,,,,,,,2019_Feb_10_1539,60.149189570012176,Cloud_Experiment_FR_REAL,001,18,
images/fcloud65-35_D0.8_7.tif,0.8,1,,,,,,,,,,,,,0,12,12,48,,,,,,,,,,,None,None,None,37.254,,,,,,,,,,,,,,,,,,,2019_Feb_10_1539,60.149189570012176,Cloud_Experiment_FR_REAL,001,18,
images/fcloud65-35_D1.1_7.tif,1.1,1,,,,,,,,,,,,,0,13,13,60,,,,,,,,,,,None,None,None,46.679,,,,,,,,,,,,,,,,,,,2019_Feb_10_1539,60.149189570012176,Cloud_Experiment_FR_REAL,001,18,
images/fcloud_D1.3_9.tif,1.3,0,,,,,,,,,,,,,0,14,14,22,,,,,,,,,,,None,None,None,55.186,,,,,,,,,,,,,,,,,,,2019_Feb_10_1539,60.149189570012176,Cloud_Experiment_FR_REAL,001,18,
images/fcloud80-20_D0.9_9.tif,0.9,2,,,,,,,,,,,,,0,15,15,102,,,,,,,,,,,None,None,None,63.661,,,,,,,,,,,,,,,,,,,2019_Feb_10_1539,60.149189570012176,Cloud_Experiment_FR_REAL,001,18,
images/fcloud80-20_D1.5_7.tif,1.5,2,,,,,,,,,,,,,0,16,16,124,,,,,,,,,,,None,None,None,72.174,,,,,,,,,,,,,,,,,,,2019_Feb_10_1539,60.149189570012176,Cloud_Experiment_FR_REAL,001,18,
images/fcloud80-20_D1.8_8.tif,1.8,2,,,,,,,,,,,,,0,17,17,137,,,,,,,,,,,None,None,None,80.535,,,,,,,,,,,,,,,,,,,2019_Feb_10_1539,60.149189570012176,Cloud_Experiment_FR_REAL,001,18,
images/fcloud65-35_D1.8_7.tif,1.8,1,,,,,,,,,,,,,0,18,18,88,,,,,,,,,,,None,None,None,89.074,,,,,,,,,,,,,,,,,,,2019_Feb_10_1539,60.149189570012176,Cloud_Experiment_FR_REAL,001,18,
images/fcloud65-35_D1.8_10.tif,1.8,1,,,,,,,,,,,,,0,19,19,91,,,,,,,,,,,None,None,None,97.731,,,,,,,,,,,,,,,,,,,2019_Feb_10_1539,60.149189570012176,Cloud_Experiment_FR_REAL,001,18,
images/fcloud_D1.1_7.tif,1.1,0,,,,,,,,,,,,,0,20,20,12,,,,,,,,,,,None,None,None,106.441,,,,,,,,,,,,,,,,,,,2019_Feb_10_1539,60.149189570012176,Cloud_Experiment_FR_REAL,001,18,
images/fcloud65-35_D1.5_8.tif,1.5,1,,,,,,,,,,,,,0,21,21,77,,,,,,,,,,,1,None,1,0.669,,,,,,,,,,,,,,,,,,,2019_Feb_10_1539,60.149189570012176,Cloud_Experiment_FR_REAL,001,18,
images/fcloud80-20_D1.3_9.tif,1.3,2,,,,,,,,,,,,,0,22,22,118,,,,,,,,,,,1,None,3,1.253,,,,,,,,,,,,,,,,,,,2019_Feb_10_1539,60.149189570012176,Cloud_Experiment_FR_REAL,001,18,
images/fcloud80-20_D0.9_7.tif,0.9,2,,,,,,,,,,,,,0,23,23,100,,,,,,,,,,,2,None,2,1.251,,,,,,,,,,,,,,,,,,,2019_Feb_10_1539,60.149189570012176,Cloud_Experiment_FR_REAL,001,18,
images/fcloud65-35_D1.9_7.tif,1.9,1,,,,,,,,,,,,,0,24,24,92,,,,,,,,,,,None,None,None,10.145,,,,,,,,,,,,,,,,,,,2019_Feb_10_1539,60.149189570012176,Cloud_Experiment_FR_REAL,001,18,
images/fcloud65-35_D1_7.tif,1.0,1,,,,,,,,,,,,,0,25,25,56,,,,,,,,,,,None,None,None,19.118,,,,,,,,,,,,,,,,,,,2019_Feb_10_1539,60.149189570012176,Cloud_Experiment_FR_REAL,001,18,
images/fcloud_D1.2_7.tif,1.2,0,,,,,,,,,,,,,0,26,26,16,,,,,,,,,,,None,None,None,27.593,,,,,,,,,,,,,,,,,,,2019_Feb_10_1539,60.149189570012176,Cloud_Experiment_FR_REAL,001,18,
images/fcloud80-20_D1.6_9.tif,1.6,2,,,,,,,,,,,,,0,27,27,130,,,,,,,,,,,None,None,None,36.039,,,,,,,,,,,,,,,,,,,2019_Feb_10_1539,60.149189570012176,Cloud_Experiment_FR_REAL,001,18,
images/fcloud_D1.6_9.tif,1.6,0,,,,,,,,,,,,,0,28,28,34,,,,,,,,,,,None,None,None,44.629,,,,,,,,,,,,,,,,,,,2019_Feb_10_1539,60.149189570012176,Cloud_Experiment_FR_REAL,001,18,
images/fcloud_D1_9.tif,1.0,0,,,,,,,,,,,,,0,29,29,10,,,,,,,,,,,None,None,None,53.14,,,,,,,,,,,,,,,,,,,2019_Feb_10_1539,60.149189570012176,Cloud_Experiment_FR_REAL,001,18,
images/fcloud80-20_D1.9_10.tif,1.9,2,,,,,,,,,,,,,0,30,30,143,,,,,,,,,,,None,None,None,61.517,,,,,,,,,,,,,,,,,,,2019_Feb_10_1539,60.149189570012176,Cloud_Experiment_FR_REAL,001,18,
images/fcloud_D1.8_10.tif,1.8,0,,,,,,,,,,,,,0,31,31,43,,,,,,,,,,,None,None,None,70.139,,,,,,,,,,,,,,,,,,,2019_Feb_10_1539,60.149189570012176,Cloud_Experiment_FR_REAL,001,18,
images/fcloud_D1.4_8.tif,1.4,0,,,,,,,,,,,,,0,32,32,25,,,,,,,,,,,2,None,3,0.453,,,,,,,,,,,,,,,,,,,2019_Feb_10_1539,60.149189570012176,Cloud_Experiment_FR_REAL,001,18,
images/fcloud65-35_D1.6_8.tif,1.6,1,,,,,,,,,,,,,0,33,33,81,,,,,,,,,,,None,None,None,9.397,,,,,,,,,,,,,,,,,,,2019_Feb_10_1539,60.149189570012176,Cloud_Experiment_FR_REAL,001,18,
images/fcloud80-20_D1.6_8.tif,1.6,2,,,,,,,,,,,,,0,34,34,129,,,,,,,,,,,None,None,None,17.903,,,,,,,,,,,,,,,,,,,2019_Feb_10_1539,60.149189570012176,Cloud_Experiment_FR_REAL,001,18,
images/fcloud_D1.7_7.tif,1.7,0,,,,,,,,,,,,,0,35,35,36,,,,,,,,,,,1,None,3,0.819,,,,,,,,,,,,,,,,,,,2019_Feb_10_1539,60.149189570012176,Cloud_Experiment_FR_REAL,001,18,
images/fcloud65-35_D1.1_9.tif,1.1,1,,,,,,,,,,,,,0,36,36,62,,,,,,,,,,,None,None,None,9.579,,,,,,,,,,,,,,,,,,,2019_Feb_10_1539,60.149189570012176,Cloud_Experiment_FR_REAL,001,18,
images/fcloud65-35_D1.6_10.tif,1.6,1,,,,,,,,,,,,,0,37,37,83,,,,,,,,,,,None,None,None,17.985,,,,,,,,,,,,,,,,,,,2019_Feb_10_1539,60.149189570012176,Cloud_Experiment_FR_REAL,001,18,
images/fcloud65-35_D1.3_8.tif,1.3,1,,,,,,,,,,,,,0,38,38,69,,,,,,,,,,,None,None,None,26.365,,,,,,,,,,,,,,,,,,,2019_Feb_10_1539,60.149189570012176,Cloud_Experiment_FR_REAL,001,18,
images/fcloud80-20_D0.9_8.tif,0.9,2,,,,,,,,,,,,,0,39,39,101,,,,,,,,,,,None,None,None,34.771,,,,,,,,,,,,,,,,,,,2019_Feb_10_1539,60.149189570012176,Cloud_Experiment_FR_REAL,001,18,
images/fcloud_D0.9_8.tif,0.9,0,,,,,,,,,,,,,0,40,40,5,,,,,,,,,,,None,None,None,43.265,,,,,,,,,,,,,,,,,,,2019_Feb_10_1539,60.149189570012176,Cloud_Experiment_FR_REAL,001,18,
images/fcloud_D1.8_8.tif,1.8,0,,,,,,,,,,,,,0,41,41,41,,,,,,,,,,,None,None,None,51.822,,,,,,,,,,,,,,,,,,,2019_Feb_10_1539,60.149189570012176,Cloud_Experiment_FR_REAL,001,18,
images/fcloud65-35_D1.2_9.tif,1.2,1,,,,,,,,,,,,,0,42,42,66,,,,,,,,,,,None,None,None,60.301,,,,,,,,,,,,,,,,,,,2019_Feb_10_1539,60.149189570012176,Cloud_Experiment_FR_REAL,001,18,
images/fcloud_D1.6_10.tif,1.6,0,,,,,,,,,,,,,0,43,43,35,,,,,,,,,,,1,None,1,1.519,,,,,,,,,,,,,,,,,,,2019_Feb_10_1539,60.149189570012176,Cloud_Experiment_FR_REAL,001,18,
images/fcloud65-35_D1.4_10.tif,1.4,1,,,,,,,,,,,,,0,44,44,75,,,,,,,,,,,1,None,4,0.652,,,,,,,,,,,,,,,,,,,2019_Feb_10_1539,60.149189570012176,Cloud_Experiment_FR_REAL,001,18,
images/fcloud_D1.2_10.tif,1.2,0,,,,,,,,,,,,,0,45,45,19,,,,,,,,,,,1,None,2,1.651,,,,,,,,,,,,,,,,,,,2019_Feb_10_1539,60.149189570012176,Cloud_Experiment_FR_REAL,001,18,
images/fcloud80-20_D1.1_7.tif,1.1,2,,,,,,,,,,,,,0,46,46,108,,,,,,,,,,,None,None,None,12.207,,,,,,,,,,,,,,,,,,,2019_Feb_10_1539,60.149189570012176,Cloud_Experiment_FR_REAL,001,18,
images/fcloud65-35_D1.4_8.tif,1.4,1,,,,,,,,,,,,,0,47,47,73,,,,,,,,,,,1,None,3,0.953,,,,,,,,,,,,,,,,,,,2019_Feb_10_1539,60.149189570012176,Cloud_Experiment_FR_REAL,001,18,
images/fcloud65-35_D1.5_9.tif,1.5,1,,,,,,,,,,,,,0,48,48,78,,,,,,,,,,,1,None,4,0.453,,,,,,,,,,,,,,,,,,,2019_Feb_10_1539,60.149189570012176,Cloud_Experiment_FR_REAL,001,18,
images/fcloud80-20_D1_7.tif,1.0,2,,,,,,,,,,,,,0,49,49,104,,,,,,,,,,,None,None,None,9.496,,,,,,,,,,,,,,,,,,,2019_Feb_10_1539,60.149189570012176,Cloud_Experiment_FR_REAL,001,18,
images/fcloud80-20_D1.2_10.tif,1.2,2,,,,,,,,,,,,,0,50,50,115,,,,,,,,,,,None,None,None,18.455,,,,,,,,,,,,,,,,,,,2019_Feb_10_1539,60.149189570012176,Cloud_Experiment_FR_REAL,001,18,
images/fcloud_D1_7.tif,1.0,0,,,,,,,,,,,,,0,51,51,8,,,,,,,,,,,1,None,2,0.52,,,,,,,,,,,,,,,,,,,2019_Feb_10_1539,60.149189570012176,Cloud_Experiment_FR_REAL,001,18,
images/fcloud80-20_D0.8_8.tif,0.8,2,,,,,,,,,,,,,0,52,52,97,,,,,,,,,,,None,None,None,9.21,,,,,,,,,,,,,,,,,,,2019_Feb_10_1539,60.149189570012176,Cloud_Experiment_FR_REAL,001,18,
images/fcloud_D1.2_9.tif,1.2,0,,,,,,,,,,,,,0,53,53,18,,,,,,,,,,,1,None,2,0.637,,,,,,,,,,,,,,,,,,,2019_Feb_10_1539,60.149189570012176,Cloud_Experiment_FR_REAL,001,18,
images/fcloud65-35_D1_10.tif,1.0,1,,,,,,,,,,,,,0,54,54,59,,,,,,,,,,,1,None,3,1.137,,,,,,,,,,,,,,,,,,,2019_Feb_10_1539,60.149189570012176,Cloud_Experiment_FR_REAL,001,18,
images/fcloud65-35_D1.3_10.tif,1.3,1,,,,,,,,,,,,,0,55,55,71,,,,,,,,,,,None,None,None,9.942,,,,,,,,,,,,,,,,,,,2019_Feb_10_1539,60.149189570012176,Cloud_Experiment_FR_REAL,001,18,
images/fcloud_D1.4_7.tif,1.4,0,,,,,,,,,,,,,0,56,56,24,,,,,,,,,,,None,None,None,18.769,,,,,,,,,,,,,,,,,,,2019_Feb_10_1539,60.149189570012176,Cloud_Experiment_FR_REAL,001,18,
images/fcloud80-20_D1.6_7.tif,1.6,2,,,,,,,,,,,,,0,57,57,128,,,,,,,,,,,None,None,None,27.212,,,,,,,,,,,,,,,,,,,2019_Feb_10_1539,60.149189570012176,Cloud_Experiment_FR_REAL,001,18,
images/fcloud65-35_D1.6_9.tif,1.6,1,,,,,,,,,,,,,0,58,58,82,,,,,,,,,,,None,None,None,35.621,,,,,,,,,,,,,,,,,,,2019_Feb_10_1539,60.149189570012176,Cloud_Experiment_FR_REAL,001,18,
images/fcloud65-35_D0.8_10.tif,0.8,1,,,,,,,,,,,,,0,59,59,51,,,,,,,,,,,None,None,None,44.629,,,,,,,,,,,,,,,,,,,2019_Feb_10_1539,60.149189570012176,Cloud_Experiment_FR_REAL,001,18,
images/fcloud_D1_8.tif,1.0,0,,,,,,,,,,,,,0,60,60,9,,,,,,,,,,,None,None,None,53.471,,,,,,,,,,,,,,,,,,,2019_Feb_10_1539,60.149189570012176,Cloud_Experiment_FR_REAL,001,18,
images/fcloud_D1.6_7.tif,1.6,0,,,,,,,,,,,,,0,61,61,32,,,,,,,,,,,None,None,None,61.864,,,,,,,,,,,,,,,,,,,2019_Feb_10_1539,60.149189570012176,Cloud_Experiment_FR_REAL,001,18,
images/fcloud_D0.8_10.tif,0.8,0,,,,,,,,,,,,,0,62,62,3,,,,,,,,,,,None,None,None,70.328,,,,,,,,,,,,,,,,,,,2019_Feb_10_1539,60.149189570012176,Cloud_Experiment_FR_REAL,001,18,
images/fcloud65-35_D1.9_8.tif,1.9,1,,,,,,,,,,,,,0,63,63,93,,,,,,,,,,,1,None,3,2.966,,,,,,,,,,,,,,,,,,,2019_Feb_10_1539,60.149189570012176,Cloud_Experiment_FR_REAL,001,18,
images/fcloud65-35_D1.1_8.tif,1.1,1,,,,,,,,,,,,,0,64,64,61,,,,,,,,,,,None,None,None,11.974,,,,,,,,,,,,,,,,,,,2019_Feb_10_1539,60.149189570012176,Cloud_Experiment_FR_REAL,001,18,
images/fcloud65-35_D0.9_8.tif,0.9,1,,,,,,,,,,,,,0,65,65,53,,,,,,,,,,,None,None,None,20.819,,,,,,,,,,,,,,,,,,,2019_Feb_10_1539,60.149189570012176,Cloud_Experiment_FR_REAL,001,18,
images/fcloud80-20_D1.2_9.tif,1.2,2,,,,,,,,,,,,,0,66,66,114,,,,,,,,,,,None,None,None,29.325,,,,,,,,,,,,,,,,,,,2019_Feb_10_1539,60.149189570012176,Cloud_Experiment_FR_REAL,001,18,
images/fcloud65-35_D1.7_8.tif,1.7,1,,,,,,,,,,,,,0,67,67,85,,,,,,,,,,,1,None,2,0.899,,,,,,,,,,,,,,,,,,,2019_Feb_10_1539,60.149189570012176,Cloud_Experiment_FR_REAL,001,18,
images/fcloud_D1.9_10.tif,1.9,0,,,,,,,,,,,,,0,68,68,47,,,,,,,,,,,1,None,2,1.635,,,,,,,,,,,,,,,,,,,2019_Feb_10_1539,60.149189570012176,Cloud_Experiment_FR_REAL,001,18,
images/fcloud65-35_D1_8.tif,1.0,1,,,,,,,,,,,,,0,69,69,57,,,,,,,,,,,None,None,None,10.411,,,,,,,,,,,,,,,,,,,2019_Feb_10_1539,60.149189570012176,Cloud_Experiment_FR_REAL,001,18,
images/fcloud_D1.8_7.tif,1.8,0,,,,,,,,,,,,,0,70,70,40,,,,,,,,,,,1,None,3,0.552,,,,,,,,,,,,,,,,,,,2019_Feb_10_1539,60.149189570012176,Cloud_Experiment_FR_REAL,001,18,
images/fcloud65-35_D1.5_10.tif,1.5,1,,,,,,,,,,,,,0,71,71,79,,,,,,,,,,,1,None,2,1.685,,,,,,,,,,,,,,,,,,,2019_Feb_10_1539,60.149189570012176,Cloud_Experiment_FR_REAL,001,18,
images/fcloud_D1.3_7.tif,1.3,0,,,,,,,,,,,,,0,72,72,20,,,,,,,,,,,None,None,None,10.512,,,,,,,,,,,,,,,,,,,2019_Feb_10_1539,60.149189570012176,Cloud_Experiment_FR_REAL,001,18,
images/fcloud_D1.9_9.tif,1.9,0,,,,,,,,,,,,,0,73,73,46,,,,,,,,,,,None,None,None,18.92,,,,,,,,,,,,,,,,,,,2019_Feb_10_1539,60.149189570012176,Cloud_Experiment_FR_REAL,001,18,
images/fcloud65-35_D1.7_10.tif,1.7,1,,,,,,,,,,,,,0,74,74,87,,,,,,,,,,,None,None,None,27.362,,,,,,,,,,,,,,,,,,,2019_Feb_10_1539,60.149189570012176,Cloud_Experiment_FR_REAL,001,18,
images/fcloud80-20_D1.8_10.tif,1.8,2,,,,,,,,,,,,,0,75,75,139,,,,,,,,,,,1,None,1,1.153,,,,,,,,,,,,,,,,,,,2019_Feb_10_1539,60.149189570012176,Cloud_Experiment_FR_REAL,001,18,
images/fcloud_D1.5_8.tif,1.5,0,,,,,,,,,,,,,0,76,76,29,,,,,,,,,,,1,None,1,0.536,,,,,,,,,,,,,,,,,,,2019_Feb_10_1539,60.149189570012176,Cloud_Experiment_FR_REAL,001,18,
images/fcloud65-35_D1.3_9.tif,1.3,1,,,,,,,,,,,,,0,77,77,70,,,,,,,,,,,None,None,None,9.242,,,,,,,,,,,,,,,,,,,2019_Feb_10_1539,60.149189570012176,Cloud_Experiment_FR_REAL,001,18,
images/fcloud80-20_D1.7_9.tif,1.7,2,,,,,,,,,,,,,0,78,78,134,,,,,,,,,,,None,None,None,17.869,,,,,,,,,,,,,,,,,,,2019_Feb_10_1539,60.149189570012176,Cloud_Experiment_FR_REAL,001,18,
images/fcloud_D1_10.tif,1.0,0,,,,,,,,,,,,,0,79,79,11,,,,,,,,,,,None,None,None,26.511,,,,,,,,,,,,,,,,,,,2019_Feb_10_1539,60.149189570012176,Cloud_Experiment_FR_REAL,001,18,
images/fcloud_D1.4_10.tif,1.4,0,,,,,,,,,,,,,0,80,80,27,,,,,,,,,,,1,None,3,0.519,,,,,,,,,,,,,,,,,,,2019_Feb_10_1539,60.149189570012176,Cloud_Experiment_FR_REAL,001,18,
images/fcloud80-20_D1.9_8.tif,1.9,2,,,,,,,,,,,,,0,81,81,141,,,,,,,,,,,None,None,None,9.477,,,,,,,,,,,,,,,,,,,2019_Feb_10_1539,60.149189570012176,Cloud_Experiment_FR_REAL,001,18,
images/fcloud_D1.2_8.tif,1.2,0,,,,,,,,,,,,,0,82,82,17,,,,,,,,,,,2,None,2,1.585,,,,,,,,,,,,,,,,,,,2019_Feb_10_1539,60.149189570012176,Cloud_Experiment_FR_REAL,001,18,
images/fcloud_D0.8_9.tif,0.8,0,,,,,,,,,,,,,0,83,83,2,,,,,,,,,,,None,None,None,11.493,,,,,,,,,,,,,,,,,,,2019_Feb_10_1539,60.149189570012176,Cloud_Experiment_FR_REAL,001,18,
images/fcloud80-20_D1.1_10.tif,1.1,2,,,,,,,,,,,,,0,84,84,111,,,,,,,,,,,None,None,None,20.801,,,,,,,,,,,,,,,,,,,2019_Feb_10_1539,60.149189570012176,Cloud_Experiment_FR_REAL,001,18,
images/fcloud65-35_D0.9_7.tif,0.9,1,,,,,,,,,,,,,0,85,85,52,,,,,,,,,,,None,None,None,29.126,,,,,,,,,,,,,,,,,,,2019_Feb_10_1539,60.149189570012176,Cloud_Experiment_FR_REAL,001,18,
images/fcloud_D1.5_9.tif,1.5,0,,,,,,,,,,,,,0,86,86,30,,,,,,,,,,,1,None,2,1.603,,,,,,,,,,,,,,,,,,,2019_Feb_10_1539,60.149189570012176,Cloud_Experiment_FR_REAL,001,18,
images/fcloud80-20_D1.5_9.tif,1.5,2,,,,,,,,,,,,,0,87,87,126,,,,,,,,,,,None,None,None,13.107,,,,,,,,,,,,,,,,,,,2019_Feb_10_1539,60.149189570012176,Cloud_Experiment_FR_REAL,001,18,
images/fcloud65-35_D1.4_7.tif,1.4,1,,,,,,,,,,,,,0,88,88,72,,,,,,,,,,,None,None,None,22.364,,,,,,,,,,,,,,,,,,,2019_Feb_10_1539,60.149189570012176,Cloud_Experiment_FR_REAL,001,18,
images/fcloud65-35_D1.7_7.tif,1.7,1,,,,,,,,,,,,,0,89,89,84,,,,,,,,,,,None,None,None,31.044,,,,,,,,,,,,,,,,,,,2019_Feb_10_1539,60.149189570012176,Cloud_Experiment_FR_REAL,001,18,
images/fcloud80-20_D0.9_10.tif,0.9,2,,,,,,,,,,,,,0,90,90,103,,,,,,,,,,,1,None,2,0.588,,,,,,,,,,,,,,,,,,,2019_Feb_10_1539,60.149189570012176,Cloud_Experiment_FR_REAL,001,18,
images/fcloud80-20_D1.8_7.tif,1.8,2,,,,,,,,,,,,,0,91,91,136,,,,,,,,,,,None,None,None,9.561,,,,,,,,,,,,,,,,,,,2019_Feb_10_1539,60.149189570012176,Cloud_Experiment_FR_REAL,001,18,
images/fcloud_D1.4_9.tif,1.4,0,,,,,,,,,,,,,0,92,92,26,,,,,,,,,,,None,None,None,18.436,,,,,,,,,,,,,,,,,,,2019_Feb_10_1539,60.149189570012176,Cloud_Experiment_FR_REAL,001,18,
images/fcloud65-35_D1_9.tif,1.0,1,,,,,,,,,,,,,0,93,93,58,,,,,,,,,,,1,None,2,0.834,,,,,,,,,,,,,,,,,,,2019_Feb_10_1539,60.149189570012176,Cloud_Experiment_FR_REAL,001,18,
images/fcloud80-20_D1.9_7.tif,1.9,2,,,,,,,,,,,,,0,94,94,140,,,,,,,,,,,2,None,1,3.833,,,,,,,,,,,,,,,,,,,2019_Feb_10_1539,60.149189570012176,Cloud_Experiment_FR_REAL,001,18,
images/fcloud80-20_D1.2_8.tif,1.2,2,,,,,,,,,,,,,0,95,95,113,,,,,,,,,,,2,None,2,1.37,,,,,,,,,,,,,,,,,,,2019_Feb_10_1539,60.149189570012176,Cloud_Experiment_FR_REAL,001,18,
images/fcloud65-35_D1.1_10.tif,1.1,1,,,,,,,,,,,,,0,96,96,63,,,,,,,,,,,None,None,None,10.541,,,,,,,,,,,,,,,,,,,2019_Feb_10_1539,60.149189570012176,Cloud_Experiment_FR_REAL,001,18,
images/fcloud80-20_D1_9.tif,1.0,2,,,,,,,,,,,,,0,97,97,106,,,,,,,,,,,None,None,None,18.855,,,,,,,,,,,,,,,,,,,2019_Feb_10_1539,60.149189570012176,Cloud_Experiment_FR_REAL,001,18,
images/fcloud80-20_D1.4_9.tif,1.4,2,,,,,,,,,,,,,0,98,98,122,,,,,,,,,,,None,None,None,27.276,,,,,,,,,,,,,,,,,,,2019_Feb_10_1539,60.149189570012176,Cloud_Experiment_FR_REAL,001,18,
images/fcloud_D1.5_7.tif,1.5,0,,,,,,,,,,,,,0,99,99,28,,,,,,,,,,,1,None,4,0.735,,,,,,,,,,,,,,,,,,,2019_Feb_10_1539,60.149189570012176,Cloud_Experiment_FR_REAL,001,18,
images/fcloud80-20_D1.6_10.tif,1.6,2,,,,,,,,,,,,,0,100,100,131,,,,,,,,,,,1,None,2,0.419,,,,,,,,,,,,,,,,,,,2019_Feb_10_1539,60.149189570012176,Cloud_Experiment_FR_REAL,001,18,
images/fcloud80-20_D1.7_10.tif,1.7,2,,,,,,,,,,,,,0,101,101,135,,,,,,,,,,,1,None,3,1.087,,,,,,,,,,,,,,,,,,,2019_Feb_10_1539,60.149189570012176,Cloud_Experiment_FR_REAL,001,18,
images/fcloud65-35_D1.8_9.tif,1.8,1,,,,,,,,,,,,,0,102,102,90,,,,,,,,,,,None,None,None,9.792,,,,,,,,,,,,,,,,,,,2019_Feb_10_1539,60.149189570012176,Cloud_Experiment_FR_REAL,001,18,
images/fcloud80-20_D1.9_9.tif,1.9,2,,,,,,,,,,,,,0,103,103,142,,,,,,,,,,,1,None,1,0.503,,,,,,,,,,,,,,,,,,,2019_Feb_10_1539,60.149189570012176,Cloud_Experiment_FR_REAL,001,18,
images/fcloud65-35_D1.9_10.tif,1.9,1,,,,,,,,,,,,,0,104,104,95,,,,,,,,,,,None,None,None,9.517,,,,,,,,,,,,,,,,,,,2019_Feb_10_1539,60.149189570012176,Cloud_Experiment_FR_REAL,001,18,
images/fcloud80-20_D1.3_8.tif,1.3,2,,,,,,,,,,,,,0,105,105,117,,,,,,,,,,,None,None,None,18.485,,,,,,,,,,,,,,,,,,,2019_Feb_10_1539,60.149189570012176,Cloud_Experiment_FR_REAL,001,18,
images/fcloud80-20_D1.4_7.tif,1.4,2,,,,,,,,,,,,,0,106,106,120,,,,,,,,,,,None,None,None,26.96,,,,,,,,,,,,,,,,,,,2019_Feb_10_1539,60.149189570012176,Cloud_Experiment_FR_REAL,001,18,
images/fcloud65-35_D1.8_8.tif,1.8,1,,,,,,,,,,,,,0,107,107,89,,,,,,,,,,,None,None,None,35.472,,,,,,,,,,,,,,,,,,,2019_Feb_10_1539,60.149189570012176,Cloud_Experiment_FR_REAL,001,18,
images/fcloud_D1.9_7.tif,1.9,0,,,,,,,,,,,,,0,108,108,44,,,,,,,,,,,1,None,3,0.453,,,,,,,,,,,,,,,,,,,2019_Feb_10_1539,60.149189570012176,Cloud_Experiment_FR_REAL,001,18,
images/fcloud80-20_D1.7_8.tif,1.7,2,,,,,,,,,,,,,0,109,109,133,,,,,,,,,,,None,None,None,10.093,,,,,,,,,,,,,,,,,,,2019_Feb_10_1539,60.149189570012176,Cloud_Experiment_FR_REAL,001,18,
images/fcloud80-20_D1.5_10.tif,1.5,2,,,,,,,,,,,,,0,110,110,127,,,,,,,,,,,None,None,None,18.519,,,,,,,,,,,,,,,,,,,2019_Feb_10_1539,60.149189570012176,Cloud_Experiment_FR_REAL,001,18,
images/fcloud65-35_D0.9_9.tif,0.9,1,,,,,,,,,,,,,0,111,111,54,,,,,,,,,,,2,None,2,0.785,,,,,,,,,,,,,,,,,,,2019_Feb_10_1539,60.149189570012176,Cloud_Experiment_FR_REAL,001,18,
images/fcloud80-20_D0.8_7.tif,0.8,2,,,,,,,,,,,,,0,112,112,96,,,,,,,,,,,None,None,None,11.725,,,,,,,,,,,,,,,,,,,2019_Feb_10_1539,60.149189570012176,Cloud_Experiment_FR_REAL,001,18,
images/fcloud80-20_D1.3_7.tif,1.3,2,,,,,,,,,,,,,0,113,113,116,,,,,,,,,,,None,None,None,20.117,,,,,,,,,,,,,,,,,,,2019_Feb_10_1539,60.149189570012176,Cloud_Experiment_FR_REAL,001,18,
images/fcloud_D1.6_8.tif,1.6,0,,,,,,,,,,,,,0,114,114,33,,,,,,,,,,,None,None,None,28.477,,,,,,,,,,,,,,,,,,,2019_Feb_10_1539,60.149189570012176,Cloud_Experiment_FR_REAL,001,18,
images/fcloud_D1.1_8.tif,1.1,0,,,,,,,,,,,,,0,115,115,13,,,,,,,,,,,1,None,1,0.605,,,,,,,,,,,,,,,,,,,2019_Feb_10_1539,60.149189570012176,Cloud_Experiment_FR_REAL,001,18,
images/fcloud_D0.9_9.tif,0.9,0,,,,,,,,,,,,,0,116,116,6,,,,,,,,,,,None,None,None,9.777,,,,,,,,,,,,,,,,,,,2019_Feb_10_1539,60.149189570012176,Cloud_Experiment_FR_REAL,001,18,
images/fcloud80-20_D1.1_8.tif,1.1,2,,,,,,,,,,,,,0,117,117,109,,,,,,,,,,,1,None,2,2.899,,,,,,,,,,,,,,,,,,,2019_Feb_10_1539,60.149189570012176,Cloud_Experiment_FR_REAL,001,18,
images/fcloud65-35_D1.5_7.tif,1.5,1,,,,,,,,,,,,,0,118,118,76,,,,,,,,,,,None,None,None,11.626,,,,,,,,,,,,,,,,,,,2019_Feb_10_1539,60.149189570012176,Cloud_Experiment_FR_REAL,001,18,
images/fcloud_D1.5_10.tif,1.5,0,,,,,,,,,,,,,0,119,119,31,,,,,,,,,,,None,None,None,20.068,,,,,,,,,,,,,,,,,,,2019_Feb_10_1539,60.149189570012176,Cloud_Experiment_FR_REAL,001,18,
images/fcloud65-35_D1.7_9.tif,1.7,1,,,,,,,,,,,,,0,120,120,86,,,,,,,,,,,1,None,2,0.754,,,,,,,,,,,,,,,,,,,2019_Feb_10_1539,60.149189570012176,Cloud_Experiment_FR_REAL,001,18,
images/fcloud_D0.8_7.tif,0.8,0,,,,,,,,,,,,,0,121,121,0,,,,,,,,,,,1,None,5,1.118,,,,,,,,,,,,,,,,,,,2019_Feb_10_1539,60.149189570012176,Cloud_Experiment_FR_REAL,001,18,
images/fcloud65-35_D1.2_10.tif,1.2,1,,,,,,,,,,,,,0,122,122,67,,,,,,,,,,,None,None,None,10.109,,,,,,,,,,,,,,,,,,,2019_Feb_10_1539,60.149189570012176,Cloud_Experiment_FR_REAL,001,18,
images/fcloud80-20_D1.4_10.tif,1.4,2,,,,,,,,,,,,,0,123,123,123,,,,,,,,,,,1,None,1,0.454,,,,,,,,,,,,,,,,,,,2019_Feb_10_1539,60.149189570012176,Cloud_Experiment_FR_REAL,001,18,
images/fcloud_D1.8_9.tif,1.8,0,,,,,,,,,,,,,0,124,124,42,,,,,,,,,,,None,None,None,9.193,,,,,,,,,,,,,,,,,,,2019_Feb_10_1539,60.149189570012176,Cloud_Experiment_FR_REAL,001,18,
images/fcloud_D1.7_8.tif,1.7,0,,,,,,,,,,,,,0,125,125,37,,,,,,,,,,,None,None,None,17.604,,,,,,,,,,,,,,,,,,,2019_Feb_10_1539,60.149189570012176,Cloud_Experiment_FR_REAL,001,18,
images/fcloud_D1.1_9.tif,1.1,0,,,,,,,,,,,,,0,126,126,14,,,,,,,,,,,None,None,None,25.962,,,,,,,,,,,,,,,,,,,2019_Feb_10_1539,60.149189570012176,Cloud_Experiment_FR_REAL,001,18,
images/fcloud65-35_D1.9_9.tif,1.9,1,,,,,,,,,,,,,0,127,127,94,,,,,,,,,,,None,None,None,34.454,,,,,,,,,,,,,,,,,,,2019_Feb_10_1539,60.149189570012176,Cloud_Experiment_FR_REAL,001,18,
images/fcloud80-20_D1.5_8.tif,1.5,2,,,,,,,,,,,,,0,128,128,125,,,,,,,,,,,None,None,None,42.897,,,,,,,,,,,,,,,,,,,2019_Feb_10_1539,60.149189570012176,Cloud_Experiment_FR_REAL,001,18,
images/fcloud_D1.7_9.tif,1.7,0,,,,,,,,,,,,,0,129,129,38,,,,,,,,,,,2,None,3,0.854,,,,,,,,,,,,,,,,,,,2019_Feb_10_1539,60.149189570012176,Cloud_Experiment_FR_REAL,001,18,
images/fcloud_D1.3_10.tif,1.3,0,,,,,,,,,,,,,0,130,130,23,,,,,,,,,,,1,None,1,1.536,,,,,,,,,,,,,,,,,,,2019_Feb_10_1539,60.149189570012176,Cloud_Experiment_FR_REAL,001,18,
images/fcloud80-20_D1_10.tif,1.0,2,,,,,,,,,,,,,0,131,131,107,,,,,,,,,,,None,None,None,10.643,,,,,,,,,,,,,,,,,,,2019_Feb_10_1539,60.149189570012176,Cloud_Experiment_FR_REAL,001,18,
images/fcloud65-35_D0.8_8.tif,0.8,1,,,,,,,,,,,,,0,132,132,49,,,,,,,,,,,None,None,None,19.019,,,,,,,,,,,,,,,,,,,2019_Feb_10_1539,60.149189570012176,Cloud_Experiment_FR_REAL,001,18,
images/fcloud80-20_D1_8.tif,1.0,2,,,,,,,,,,,,,0,133,133,105,,,,,,,,,,,None,None,None,27.578,,,,,,,,,,,,,,,,,,,2019_Feb_10_1539,60.149189570012176,Cloud_Experiment_FR_REAL,001,18,
images/fcloud65-35_D1.2_8.tif,1.2,1,,,,,,,,,,,,,0,134,134,65,,,,,,,,,,,None,None,None,36.054,,,,,,,,,,,,,,,,,,,2019_Feb_10_1539,60.149189570012176,Cloud_Experiment_FR_REAL,001,18,
images/fcloud_D0.9_10.tif,0.9,0,,,,,,,,,,,,,0,135,135,7,,,,,,,,,,,None,None,None,44.484,,,,,,,,,,,,,,,,,,,2019_Feb_10_1539,60.149189570012176,Cloud_Experiment_FR_REAL,001,18,
images/fcloud65-35_D0.9_10.tif,0.9,1,,,,,,,,,,,,,0,136,136,55,,,,,,,,,,,None,None,None,52.89,,,,,,,,,,,,,,,,,,,2019_Feb_10_1539,60.149189570012176,Cloud_Experiment_FR_REAL,001,18,
images/fcloud80-20_D1.8_9.tif,1.8,2,,,,,,,,,,,,,0,137,137,138,,,,,,,,,,,None,None,None,61.484,,,,,,,,,,,,,,,,,,,2019_Feb_10_1539,60.149189570012176,Cloud_Experiment_FR_REAL,001,18,
images/fcloud_D1.1_10.tif,1.1,0,,,,,,,,,,,,,0,138,138,15,,,,,,,,,,,None,None,None,69.939,,,,,,,,,,,,,,,,,,,2019_Feb_10_1539,60.149189570012176,Cloud_Experiment_FR_REAL,001,18,
images/fcloud65-35_D1.2_7.tif,1.2,1,,,,,,,,,,,,,0,139,139,64,,,,,,,,,,,None,None,None,78.417,,,,,,,,,,,,,,,,,,,2019_Feb_10_1539,60.149189570012176,Cloud_Experiment_FR_REAL,001,18,
images/fcloud80-20_D0.8_10.tif,0.8,2,,,,,,,,,,,,,0,140,140,99,,,,,,,,,,,1,None,4,1.022,,,,,,,,,,,,,,,,,,,2019_Feb_10_1539,60.149189570012176,Cloud_Experiment_FR_REAL,001,18,
images/fcloud_D0.8_8.tif,0.8,0,,,,,,,,,,,,,0,141,141,1,,,,,,,,,,,None,None,None,10.161,,,,,,,,,,,,,,,,,,,2019_Feb_10_1539,60.149189570012176,Cloud_Experiment_FR_REAL,001,18,
images/fcloud_D1.3_8.tif,1.3,0,,,,,,,,,,,,,0,142,142,21,,,,,,,,,,,None,None,None,18.934,,,,,,,,,,,,,,,,,,,2019_Feb_10_1539,60.149189570012176,Cloud_Experiment_FR_REAL,001,18,
images/fcloud80-20_D1.2_7.tif,1.2,2,,,,,,,,,,,,,0,143,143,112,,,,,,,,,,,None,None,None,27.445,,,,,,,,,,,,,,,,,,,2019_Feb_10_1539,60.149189570012176,Cloud_Experiment_FR_REAL,001,18,
,,,,,,,,,,,,,,,,,,,,,,,,,6,17.845,,,,,,,,,,,,,,,,,,,,,,,,,2019_Feb_10_1539,60.149189570012176,Cloud_Experiment_FR_REAL,001,18,
,,,,,,,,,,,,,,,,,,,,,,,,,,,,,,,,,5,,,,,,,,,,,,,,,,,,2019_Feb_10_1539,60.149189570012176,Cloud_Experiment_FR_REAL,001,18,
,,,,,,,,,,,,,,,,,,,,,,,,,,,,,,,,,,5,,,,,,,,,,,,,,,,,2019_Feb_10_1539,60.149189570012176,Cloud_Experiment_FR_REAL,001,18,
,,,,,,,,,,,,,,,,,,,,,,,,,,,,,,,,,,,6,,,,,,,,,,,,,,,,2019_Feb_10_1539,60.149189570012176,Cloud_Experiment_FR_REAL,001,18,
,,,,,,,,,,,,,,,,,,,,,,,,,,,,,,,,,,,,5,,,,,,,,,,,,,,,2019_Feb_10_1539,60.149189570012176,Cloud_Experiment_FR_REAL,001,18,
,,,,,,,,,,,,,,,,,,,,,,,,,,,,,,,,,,,,,5,,,,,,,,,,,,,,2019_Feb_10_1539,60.149189570012176,Cloud_Experiment_FR_REAL,001,18,
,,,,,,,,,,,,,,,,,,,,,,,,,,,,,,,,,,,,,,6,,,,,,,,,,,,,2019_Feb_10_1539,60.149189570012176,Cloud_Experiment_FR_REAL,001,18,
,,,,,,,,,,,,,,,,,,,,,,,,,,,,,,,,,,,,,,,6,,,,,,,,,,,,2019_Feb_10_1539,60.149189570012176,Cloud_Experiment_FR_REAL,001,18,
,,,,,,,,,,,,,,,,,,,,,,,,,,,,,,,,,,,,,,,,7,,,,,,,,,,,2019_Feb_10_1539,60.149189570012176,Cloud_Experiment_FR_REAL,001,18,
,,,,,,,,,,,,,,,,,,,,,,,,,,,,,,,,,,,,,,,,,7,,,,,,,,,,2019_Feb_10_1539,60.149189570012176,Cloud_Experiment_FR_REAL,001,18,
,,,,,,,,,,,,,,,,,,,,,,,,,,,,,,,,,,,,,,,,,,2,,,,,,,,,2019_Feb_10_1539,60.149189570012176,Cloud_Experiment_FR_REAL,001,18,
,,,,,,,,,,,,,,,,,,,,,,,,,,,,,,,,,,,,,,,,,,,,,,,,,,2,2019_Feb_10_1539,60.149189570012176,Cloud_Experiment_FR_REAL,001,18,
