ImageFile,FD,Contrast,trials_4.thisRepN,trials_4.thisTrialN,trials_4.thisN,trials_4.thisIndex,trials.thisRepN,trials.thisTrialN,trials.thisN,trials.thisIndex,trials_2.thisRepN,trials_2.thisTrialN,trials_2.thisN,trials_2.thisIndex,trials_3.thisRepN,trials_3.thisTrialN,trials_3.thisN,trials_3.thisIndex,end_instructions.keys,end_instructions.rt,key_resp_4.keys,key_resp_4.rt,key_resp_6.keys,key_resp_6.rt,Fatigue.response,Fatigue.rt,key_resp_5.keys,key_resp_5.rt,n_objets.response,reaction_time.keys,reaction_time.rt,vividness.response,vividness.rt,Flow01.response,Flow02.response,Flow03.response,Flow04.response,Flow05.response,Flow06.response,Flow07.response,Flow08.response,Flow09.response,Flow10.response,key_resp_2.keys,key_resp_2.rt,key_resp_8.keys,key_resp_8.rt,key_resp_3.keys,key_resp_3.rt,Redondance_question.response,date,frameRate,expName,session,participant,
,,,,,,,,,,,,,,,,,,,space,88.6314441562,,,,,,,,,,,,,,,,,,,,,,,,,,,,,,,2019_Feb_10_1730,60.0743321386684,Cloud_Experiment_FR_REAL,001,19,
,,,,,,,,,,,,,,,,,,,,,space,39.1669107581,,,,,,,,,,,,,,,,,,,,,,,,,,,,,2019_Feb_10_1730,60.0743321386684,Cloud_Experiment_FR_REAL,001,19,
,,,,,,,,,,,,,,,,,,,,,,,space,88.8579829733,,,,,,,,,,,,,,,,,,,,,,,,,,,2019_Feb_10_1730,60.0743321386684,Cloud_Experiment_FR_REAL,001,19,
,,,,,,,,,,,,,,,,,,,,,,,,,6,11.608,,,,,,,,,,,,,,,,,,,,,,,,,2019_Feb_10_1730,60.0743321386684,Cloud_Experiment_FR_REAL,001,19,
,,,,,,,,,,,,,,,,,,,,,,,,,,,space,5.31443642115,,,,,,,,,,,,,,,,,,,,,,,2019_Feb_10_1730,60.0743321386684,Cloud_Experiment_FR_REAL,001,19,
pratique/fcloud80-20_D1.5_30,1.5,2,0,0,0,8,,,,,,,,,,,,,,,,,,,,,,,1,space,4.9654533033,3,8.763,,,,,,,,,,,,,,,,,,2019_Feb_10_1730,60.0743321386684,Cloud_Experiment_FR_REAL,001,19,
pratique/fcloud80-20_D1.8_30,1.8,2,0,1,1,4,,,,,,,,,,,,,,,,,,,,,,,1,space,11.7505635353,2,4.649,,,,,,,,,,,,,,,,,,2019_Feb_10_1730,60.0743321386684,Cloud_Experiment_FR_REAL,001,19,
pratique/fcloud65-35_D1.2_30,1.2,1,0,2,2,3,,,,,,,,,,,,,,,,,,,,,,,None,None,,None,14.537,,,,,,,,,,,,,,,,,,2019_Feb_10_1730,60.0743321386684,Cloud_Experiment_FR_REAL,001,19,
pratique/fcloud65-35_D1.3_30,1.3,1,0,3,3,6,,,,,,,,,,,,,,,,,,,,,,,2,space,10.2198442509,3,5.614,,,,,,,,,,,,,,,,,,2019_Feb_10_1730,60.0743321386684,Cloud_Experiment_FR_REAL,001,19,
pratique/fcloud65-35_D1.9_29,1.9,1,0,4,4,7,,,,,,,,,,,,,,,,,,,,,,,1,space,5.93910016352,1,2.054,,,,,,,,,,,,,,,,,,2019_Feb_10_1730,60.0743321386684,Cloud_Experiment_FR_REAL,001,19,
pratique/fcloud65-35_D1.6_30,1.6,1,0,5,5,2,,,,,,,,,,,,,,,,,,,,,,,1,space,8.09261305013,3,2.066,,,,,,,,,,,,,,,,,,2019_Feb_10_1730,60.0743321386684,Cloud_Experiment_FR_REAL,001,19,
pratique/fcloud_D1.4_30,1.4,0,0,6,6,1,,,,,,,,,,,,,,,,,,,,,,,2,space,5.88514369703,2,2.837,,,,,,,,,,,,,,,,,,2019_Feb_10_1730,60.0743321386684,Cloud_Experiment_FR_REAL,001,19,
pratique/fcloud_D0.8_30,0.8,0,0,7,7,0,,,,,,,,,,,,,,,,,,,,,,,None,None,,None,13.291,,,,,,,,,,,,,,,,,,2019_Feb_10_1730,60.0743321386684,Cloud_Experiment_FR_REAL,001,19,
pratique/fcloud_D1.6_28,1.6,0,0,8,8,5,,,,,,,,,,,,,,,,,,,,,,,2,space,2.83536034636,3,1.764,,,,,,,,,,,,,,,,,,2019_Feb_10_1730,60.0743321386684,Cloud_Experiment_FR_REAL,001,19,
pratique/fcloud80-20_D1_30,1.0,2,0,9,9,9,,,,,,,,,,,,,,,,,,,,,,,None,None,,None,11.454,,,,,,,,,,,,,,,,,,2019_Feb_10_1730,60.0743321386684,Cloud_Experiment_FR_REAL,001,19,
,,,,,,,,,,,,,,,,,,,,,,,,,,,,,,,,,,5,,,,,,,,,,,,,,,,,2019_Feb_10_1730,60.0743321386684,Cloud_Experiment_FR_REAL,001,19,
,,,,,,,,,,,,,,,,,,,,,,,,,,,,,,,,,,,3,,,,,,,,,,,,,,,,2019_Feb_10_1730,60.0743321386684,Cloud_Experiment_FR_REAL,001,19,
,,,,,,,,,,,,,,,,,,,,,,,,,,,,,,,,,,,,6,,,,,,,,,,,,,,,2019_Feb_10_1730,60.0743321386684,Cloud_Experiment_FR_REAL,001,19,
,,,,,,,,,,,,,,,,,,,,,,,,,,,,,,,,,,,,,3,,,,,,,,,,,,,,2019_Feb_10_1730,60.0743321386684,Cloud_Experiment_FR_REAL,001,19,
,,,,,,,,,,,,,,,,,,,,,,,,,,,,,,,,,,,,,,3,,,,,,,,,,,,,2019_Feb_10_1730,60.0743321386684,Cloud_Experiment_FR_REAL,001,19,
,,,,,,,,,,,,,,,,,,,,,,,,,,,,,,,,,,,,,,,5,,,,,,,,,,,,2019_Feb_10_1730,60.0743321386684,Cloud_Experiment_FR_REAL,001,19,
,,,,,,,,,,,,,,,,,,,,,,,,,,,,,,,,,,,,,,,,5,,,,,,,,,,,2019_Feb_10_1730,60.0743321386684,Cloud_Experiment_FR_REAL,001,19,
,,,,,,,,,,,,,,,,,,,,,,,,,,,,,,,,,,,,,,,,,7,,,,,,,,,,2019_Feb_10_1730,60.0743321386684,Cloud_Experiment_FR_REAL,001,19,
,,,,,,,,,,,,,,,,,,,,,,,,,,,,,,,,,,,,,,,,,,7,,,,,,,,,2019_Feb_10_1730,60.0743321386684,Cloud_Experiment_FR_REAL,001,19,
,,,,,,,,,,,,,,,,,,,,,,,,,,,,,,,,,,,,,,,,,,,3,,,,,,,,2019_Feb_10_1730,60.0743321386684,Cloud_Experiment_FR_REAL,001,19,
,,,,,,,,,,,,,,,,,,,,,,,,,,,,,,,,,,,,,,,,,,,,space,1.60119960376,,,,,,2019_Feb_10_1730,60.0743321386684,Cloud_Experiment_FR_REAL,001,19,
images/fcloud80-20_D1.9_3.tif,1.9,2,,,,,0,0,0,107,,,,,,,,,,,,,,,,,,,2,space,5.54736753902,3,3.021,,,,,,,,,,,,,,,,,,2019_Feb_10_1730,60.0743321386684,Cloud_Experiment_FR_REAL,001,19,
images/fcloud65-35_D1.1_3.tif,1.1,1,,,,,0,1,1,47,,,,,,,,,,,,,,,,,,,3,space,3.01013772096,3,4.336,,,,,,,,,,,,,,,,,,2019_Feb_10_1730,60.0743321386684,Cloud_Experiment_FR_REAL,001,19,
images/fcloud_D1.9_3.tif,1.9,0,,,,,0,2,2,35,,,,,,,,,,,,,,,,,,,1,space,5.20049976639,4,4.049,,,,,,,,,,,,,,,,,,2019_Feb_10_1730,60.0743321386684,Cloud_Experiment_FR_REAL,001,19,
images/fcloud_D1.3_1.tif,1.3,0,,,,,0,3,3,15,,,,,,,,,,,,,,,,,,,1,None,,1,1.101,,,,,,,,,,,,,,,,,,2019_Feb_10_1730,60.0743321386684,Cloud_Experiment_FR_REAL,001,19,
images/fcloud80-20_D1.7_2.tif,1.7,2,,,,,0,4,4,100,,,,,,,,,,,,,,,,,,,None,None,,None,11.375,,,,,,,,,,,,,,,,,,2019_Feb_10_1730,60.0743321386684,Cloud_Experiment_FR_REAL,001,19,
images/fcloud65-35_D1.7_3.tif,1.7,1,,,,,0,5,5,65,,,,,,,,,,,,,,,,,,,1,None,,2,1.95,,,,,,,,,,,,,,,,,,2019_Feb_10_1730,60.0743321386684,Cloud_Experiment_FR_REAL,001,19,
images/fcloud80-20_D1.8_3.tif,1.8,2,,,,,0,6,6,104,,,,,,,,,,,,,,,,,,,1,space,2.00431448163,2,1.67,,,,,,,,,,,,,,,,,,2019_Feb_10_1730,60.0743321386684,Cloud_Experiment_FR_REAL,001,19,
images/fcloud80-20_D0.8_1.tif,0.8,2,,,,,0,7,7,72,,,,,,,,,,,,,,,,,,,1,None,,1,1.021,,,,,,,,,,,,,,,,,,2019_Feb_10_1730,60.0743321386684,Cloud_Experiment_FR_REAL,001,19,
images/fcloud80-20_D1.8_1.tif,1.8,2,,,,,0,8,8,102,,,,,,,,,,,,,,,,,,,2,space,3.35707900382,2,2.184,,,,,,,,,,,,,,,,,,2019_Feb_10_1730,60.0743321386684,Cloud_Experiment_FR_REAL,001,19,
images/fcloud80-20_D1.9_2.tif,1.9,2,,,,,0,9,9,106,,,,,,,,,,,,,,,,,,,1,None,,1,0.953,,,,,,,,,,,,,,,,,,2019_Feb_10_1730,60.0743321386684,Cloud_Experiment_FR_REAL,001,19,
images/fcloud_D0.8_3.tif,0.8,0,,,,,0,10,10,2,,,,,,,,,,,,,,,,,,,1,space,6.13519394607,1,1.517,,,,,,,,,,,,,,,,,,2019_Feb_10_1730,60.0743321386684,Cloud_Experiment_FR_REAL,001,19,
images/fcloud80-20_D1.4_2.tif,1.4,2,,,,,0,11,11,91,,,,,,,,,,,,,,,,,,,None,None,,None,10.729,,,,,,,,,,,,,,,,,,2019_Feb_10_1730,60.0743321386684,Cloud_Experiment_FR_REAL,001,19,
images/fcloud65-35_D1.9_1.tif,1.9,1,,,,,0,12,12,69,,,,,,,,,,,,,,,,,,,2,space,2.9481208385,2,0.986,,,,,,,,,,,,,,,,,,2019_Feb_10_1730,60.0743321386684,Cloud_Experiment_FR_REAL,001,19,
images/fcloud65-35_D1_2.tif,1.0,1,,,,,0,13,13,43,,,,,,,,,,,,,,,,,,,1,space,2.10768212145,3,3.436,,,,,,,,,,,,,,,,,,2019_Feb_10_1730,60.0743321386684,Cloud_Experiment_FR_REAL,001,19,
images/fcloud80-20_D1.3_3.tif,1.3,2,,,,,0,14,14,89,,,,,,,,,,,,,,,,,,,None,None,,None,13.457,,,,,,,,,,,,,,,,,,2019_Feb_10_1730,60.0743321386684,Cloud_Experiment_FR_REAL,001,19,
images/fcloud65-35_D0.9_3.tif,0.9,1,,,,,0,15,15,41,,,,,,,,,,,,,,,,,,,2,space,2.92277165223,2,2.631,,,,,,,,,,,,,,,,,,2019_Feb_10_1730,60.0743321386684,Cloud_Experiment_FR_REAL,001,19,
images/fcloud_D1.5_3.tif,1.5,0,,,,,0,16,16,23,,,,,,,,,,,,,,,,,,,None,None,,None,12.238,,,,,,,,,,,,,,,,,,2019_Feb_10_1730,60.0743321386684,Cloud_Experiment_FR_REAL,001,19,
images/fcloud80-20_D1.2_1.tif,1.2,2,,,,,0,17,17,84,,,,,,,,,,,,,,,,,,,1,space,6.16514805611,1,0.985,,,,,,,,,,,,,,,,,,2019_Feb_10_1730,60.0743321386684,Cloud_Experiment_FR_REAL,001,19,
images/fcloud80-20_D1.3_2.tif,1.3,2,,,,,0,18,18,88,,,,,,,,,,,,,,,,,,,1,space,8.33875852113,1,0.835,,,,,,,,,,,,,,,,,,2019_Feb_10_1730,60.0743321386684,Cloud_Experiment_FR_REAL,001,19,
images/fcloud65-35_D0.9_1.tif,0.9,1,,,,,0,19,19,39,,,,,,,,,,,,,,,,,,,2,space,6.68452929589,2,1.335,,,,,,,,,,,,,,,,,,2019_Feb_10_1730,60.0743321386684,Cloud_Experiment_FR_REAL,001,19,
images/fcloud65-35_D1.9_3.tif,1.9,1,,,,,0,20,20,71,,,,,,,,,,,,,,,,,,,1,space,6.35660504329,1,0.817,,,,,,,,,,,,,,,,,,2019_Feb_10_1730,60.0743321386684,Cloud_Experiment_FR_REAL,001,19,
images/fcloud_D0.9_1.tif,0.9,0,,,,,0,21,21,3,,,,,,,,,,,,,,,,,,,1,None,,1,1.336,,,,,,,,,,,,,,,,,,2019_Feb_10_1730,60.0743321386684,Cloud_Experiment_FR_REAL,001,19,
images/fcloud80-20_D0.8_3.tif,0.8,2,,,,,0,22,22,74,,,,,,,,,,,,,,,,,,,None,None,,None,13.123,,,,,,,,,,,,,,,,,,2019_Feb_10_1730,60.0743321386684,Cloud_Experiment_FR_REAL,001,19,
images/fcloud80-20_D1.1_3.tif,1.1,2,,,,,0,23,23,83,,,,,,,,,,,,,,,,,,,1,space,6.39427103859,1,0.868,,,,,,,,,,,,,,,,,,2019_Feb_10_1730,60.0743321386684,Cloud_Experiment_FR_REAL,001,19,
images/fcloud80-20_D1.2_2.tif,1.2,2,,,,,0,24,24,85,,,,,,,,,,,,,,,,,,,2,space,3.36519442406,2,1.304,,,,,,,,,,,,,,,,,,2019_Feb_10_1730,60.0743321386684,Cloud_Experiment_FR_REAL,001,19,
images/fcloud_D1.2_2.tif,1.2,0,,,,,0,25,25,13,,,,,,,,,,,,,,,,,,,3,space,4.65807951335,2,3.051,,,,,,,,,,,,,,,,,,2019_Feb_10_1730,60.0743321386684,Cloud_Experiment_FR_REAL,001,19,
images/fcloud65-35_D1.3_2.tif,1.3,1,,,,,0,26,26,52,,,,,,,,,,,,,,,,,,,1,space,7.93672933197,1,3.35,,,,,,,,,,,,,,,,,,2019_Feb_10_1730,60.0743321386684,Cloud_Experiment_FR_REAL,001,19,
images/fcloud80-20_D1.3_1.tif,1.3,2,,,,,0,27,27,87,,,,,,,,,,,,,,,,,,,1,space,3.57276915899,4,1.805,,,,,,,,,,,,,,,,,,2019_Feb_10_1730,60.0743321386684,Cloud_Experiment_FR_REAL,001,19,
images/fcloud_D1.7_3.tif,1.7,0,,,,,0,28,28,29,,,,,,,,,,,,,,,,,,,2,space,5.08364994975,3,2.385,,,,,,,,,,,,,,,,,,2019_Feb_10_1730,60.0743321386684,Cloud_Experiment_FR_REAL,001,19,
images/fcloud_D1.1_2.tif,1.1,0,,,,,0,29,29,10,,,,,,,,,,,,,,,,,,,None,None,,None,12.174,,,,,,,,,,,,,,,,,,2019_Feb_10_1730,60.0743321386684,Cloud_Experiment_FR_REAL,001,19,
images/fcloud_D1_2.tif,1.0,0,,,,,0,30,30,7,,,,,,,,,,,,,,,,,,,2,space,3.17291700188,3,2.167,,,,,,,,,,,,,,,,,,2019_Feb_10_1730,60.0743321386684,Cloud_Experiment_FR_REAL,001,19,
images/fcloud65-35_D1.3_3.tif,1.3,1,,,,,0,31,31,53,,,,,,,,,,,,,,,,,,,None,None,,None,12.79,,,,,,,,,,,,,,,,,,2019_Feb_10_1730,60.0743321386684,Cloud_Experiment_FR_REAL,001,19,
images/fcloud_D1_3.tif,1.0,0,,,,,0,32,32,8,,,,,,,,,,,,,,,,,,,1,space,3.25633305556,3,1.434,,,,,,,,,,,,,,,,,,2019_Feb_10_1730,60.0743321386684,Cloud_Experiment_FR_REAL,001,19,
images/fcloud65-35_D1.5_1.tif,1.5,1,,,,,0,33,33,57,,,,,,,,,,,,,,,,,,,2,space,2.08019085904,3,8.83,,,,,,,,,,,,,,,,,,2019_Feb_10_1730,60.0743321386684,Cloud_Experiment_FR_REAL,001,19,
images/fcloud80-20_D1_3.tif,1.0,2,,,,,0,34,34,80,,,,,,,,,,,,,,,,,,,None,None,,None,18.471,,,,,,,,,,,,,,,,,,2019_Feb_10_1730,60.0743321386684,Cloud_Experiment_FR_REAL,001,19,
images/fcloud80-20_D0.8_2.tif,0.8,2,,,,,0,35,35,73,,,,,,,,,,,,,,,,,,,1,space,7.94849712821,1,5.398,,,,,,,,,,,,,,,,,,2019_Feb_10_1730,60.0743321386684,Cloud_Experiment_FR_REAL,001,19,
images/fcloud_D1.9_2.tif,1.9,0,,,,,0,36,36,34,,,,,,,,,,,,,,,,,,,2,space,3.46612029243,2,1.268,,,,,,,,,,,,,,,,,,2019_Feb_10_1730,60.0743321386684,Cloud_Experiment_FR_REAL,001,19,
images/fcloud_D1.9_1.tif,1.9,0,,,,,0,37,37,33,,,,,,,,,,,,,,,,,,,2,space,4.97407661192,2,1.368,,,,,,,,,,,,,,,,,,2019_Feb_10_1730,60.0743321386684,Cloud_Experiment_FR_REAL,001,19,
images/fcloud65-35_D1.5_2.tif,1.5,1,,,,,0,38,38,58,,,,,,,,,,,,,,,,,,,3,space,3.55412225006,3,2.716,,,,,,,,,,,,,,,,,,2019_Feb_10_1730,60.0743321386684,Cloud_Experiment_FR_REAL,001,19,
images/fcloud80-20_D1.1_2.tif,1.1,2,,,,,0,39,39,82,,,,,,,,,,,,,,,,,,,1,space,4.81900047755,4,2.532,,,,,,,,,,,,,,,,,,2019_Feb_10_1730,60.0743321386684,Cloud_Experiment_FR_REAL,001,19,
images/fcloud_D1_1.tif,1.0,0,,,,,0,40,40,6,,,,,,,,,,,,,,,,,,,1,space,6.66117465147,3,1.037,,,,,,,,,,,,,,,,,,2019_Feb_10_1730,60.0743321386684,Cloud_Experiment_FR_REAL,001,19,
images/fcloud_D1.5_1.tif,1.5,0,,,,,0,41,41,21,,,,,,,,,,,,,,,,,,,1,space,8.15381772257,3,5.298,,,,,,,,,,,,,,,,,,2019_Feb_10_1730,60.0743321386684,Cloud_Experiment_FR_REAL,001,19,
images/fcloud65-35_D1.1_2.tif,1.1,1,,,,,0,42,42,46,,,,,,,,,,,,,,,,,,,1,space,6.46858982299,3,1.485,,,,,,,,,,,,,,,,,,2019_Feb_10_1730,60.0743321386684,Cloud_Experiment_FR_REAL,001,19,
images/fcloud_D1.6_2.tif,1.6,0,,,,,0,43,43,25,,,,,,,,,,,,,,,,,,,1,space,4.58568278875,2,2.034,,,,,,,,,,,,,,,,,,2019_Feb_10_1730,60.0743321386684,Cloud_Experiment_FR_REAL,001,19,
images/fcloud_D1.5_2.tif,1.5,0,,,,,0,44,44,22,,,,,,,,,,,,,,,,,,,3,space,4.59504428343,2,2.684,,,,,,,,,,,,,,,,,,2019_Feb_10_1730,60.0743321386684,Cloud_Experiment_FR_REAL,001,19,
images/fcloud_D0.9_2.tif,0.9,0,,,,,0,45,45,4,,,,,,,,,,,,,,,,,,,1,space,1.74253087805,4,1.619,,,,,,,,,,,,,,,,,,2019_Feb_10_1730,60.0743321386684,Cloud_Experiment_FR_REAL,001,19,
images/fcloud65-35_D1.4_2.tif,1.4,1,,,,,0,46,46,55,,,,,,,,,,,,,,,,,,,2,space,4.72589753091,2,2.683,,,,,,,,,,,,,,,,,,2019_Feb_10_1730,60.0743321386684,Cloud_Experiment_FR_REAL,001,19,
images/fcloud80-20_D1_2.tif,1.0,2,,,,,0,47,47,79,,,,,,,,,,,,,,,,,,,2,space,5.36695815425,2,4.251,,,,,,,,,,,,,,,,,,2019_Feb_10_1730,60.0743321386684,Cloud_Experiment_FR_REAL,001,19,
images/fcloud65-35_D1.6_2.tif,1.6,1,,,,,0,48,48,61,,,,,,,,,,,,,,,,,,,1,space,5.84136350569,3,1.555,,,,,,,,,,,,,,,,,,2019_Feb_10_1730,60.0743321386684,Cloud_Experiment_FR_REAL,001,19,
images/fcloud_D1.8_1.tif,1.8,0,,,,,0,49,49,30,,,,,,,,,,,,,,,,,,,2,space,2.2461028042,3,1.967,,,,,,,,,,,,,,,,,,2019_Feb_10_1730,60.0743321386684,Cloud_Experiment_FR_REAL,001,19,
images/fcloud65-35_D1.8_1.tif,1.8,1,,,,,0,50,50,66,,,,,,,,,,,,,,,,,,,1,space,7.0569888897,1,0.935,,,,,,,,,,,,,,,,,,2019_Feb_10_1730,60.0743321386684,Cloud_Experiment_FR_REAL,001,19,
images/fcloud65-35_D1.2_2.tif,1.2,1,,,,,0,51,51,49,,,,,,,,,,,,,,,,,,,1,space,2.97217974113,3,1.402,,,,,,,,,,,,,,,,,,2019_Feb_10_1730,60.0743321386684,Cloud_Experiment_FR_REAL,001,19,
images/fcloud65-35_D0.9_2.tif,0.9,1,,,,,0,52,52,40,,,,,,,,,,,,,,,,,,,None,None,,None,10.664,,,,,,,,,,,,,,,,,,2019_Feb_10_1730,60.0743321386684,Cloud_Experiment_FR_REAL,001,19,
images/fcloud65-35_D0.8_2.tif,0.8,1,,,,,0,53,53,37,,,,,,,,,,,,,,,,,,,1,space,5.72981773084,2,2.201,,,,,,,,,,,,,,,,,,2019_Feb_10_1730,60.0743321386684,Cloud_Experiment_FR_REAL,001,19,
images/fcloud65-35_D1.5_3.tif,1.5,1,,,,,0,54,54,59,,,,,,,,,,,,,,,,,,,2,space,6.28253146412,2,1.335,,,,,,,,,,,,,,,,,,2019_Feb_10_1730,60.0743321386684,Cloud_Experiment_FR_REAL,001,19,
images/fcloud_D1.2_1.tif,1.2,0,,,,,0,55,55,12,,,,,,,,,,,,,,,,,,,2,space,3.85704224883,3,1.487,,,,,,,,,,,,,,,,,,2019_Feb_10_1730,60.0743321386684,Cloud_Experiment_FR_REAL,001,19,
images/fcloud65-35_D1.1_1.tif,1.1,1,,,,,0,56,56,45,,,,,,,,,,,,,,,,,,,None,None,,None,12.257,,,,,,,,,,,,,,,,,,2019_Feb_10_1730,60.0743321386684,Cloud_Experiment_FR_REAL,001,19,
images/fcloud80-20_D1.9_1.tif,1.9,2,,,,,0,57,57,105,,,,,,,,,,,,,,,,,,,1,space,5.71063363203,1,1.153,,,,,,,,,,,,,,,,,,2019_Feb_10_1730,60.0743321386684,Cloud_Experiment_FR_REAL,001,19,
images/fcloud_D0.8_2.tif,0.8,0,,,,,0,58,58,1,,,,,,,,,,,,,,,,,,,2,space,3.95254995476,2,1.37,,,,,,,,,,,,,,,,,,2019_Feb_10_1730,60.0743321386684,Cloud_Experiment_FR_REAL,001,19,
images/fcloud65-35_D0.8_3.tif,0.8,1,,,,,0,59,59,38,,,,,,,,,,,,,,,,,,,1,space,3.11024829478,1,1.636,,,,,,,,,,,,,,,,,,2019_Feb_10_1730,60.0743321386684,Cloud_Experiment_FR_REAL,001,19,
images/fcloud65-35_D1.8_3.tif,1.8,1,,,,,0,60,60,68,,,,,,,,,,,,,,,,,,,2,space,1.69552857673,1,0.922,,,,,,,,,,,,,,,,,,2019_Feb_10_1730,60.0743321386684,Cloud_Experiment_FR_REAL,001,19,
images/fcloud65-35_D1.7_1.tif,1.7,1,,,,,0,61,61,63,,,,,,,,,,,,,,,,,,,2,space,1.8735368005,3,2.987,,,,,,,,,,,,,,,,,,2019_Feb_10_1730,60.0743321386684,Cloud_Experiment_FR_REAL,001,19,
images/fcloud_D1.1_3.tif,1.1,0,,,,,0,62,62,11,,,,,,,,,,,,,,,,,,,1,space,6.5054883312,2,0.986,,,,,,,,,,,,,,,,,,2019_Feb_10_1730,60.0743321386684,Cloud_Experiment_FR_REAL,001,19,
images/fcloud80-20_D0.9_2.tif,0.9,2,,,,,0,63,63,76,,,,,,,,,,,,,,,,,,,None,None,,None,10.243,,,,,,,,,,,,,,,,,,2019_Feb_10_1730,60.0743321386684,Cloud_Experiment_FR_REAL,001,19,
images/fcloud_D1.7_2.tif,1.7,0,,,,,0,64,64,28,,,,,,,,,,,,,,,,,,,1,space,6.05971030821,2,2.524,,,,,,,,,,,,,,,,,,2019_Feb_10_1730,60.0743321386684,Cloud_Experiment_FR_REAL,001,19,
images/fcloud_D1.3_3.tif,1.3,0,,,,,0,65,65,17,,,,,,,,,,,,,,,,,,,1,None,,1,1.566,,,,,,,,,,,,,,,,,,2019_Feb_10_1730,60.0743321386684,Cloud_Experiment_FR_REAL,001,19,
images/fcloud80-20_D1.6_2.tif,1.6,2,,,,,0,66,66,97,,,,,,,,,,,,,,,,,,,None,None,,None,11.324,,,,,,,,,,,,,,,,,,2019_Feb_10_1730,60.0743321386684,Cloud_Experiment_FR_REAL,001,19,
images/fcloud65-35_D1.6_3.tif,1.6,1,,,,,0,67,67,62,,,,,,,,,,,,,,,,,,,None,None,,None,44.296,,,,,,,,,,,,,,,,,,2019_Feb_10_1730,60.0743321386684,Cloud_Experiment_FR_REAL,001,19,
images/fcloud65-35_D0.8_1.tif,0.8,1,,,,,0,68,68,36,,,,,,,,,,,,,,,,,,,1,space,5.82953453658,1,0.702,,,,,,,,,,,,,,,,,,2019_Feb_10_1730,60.0743321386684,Cloud_Experiment_FR_REAL,001,19,
images/fcloud80-20_D1.4_3.tif,1.4,2,,,,,0,69,69,92,,,,,,,,,,,,,,,,,,,None,None,,None,10.841,,,,,,,,,,,,,,,,,,2019_Feb_10_1730,60.0743321386684,Cloud_Experiment_FR_REAL,001,19,
images/fcloud_D1.4_2.tif,1.4,0,,,,,0,70,70,19,,,,,,,,,,,,,,,,,,,1,None,,3,1.701,,,,,,,,,,,,,,,,,,2019_Feb_10_1730,60.0743321386684,Cloud_Experiment_FR_REAL,001,19,
images/fcloud80-20_D1.2_3.tif,1.2,2,,,,,0,71,71,86,,,,,,,,,,,,,,,,,,,None,None,,None,12.276,,,,,,,,,,,,,,,,,,2019_Feb_10_1730,60.0743321386684,Cloud_Experiment_FR_REAL,001,19,
images/fcloud65-35_D1.7_2.tif,1.7,1,,,,,0,72,72,64,,,,,,,,,,,,,,,,,,,2,None,,2,1.754,,,,,,,,,,,,,,,,,,2019_Feb_10_1730,60.0743321386684,Cloud_Experiment_FR_REAL,001,19,
images/fcloud80-20_D1.1_1.tif,1.1,2,,,,,0,73,73,81,,,,,,,,,,,,,,,,,,,1,space,4.15598498739,3,1.604,,,,,,,,,,,,,,,,,,2019_Feb_10_1730,60.0743321386684,Cloud_Experiment_FR_REAL,001,19,
images/fcloud65-35_D1.2_3.tif,1.2,1,,,,,0,74,74,50,,,,,,,,,,,,,,,,,,,1,None,,1,1.002,,,,,,,,,,,,,,,,,,2019_Feb_10_1730,60.0743321386684,Cloud_Experiment_FR_REAL,001,19,
images/fcloud80-20_D1.6_1.tif,1.6,2,,,,,0,75,75,96,,,,,,,,,,,,,,,,,,,1,space,6.20702880621,3,1.319,,,,,,,,,,,,,,,,,,2019_Feb_10_1730,60.0743321386684,Cloud_Experiment_FR_REAL,001,19,
images/fcloud_D0.9_3.tif,0.9,0,,,,,0,76,76,5,,,,,,,,,,,,,,,,,,,1,space,7.25099457207,3,1.183,,,,,,,,,,,,,,,,,,2019_Feb_10_1730,60.0743321386684,Cloud_Experiment_FR_REAL,001,19,
images/fcloud65-35_D1.2_1.tif,1.2,1,,,,,0,77,77,48,,,,,,,,,,,,,,,,,,,1,space,6.26229766069,4,2.32,,,,,,,,,,,,,,,,,,2019_Feb_10_1730,60.0743321386684,Cloud_Experiment_FR_REAL,001,19,
images/fcloud65-35_D1.4_1.tif,1.4,1,,,,,0,78,78,54,,,,,,,,,,,,,,,,,,,2,space,3.39588209381,3,4.583,,,,,,,,,,,,,,,,,,2019_Feb_10_1730,60.0743321386684,Cloud_Experiment_FR_REAL,001,19,
images/fcloud65-35_D1.4_3.tif,1.4,1,,,,,0,79,79,56,,,,,,,,,,,,,,,,,,,2,space,4.50613758538,2,3.584,,,,,,,,,,,,,,,,,,2019_Feb_10_1730,60.0743321386684,Cloud_Experiment_FR_REAL,001,19,
images/fcloud80-20_D1.8_2.tif,1.8,2,,,,,0,80,80,103,,,,,,,,,,,,,,,,,,,None,None,,None,14.173,,,,,,,,,,,,,,,,,,2019_Feb_10_1730,60.0743321386684,Cloud_Experiment_FR_REAL,001,19,
images/fcloud65-35_D1.3_1.tif,1.3,1,,,,,0,81,81,51,,,,,,,,,,,,,,,,,,,1,None,,2,1.318,,,,,,,,,,,,,,,,,,2019_Feb_10_1730,60.0743321386684,Cloud_Experiment_FR_REAL,001,19,
images/fcloud_D1.8_3.tif,1.8,0,,,,,0,82,82,32,,,,,,,,,,,,,,,,,,,None,None,,None,11.677,,,,,,,,,,,,,,,,,,2019_Feb_10_1730,60.0743321386684,Cloud_Experiment_FR_REAL,001,19,
images/fcloud65-35_D1.9_2.tif,1.9,1,,,,,0,83,83,70,,,,,,,,,,,,,,,,,,,1,space,4.43710228044,3,2.682,,,,,,,,,,,,,,,,,,2019_Feb_10_1730,60.0743321386684,Cloud_Experiment_FR_REAL,001,19,
images/fcloud65-35_D1.6_1.tif,1.6,1,,,,,0,84,84,60,,,,,,,,,,,,,,,,,,,1,space,2.93547400436,2,1.485,,,,,,,,,,,,,,,,,,2019_Feb_10_1730,60.0743321386684,Cloud_Experiment_FR_REAL,001,19,
images/fcloud80-20_D1.7_3.tif,1.7,2,,,,,0,85,85,101,,,,,,,,,,,,,,,,,,,3,space,4.50030200847,2,2.168,,,,,,,,,,,,,,,,,,2019_Feb_10_1730,60.0743321386684,Cloud_Experiment_FR_REAL,001,19,
images/fcloud80-20_D1.4_1.tif,1.4,2,,,,,0,86,86,90,,,,,,,,,,,,,,,,,,,3,space,5.54355786147,2,2.352,,,,,,,,,,,,,,,,,,2019_Feb_10_1730,60.0743321386684,Cloud_Experiment_FR_REAL,001,19,
images/fcloud_D1.7_1.tif,1.7,0,,,,,0,87,87,27,,,,,,,,,,,,,,,,,,,2,space,3.27042130579,2,1.567,,,,,,,,,,,,,,,,,,2019_Feb_10_1730,60.0743321386684,Cloud_Experiment_FR_REAL,001,19,
images/fcloud80-20_D1.7_1.tif,1.7,2,,,,,0,88,88,99,,,,,,,,,,,,,,,,,,,2,space,2.37217737641,3,2.569,,,,,,,,,,,,,,,,,,2019_Feb_10_1730,60.0743321386684,Cloud_Experiment_FR_REAL,001,19,
images/fcloud65-35_D1_3.tif,1.0,1,,,,,0,89,89,44,,,,,,,,,,,,,,,,,,,1,space,5.97844815406,1,3.199,,,,,,,,,,,,,,,,,,2019_Feb_10_1730,60.0743321386684,Cloud_Experiment_FR_REAL,001,19,
images/fcloud65-35_D1.8_2.tif,1.8,1,,,,,0,90,90,67,,,,,,,,,,,,,,,,,,,None,None,,None,12.857,,,,,,,,,,,,,,,,,,2019_Feb_10_1730,60.0743321386684,Cloud_Experiment_FR_REAL,001,19,
images/fcloud80-20_D1.6_3.tif,1.6,2,,,,,0,91,91,98,,,,,,,,,,,,,,,,,,,1,None,,1,1.489,,,,,,,,,,,,,,,,,,2019_Feb_10_1730,60.0743321386684,Cloud_Experiment_FR_REAL,001,19,
images/fcloud80-20_D1.5_1.tif,1.5,2,,,,,0,92,92,93,,,,,,,,,,,,,,,,,,,None,None,,None,10.943,,,,,,,,,,,,,,,,,,2019_Feb_10_1730,60.0743321386684,Cloud_Experiment_FR_REAL,001,19,
images/fcloud_D1.2_3.tif,1.2,0,,,,,0,93,93,14,,,,,,,,,,,,,,,,,,,2,space,6.70107885171,2,1.066,,,,,,,,,,,,,,,,,,2019_Feb_10_1730,60.0743321386684,Cloud_Experiment_FR_REAL,001,19,
images/fcloud80-20_D0.9_3.tif,0.9,2,,,,,0,94,94,77,,,,,,,,,,,,,,,,,,,2,space,2.82240096561,2,1.136,,,,,,,,,,,,,,,,,,2019_Feb_10_1730,60.0743321386684,Cloud_Experiment_FR_REAL,001,19,
images/fcloud80-20_D1.5_3.tif,1.5,2,,,,,0,95,95,95,,,,,,,,,,,,,,,,,,,2,space,3.42889690015,2,2.184,,,,,,,,,,,,,,,,,,2019_Feb_10_1730,60.0743321386684,Cloud_Experiment_FR_REAL,001,19,
images/fcloud80-20_D1_1.tif,1.0,2,,,,,0,96,96,78,,,,,,,,,,,,,,,,,,,None,None,,None,11.458,,,,,,,,,,,,,,,,,,2019_Feb_10_1730,60.0743321386684,Cloud_Experiment_FR_REAL,001,19,
images/fcloud80-20_D1.5_2.tif,1.5,2,,,,,0,97,97,94,,,,,,,,,,,,,,,,,,,1,space,6.6149136204,2,3.3,,,,,,,,,,,,,,,,,,2019_Feb_10_1730,60.0743321386684,Cloud_Experiment_FR_REAL,001,19,
images/fcloud65-35_D1_1.tif,1.0,1,,,,,0,98,98,42,,,,,,,,,,,,,,,,,,,1,None,,2,0.918,,,,,,,,,,,,,,,,,,2019_Feb_10_1730,60.0743321386684,Cloud_Experiment_FR_REAL,001,19,
images/fcloud_D1.4_3.tif,1.4,0,,,,,0,99,99,20,,,,,,,,,,,,,,,,,,,2,space,3.58007391111,3,1.251,,,,,,,,,,,,,,,,,,2019_Feb_10_1730,60.0743321386684,Cloud_Experiment_FR_REAL,001,19,
images/fcloud_D1.6_1.tif,1.6,0,,,,,0,100,100,24,,,,,,,,,,,,,,,,,,,None,None,,None,10.528,,,,,,,,,,,,,,,,,,2019_Feb_10_1730,60.0743321386684,Cloud_Experiment_FR_REAL,001,19,
images/fcloud_D1.8_2.tif,1.8,0,,,,,0,101,101,31,,,,,,,,,,,,,,,,,,,2,space,6.24795957864,2,1.837,,,,,,,,,,,,,,,,,,2019_Feb_10_1730,60.0743321386684,Cloud_Experiment_FR_REAL,001,19,
images/fcloud_D1.4_1.tif,1.4,0,,,,,0,102,102,18,,,,,,,,,,,,,,,,,,,2,space,5.43930552935,2,1.652,,,,,,,,,,,,,,,,,,2019_Feb_10_1730,60.0743321386684,Cloud_Experiment_FR_REAL,001,19,
images/fcloud_D1.6_3.tif,1.6,0,,,,,0,103,103,26,,,,,,,,,,,,,,,,,,,3,space,3.16235826805,2,2.186,,,,,,,,,,,,,,,,,,2019_Feb_10_1730,60.0743321386684,Cloud_Experiment_FR_REAL,001,19,
images/fcloud_D1.1_1.tif,1.1,0,,,,,0,104,104,9,,,,,,,,,,,,,,,,,,,1,space,6.68554969924,3,1.668,,,,,,,,,,,,,,,,,,2019_Feb_10_1730,60.0743321386684,Cloud_Experiment_FR_REAL,001,19,
images/fcloud_D1.3_2.tif,1.3,0,,,,,0,105,105,16,,,,,,,,,,,,,,,,,,,2,space,1.4286059438,3,1.368,,,,,,,,,,,,,,,,,,2019_Feb_10_1730,60.0743321386684,Cloud_Experiment_FR_REAL,001,19,
images/fcloud80-20_D0.9_1.tif,0.9,2,,,,,0,106,106,75,,,,,,,,,,,,,,,,,,,1,space,1.60499848612,2,1.302,,,,,,,,,,,,,,,,,,2019_Feb_10_1730,60.0743321386684,Cloud_Experiment_FR_REAL,001,19,
images/fcloud_D0.8_1.tif,0.8,0,,,,,0,107,107,0,,,,,,,,,,,,,,,,,,,2,space,1.3726009595,3,2.383,,,,,,,,,,,,,,,,,,2019_Feb_10_1730,60.0743321386684,Cloud_Experiment_FR_REAL,001,19,
,,,,,,,,,,,,,,,,,,,,,,,,,,,,,,,,,,,,,,,,,,,,,,space,3.01931158488,,,,2019_Feb_10_1730,60.0743321386684,Cloud_Experiment_FR_REAL,001,19,
,,,,,,,,,,,,,,,,,,,,,,,,,5,19.274,,,,,,,,,,,,,,,,,,,,,,,,,2019_Feb_10_1730,60.0743321386684,Cloud_Experiment_FR_REAL,001,19,
,,,,,,,,,,,,,,,,,,,,,,,,,,,,,,,,,,6,,,,,,,,,,,,,,,,,2019_Feb_10_1730,60.0743321386684,Cloud_Experiment_FR_REAL,001,19,
,,,,,,,,,,,,,,,,,,,,,,,,,,,,,,,,,,,5,,,,,,,,,,,,,,,,2019_Feb_10_1730,60.0743321386684,Cloud_Experiment_FR_REAL,001,19,
,,,,,,,,,,,,,,,,,,,,,,,,,,,,,,,,,,,,5,,,,,,,,,,,,,,,2019_Feb_10_1730,60.0743321386684,Cloud_Experiment_FR_REAL,001,19,
,,,,,,,,,,,,,,,,,,,,,,,,,,,,,,,,,,,,,3,,,,,,,,,,,,,,2019_Feb_10_1730,60.0743321386684,Cloud_Experiment_FR_REAL,001,19,
,,,,,,,,,,,,,,,,,,,,,,,,,,,,,,,,,,,,,,4,,,,,,,,,,,,,2019_Feb_10_1730,60.0743321386684,Cloud_Experiment_FR_REAL,001,19,
,,,,,,,,,,,,,,,,,,,,,,,,,,,,,,,,,,,,,,,5,,,,,,,,,,,,2019_Feb_10_1730,60.0743321386684,Cloud_Experiment_FR_REAL,001,19,
,,,,,,,,,,,,,,,,,,,,,,,,,,,,,,,,,,,,,,,,5,,,,,,,,,,,2019_Feb_10_1730,60.0743321386684,Cloud_Experiment_FR_REAL,001,19,
,,,,,,,,,,,,,,,,,,,,,,,,,,,,,,,,,,,,,,,,,6,,,,,,,,,,2019_Feb_10_1730,60.0743321386684,Cloud_Experiment_FR_REAL,001,19,
,,,,,,,,,,,,,,,,,,,,,,,,,,,,,,,,,,,,,,,,,,4,,,,,,,,,2019_Feb_10_1730,60.0743321386684,Cloud_Experiment_FR_REAL,001,19,
,,,,,,,,,,,,,,,,,,,,,,,,,,,,,,,,,,,,,,,,,,,6,,,,,,,,2019_Feb_10_1730,60.0743321386684,Cloud_Experiment_FR_REAL,001,19,
,,,,,,,,,,,,,,,,,,,,,,,,,,,,,,,,,,,,,,,,,,,,,,,,space,907.364078406,,2019_Feb_10_1730,60.0743321386684,Cloud_Experiment_FR_REAL,001,19,
images/fcloud65-35_D1.7_4.tif,1.7,1,,,,,,,,,0,0,0,63,,,,,,,,,,,,,,,None,None,,None,998.133,,,,,,,,,,,,,,,,,,2019_Feb_10_1730,60.0743321386684,Cloud_Experiment_FR_REAL,001,19,
images/fcloud65-35_D1.2_6.tif,1.2,1,,,,,,,,,0,1,1,50,,,,,,,,,,,,,,,2,space,4.93284768646,2,1.584,,,,,,,,,,,,,,,,,,2019_Feb_10_1730,60.0743321386684,Cloud_Experiment_FR_REAL,001,19,
images/fcloud80-20_D1.7_4.tif,1.7,2,,,,,,,,,0,2,2,99,,,,,,,,,,,,,,,1,None,,1,0.95,,,,,,,,,,,,,,,,,,2019_Feb_10_1730,60.0743321386684,Cloud_Experiment_FR_REAL,001,19,
images/fcloud_D1.9_6.tif,1.9,0,,,,,,,,,0,3,3,35,,,,,,,,,,,,,,,2,space,4.83015089121,3,0.89,,,,,,,,,,,,,,,,,,2019_Feb_10_1730,60.0743321386684,Cloud_Experiment_FR_REAL,001,19,
images/fcloud65-35_D1.6_6.tif,1.6,1,,,,,,,,,0,4,4,62,,,,,,,,,,,,,,,1,space,3.41410644795,3,0.886,,,,,,,,,,,,,,,,,,2019_Feb_10_1730,60.0743321386684,Cloud_Experiment_FR_REAL,001,19,
images/fcloud_D0.9_6.tif,0.9,0,,,,,,,,,0,5,5,5,,,,,,,,,,,,,,,1,None,,1,1.018,,,,,,,,,,,,,,,,,,2019_Feb_10_1730,60.0743321386684,Cloud_Experiment_FR_REAL,001,19,
images/fcloud65-35_D0.9_5.tif,0.9,1,,,,,,,,,0,6,6,40,,,,,,,,,,,,,,,1,None,,1,0.752,,,,,,,,,,,,,,,,,,2019_Feb_10_1730,60.0743321386684,Cloud_Experiment_FR_REAL,001,19,
images/fcloud_D1.5_6.tif,1.5,0,,,,,,,,,0,7,7,23,,,,,,,,,,,,,,,2,space,4.98823734431,2,1.27,,,,,,,,,,,,,,,,,,2019_Feb_10_1730,60.0743321386684,Cloud_Experiment_FR_REAL,001,19,
images/fcloud65-35_D1.8_5.tif,1.8,1,,,,,,,,,0,8,8,67,,,,,,,,,,,,,,,2,space,3.42929118196,2,1.0,,,,,,,,,,,,,,,,,,2019_Feb_10_1730,60.0743321386684,Cloud_Experiment_FR_REAL,001,19,
images/fcloud65-35_D1.4_4.tif,1.4,1,,,,,,,,,0,9,9,54,,,,,,,,,,,,,,,2,space,1.92951608205,3,1.797,,,,,,,,,,,,,,,,,,2019_Feb_10_1730,60.0743321386684,Cloud_Experiment_FR_REAL,001,19,
images/fcloud65-35_D1.9_4.tif,1.9,1,,,,,,,,,0,10,10,69,,,,,,,,,,,,,,,1,None,,1,1.285,,,,,,,,,,,,,,,,,,2019_Feb_10_1730,60.0743321386684,Cloud_Experiment_FR_REAL,001,19,
images/fcloud80-20_D0.8_5.tif,0.8,2,,,,,,,,,0,11,11,73,,,,,,,,,,,,,,,None,None,,None,10.427,,,,,,,,,,,,,,,,,,2019_Feb_10_1730,60.0743321386684,Cloud_Experiment_FR_REAL,001,19,
images/fcloud_D1.6_4.tif,1.6,0,,,,,,,,,0,12,12,24,,,,,,,,,,,,,,,2,space,2.28764222038,3,1.202,,,,,,,,,,,,,,,,,,2019_Feb_10_1730,60.0743321386684,Cloud_Experiment_FR_REAL,001,19,
images/fcloud80-20_D1_4.tif,1.0,2,,,,,,,,,0,13,13,78,,,,,,,,,,,,,,,1,space,6.09065243613,2,1.534,,,,,,,,,,,,,,,,,,2019_Feb_10_1730,60.0743321386684,Cloud_Experiment_FR_REAL,001,19,
images/fcloud80-20_D1.7_6.tif,1.7,2,,,,,,,,,0,14,14,101,,,,,,,,,,,,,,,None,None,,None,11.31,,,,,,,,,,,,,,,,,,2019_Feb_10_1730,60.0743321386684,Cloud_Experiment_FR_REAL,001,19,
images/fcloud65-35_D1.8_6.tif,1.8,1,,,,,,,,,0,15,15,68,,,,,,,,,,,,,,,None,None,,None,20.866,,,,,,,,,,,,,,,,,,2019_Feb_10_1730,60.0743321386684,Cloud_Experiment_FR_REAL,001,19,
images/fcloud_D0.9_5.tif,0.9,0,,,,,,,,,0,16,16,4,,,,,,,,,,,,,,,1,space,2.09789241711,2,2.251,,,,,,,,,,,,,,,,,,2019_Feb_10_1730,60.0743321386684,Cloud_Experiment_FR_REAL,001,19,
images/fcloud_D1.3_6.tif,1.3,0,,,,,,,,,0,17,17,17,,,,,,,,,,,,,,,None,None,,None,11.542,,,,,,,,,,,,,,,,,,2019_Feb_10_1730,60.0743321386684,Cloud_Experiment_FR_REAL,001,19,
images/fcloud80-20_D1.6_5.tif,1.6,2,,,,,,,,,0,18,18,97,,,,,,,,,,,,,,,2,None,,1,0.901,,,,,,,,,,,,,,,,,,2019_Feb_10_1730,60.0743321386684,Cloud_Experiment_FR_REAL,001,19,
images/fcloud65-35_D1.9_5.tif,1.9,1,,,,,,,,,0,19,19,70,,,,,,,,,,,,,,,1,space,4.35676183063,1,1.869,,,,,,,,,,,,,,,,,,2019_Feb_10_1730,60.0743321386684,Cloud_Experiment_FR_REAL,001,19,
images/fcloud80-20_D1.9_5.tif,1.9,2,,,,,,,,,0,20,20,106,,,,,,,,,,,,,,,2,space,2.99801676755,2,2.136,,,,,,,,,,,,,,,,,,2019_Feb_10_1730,60.0743321386684,Cloud_Experiment_FR_REAL,001,19,
images/fcloud65-35_D1_4.tif,1.0,1,,,,,,,,,0,21,21,42,,,,,,,,,,,,,,,None,None,,None,11.89,,,,,,,,,,,,,,,,,,2019_Feb_10_1730,60.0743321386684,Cloud_Experiment_FR_REAL,001,19,
images/fcloud80-20_D1.1_4.tif,1.1,2,,,,,,,,,0,22,22,81,,,,,,,,,,,,,,,1,None,,1,0.62,,,,,,,,,,,,,,,,,,2019_Feb_10_1730,60.0743321386684,Cloud_Experiment_FR_REAL,001,19,
images/fcloud80-20_D1.1_6.tif,1.1,2,,,,,,,,,0,23,23,83,,,,,,,,,,,,,,,2,space,3.73262808111,3,4.848,,,,,,,,,,,,,,,,,,2019_Feb_10_1730,60.0743321386684,Cloud_Experiment_FR_REAL,001,19,
images/fcloud80-20_D1.4_6.tif,1.4,2,,,,,,,,,0,24,24,92,,,,,,,,,,,,,,,2,space,3.79414735653,1,3.301,,,,,,,,,,,,,,,,,,2019_Feb_10_1730,60.0743321386684,Cloud_Experiment_FR_REAL,001,19,
images/fcloud80-20_D1.6_6.tif,1.6,2,,,,,,,,,0,25,25,98,,,,,,,,,,,,,,,1,space,6.98942841473,2,1.07,,,,,,,,,,,,,,,,,,2019_Feb_10_1730,60.0743321386684,Cloud_Experiment_FR_REAL,001,19,
images/fcloud65-35_D1.7_6.tif,1.7,1,,,,,,,,,0,26,26,65,,,,,,,,,,,,,,,1,space,6.35035205213,3,1.452,,,,,,,,,,,,,,,,,,2019_Feb_10_1730,60.0743321386684,Cloud_Experiment_FR_REAL,001,19,
images/fcloud80-20_D1.9_4.tif,1.9,2,,,,,,,,,0,27,27,105,,,,,,,,,,,,,,,2,space,2.76402720599,2,1.001,,,,,,,,,,,,,,,,,,2019_Feb_10_1730,60.0743321386684,Cloud_Experiment_FR_REAL,001,19,
images/fcloud_D1.1_5.tif,1.1,0,,,,,,,,,0,28,28,10,,,,,,,,,,,,,,,2,space,2.30617963523,3,1.355,,,,,,,,,,,,,,,,,,2019_Feb_10_1730,60.0743321386684,Cloud_Experiment_FR_REAL,001,19,
images/fcloud80-20_D1.8_5.tif,1.8,2,,,,,,,,,0,29,29,103,,,,,,,,,,,,,,,2,None,,1,1.185,,,,,,,,,,,,,,,,,,2019_Feb_10_1730,60.0743321386684,Cloud_Experiment_FR_REAL,001,19,
images/fcloud_D1.4_5.tif,1.4,0,,,,,,,,,0,30,30,19,,,,,,,,,,,,,,,2,space,3.48351650045,2,8.514,,,,,,,,,,,,,,,,,,2019_Feb_10_1730,60.0743321386684,Cloud_Experiment_FR_REAL,001,19,
images/fcloud_D1.7_4.tif,1.7,0,,,,,,,,,0,31,31,27,,,,,,,,,,,,,,,2,space,6.12669555319,2,1.787,,,,,,,,,,,,,,,,,,2019_Feb_10_1730,60.0743321386684,Cloud_Experiment_FR_REAL,001,19,
images/fcloud65-35_D1_6.tif,1.0,1,,,,,,,,,0,32,32,44,,,,,,,,,,,,,,,1,space,4.82305741659,1,1.853,,,,,,,,,,,,,,,,,,2019_Feb_10_1730,60.0743321386684,Cloud_Experiment_FR_REAL,001,19,
images/fcloud80-20_D1.7_5.tif,1.7,2,,,,,,,,,0,33,33,100,,,,,,,,,,,,,,,2,space,2.00091245142,2,1.272,,,,,,,,,,,,,,,,,,2019_Feb_10_1730,60.0743321386684,Cloud_Experiment_FR_REAL,001,19,
images/fcloud_D1.1_4.tif,1.1,0,,,,,,,,,0,34,34,9,,,,,,,,,,,,,,,1,None,,1,2.568,,,,,,,,,,,,,,,,,,2019_Feb_10_1730,60.0743321386684,Cloud_Experiment_FR_REAL,001,19,
images/fcloud65-35_D1.7_5.tif,1.7,1,,,,,,,,,0,35,35,64,,,,,,,,,,,,,,,3,space,6.22425074887,2,0.784,,,,,,,,,,,,,,,,,,2019_Feb_10_1730,60.0743321386684,Cloud_Experiment_FR_REAL,001,19,
images/fcloud_D1.4_6.tif,1.4,0,,,,,,,,,0,36,36,20,,,,,,,,,,,,,,,1,None,,3,1.051,,,,,,,,,,,,,,,,,,2019_Feb_10_1730,60.0743321386684,Cloud_Experiment_FR_REAL,001,19,
images/fcloud80-20_D1.2_6.tif,1.2,2,,,,,,,,,0,37,37,86,,,,,,,,,,,,,,,1,space,6.34093709534,2,0.867,,,,,,,,,,,,,,,,,,2019_Feb_10_1730,60.0743321386684,Cloud_Experiment_FR_REAL,001,19,
images/fcloud_D1.2_5.tif,1.2,0,,,,,,,,,0,38,38,13,,,,,,,,,,,,,,,2,None,,3,1.251,,,,,,,,,,,,,,,,,,2019_Feb_10_1730,60.0743321386684,Cloud_Experiment_FR_REAL,001,19,
images/fcloud_D1_6.tif,1.0,0,,,,,,,,,0,39,39,8,,,,,,,,,,,,,,,2,space,3.12821304996,2,1.986,,,,,,,,,,,,,,,,,,2019_Feb_10_1730,60.0743321386684,Cloud_Experiment_FR_REAL,001,19,
images/fcloud80-20_D0.8_4.tif,0.8,2,,,,,,,,,0,40,40,72,,,,,,,,,,,,,,,None,None,,None,11.508,,,,,,,,,,,,,,,,,,2019_Feb_10_1730,60.0743321386684,Cloud_Experiment_FR_REAL,001,19,
images/fcloud80-20_D1.2_5.tif,1.2,2,,,,,,,,,0,41,41,85,,,,,,,,,,,,,,,None,None,,None,21.019,,,,,,,,,,,,,,,,,,2019_Feb_10_1730,60.0743321386684,Cloud_Experiment_FR_REAL,001,19,
images/fcloud65-35_D1.5_5.tif,1.5,1,,,,,,,,,0,42,42,58,,,,,,,,,,,,,,,1,space,3.98516945133,3,1.218,,,,,,,,,,,,,,,,,,2019_Feb_10_1730,60.0743321386684,Cloud_Experiment_FR_REAL,001,19,
images/fcloud65-35_D1.4_5.tif,1.4,1,,,,,,,,,0,43,43,55,,,,,,,,,,,,,,,1,space,5.14703936502,2,0.785,,,,,,,,,,,,,,,,,,2019_Feb_10_1730,60.0743321386684,Cloud_Experiment_FR_REAL,001,19,
images/fcloud_D0.8_4.tif,0.8,0,,,,,,,,,0,44,44,0,,,,,,,,,,,,,,,2,None,,3,0.956,,,,,,,,,,,,,,,,,,2019_Feb_10_1730,60.0743321386684,Cloud_Experiment_FR_REAL,001,19,
images/fcloud65-35_D1.9_6.tif,1.9,1,,,,,,,,,0,45,45,71,,,,,,,,,,,,,,,1,None,,1,0.6,,,,,,,,,,,,,,,,,,2019_Feb_10_1730,60.0743321386684,Cloud_Experiment_FR_REAL,001,19,
images/fcloud_D1_5.tif,1.0,0,,,,,,,,,0,46,46,7,,,,,,,,,,,,,,,2,space,5.49225958448,3,1.017,,,,,,,,,,,,,,,,,,2019_Feb_10_1730,60.0743321386684,Cloud_Experiment_FR_REAL,001,19,
images/fcloud80-20_D0.9_4.tif,0.9,2,,,,,,,,,0,47,47,75,,,,,,,,,,,,,,,None,None,,None,9.792,,,,,,,,,,,,,,,,,,2019_Feb_10_1730,60.0743321386684,Cloud_Experiment_FR_REAL,001,19,
images/fcloud65-35_D1.2_5.tif,1.2,1,,,,,,,,,0,48,48,49,,,,,,,,,,,,,,,None,None,,None,18.851,,,,,,,,,,,,,,,,,,2019_Feb_10_1730,60.0743321386684,Cloud_Experiment_FR_REAL,001,19,
images/fcloud_D1.8_6.tif,1.8,0,,,,,,,,,0,49,49,32,,,,,,,,,,,,,,,2,space,2.6411886235,3,0.687,,,,,,,,,,,,,,,,,,2019_Feb_10_1730,60.0743321386684,Cloud_Experiment_FR_REAL,001,19,
images/fcloud65-35_D1.5_6.tif,1.5,1,,,,,,,,,0,50,50,59,,,,,,,,,,,,,,,1,None,,3,2.883,,,,,,,,,,,,,,,,,,2019_Feb_10_1730,60.0743321386684,Cloud_Experiment_FR_REAL,001,19,
images/fcloud65-35_D1.8_4.tif,1.8,1,,,,,,,,,0,51,51,66,,,,,,,,,,,,,,,1,None,,2,1.518,,,,,,,,,,,,,,,,,,2019_Feb_10_1730,60.0743321386684,Cloud_Experiment_FR_REAL,001,19,
images/fcloud_D1.8_5.tif,1.8,0,,,,,,,,,0,52,52,31,,,,,,,,,,,,,,,1,space,4.68875124725,1,0.568,,,,,,,,,,,,,,,,,,2019_Feb_10_1730,60.0743321386684,Cloud_Experiment_FR_REAL,001,19,
images/fcloud_D1.9_4.tif,1.9,0,,,,,,,,,0,53,53,33,,,,,,,,,,,,,,,2,space,3.57748768968,3,1.101,,,,,,,,,,,,,,,,,,2019_Feb_10_1730,60.0743321386684,Cloud_Experiment_FR_REAL,001,19,
images/fcloud80-20_D1.8_4.tif,1.8,2,,,,,,,,,0,54,54,102,,,,,,,,,,,,,,,1,space,4.98129346035,3,0.686,,,,,,,,,,,,,,,,,,2019_Feb_10_1730,60.0743321386684,Cloud_Experiment_FR_REAL,001,19,
images/fcloud80-20_D1.2_4.tif,1.2,2,,,,,,,,,0,55,55,84,,,,,,,,,,,,,,,1,space,1.18509604386,2,1.236,,,,,,,,,,,,,,,,,,2019_Feb_10_1730,60.0743321386684,Cloud_Experiment_FR_REAL,001,19,
images/fcloud_D1.5_4.tif,1.5,0,,,,,,,,,0,56,56,21,,,,,,,,,,,,,,,2,space,2.22512618825,3,0.841,,,,,,,,,,,,,,,,,,2019_Feb_10_1730,60.0743321386684,Cloud_Experiment_FR_REAL,001,19,
images/fcloud_D1_4.tif,1.0,0,,,,,,,,,0,57,57,6,,,,,,,,,,,,,,,3,space,4.05246672896,3,1.55,,,,,,,,,,,,,,,,,,2019_Feb_10_1730,60.0743321386684,Cloud_Experiment_FR_REAL,001,19,
images/fcloud80-20_D0.9_6.tif,0.9,2,,,,,,,,,0,58,58,77,,,,,,,,,,,,,,,None,None,,None,11.207,,,,,,,,,,,,,,,,,,2019_Feb_10_1730,60.0743321386684,Cloud_Experiment_FR_REAL,001,19,
images/fcloud_D1.2_6.tif,1.2,0,,,,,,,,,0,59,59,14,,,,,,,,,,,,,,,2,None,,3,1.969,,,,,,,,,,,,,,,,,,2019_Feb_10_1730,60.0743321386684,Cloud_Experiment_FR_REAL,001,19,
images/fcloud_D1.9_5.tif,1.9,0,,,,,,,,,0,60,60,34,,,,,,,,,,,,,,,1,space,6.30938889401,1,0.619,,,,,,,,,,,,,,,,,,2019_Feb_10_1730,60.0743321386684,Cloud_Experiment_FR_REAL,001,19,
images/fcloud_D1.5_5.tif,1.5,0,,,,,,,,,0,61,61,22,,,,,,,,,,,,,,,2,space,3.02759870025,2,0.871,,,,,,,,,,,,,,,,,,2019_Feb_10_1730,60.0743321386684,Cloud_Experiment_FR_REAL,001,19,
images/fcloud65-35_D1.2_4.tif,1.2,1,,,,,,,,,0,62,62,48,,,,,,,,,,,,,,,1,space,1.84465861204,1,0.536,,,,,,,,,,,,,,,,,,2019_Feb_10_1730,60.0743321386684,Cloud_Experiment_FR_REAL,001,19,
images/fcloud65-35_D1.1_6.tif,1.1,1,,,,,,,,,0,63,63,47,,,,,,,,,,,,,,,1,None,,1,0.785,,,,,,,,,,,,,,,,,,2019_Feb_10_1730,60.0743321386684,Cloud_Experiment_FR_REAL,001,19,
images/fcloud80-20_D1.5_4.tif,1.5,2,,,,,,,,,0,64,64,93,,,,,,,,,,,,,,,2,space,6.13200422144,1,1.62,,,,,,,,,,,,,,,,,,2019_Feb_10_1730,60.0743321386684,Cloud_Experiment_FR_REAL,001,19,
images/fcloud65-35_D1.3_4.tif,1.3,1,,,,,,,,,0,65,65,51,,,,,,,,,,,,,,,None,None,,None,10.944,,,,,,,,,,,,,,,,,,2019_Feb_10_1730,60.0743321386684,Cloud_Experiment_FR_REAL,001,19,
images/fcloud80-20_D1.4_5.tif,1.4,2,,,,,,,,,0,66,66,91,,,,,,,,,,,,,,,None,None,,None,19.819,,,,,,,,,,,,,,,,,,2019_Feb_10_1730,60.0743321386684,Cloud_Experiment_FR_REAL,001,19,
images/fcloud65-35_D0.9_6.tif,0.9,1,,,,,,,,,0,67,67,41,,,,,,,,,,,,,,,2,space,2.41546612908,1,0.655,,,,,,,,,,,,,,,,,,2019_Feb_10_1730,60.0743321386684,Cloud_Experiment_FR_REAL,001,19,
images/fcloud65-35_D1.1_4.tif,1.1,1,,,,,,,,,0,68,68,45,,,,,,,,,,,,,,,2,space,1.84206930618,2,1.135,,,,,,,,,,,,,,,,,,2019_Feb_10_1730,60.0743321386684,Cloud_Experiment_FR_REAL,001,19,
images/fcloud80-20_D1.6_4.tif,1.6,2,,,,,,,,,0,69,69,96,,,,,,,,,,,,,,,None,None,,None,10.374,,,,,,,,,,,,,,,,,,2019_Feb_10_1730,60.0743321386684,Cloud_Experiment_FR_REAL,001,19,
images/fcloud80-20_D0.9_5.tif,0.9,2,,,,,,,,,0,70,70,76,,,,,,,,,,,,,,,1,space,4.22206086537,2,1.2,,,,,,,,,,,,,,,,,,2019_Feb_10_1730,60.0743321386684,Cloud_Experiment_FR_REAL,001,19,
images/fcloud80-20_D0.8_6.tif,0.8,2,,,,,,,,,0,71,71,74,,,,,,,,,,,,,,,1,None,,3,0.718,,,,,,,,,,,,,,,,,,2019_Feb_10_1730,60.0743321386684,Cloud_Experiment_FR_REAL,001,19,
images/fcloud80-20_D1.5_5.tif,1.5,2,,,,,,,,,0,72,72,94,,,,,,,,,,,,,,,1,None,,1,1.653,,,,,,,,,,,,,,,,,,2019_Feb_10_1730,60.0743321386684,Cloud_Experiment_FR_REAL,001,19,
images/fcloud_D1.1_6.tif,1.1,0,,,,,,,,,0,73,73,11,,,,,,,,,,,,,,,2,space,7.52015746594,2,0.7,,,,,,,,,,,,,,,,,,2019_Feb_10_1730,60.0743321386684,Cloud_Experiment_FR_REAL,001,19,
images/fcloud65-35_D1.6_5.tif,1.6,1,,,,,,,,,0,74,74,61,,,,,,,,,,,,,,,None,None,,None,10.574,,,,,,,,,,,,,,,,,,2019_Feb_10_1730,60.0743321386684,Cloud_Experiment_FR_REAL,001,19,
images/fcloud_D0.9_4.tif,0.9,0,,,,,,,,,0,75,75,3,,,,,,,,,,,,,,,1,space,6.39692357357,3,2.021,,,,,,,,,,,,,,,,,,2019_Feb_10_1730,60.0743321386684,Cloud_Experiment_FR_REAL,001,19,
images/fcloud_D1.7_6.tif,1.7,0,,,,,,,,,0,76,76,29,,,,,,,,,,,,,,,None,None,,None,12.147,,,,,,,,,,,,,,,,,,2019_Feb_10_1730,60.0743321386684,Cloud_Experiment_FR_REAL,001,19,
images/fcloud_D1.6_6.tif,1.6,0,,,,,,,,,0,77,77,26,,,,,,,,,,,,,,,2,space,4.42033270805,2,1.001,,,,,,,,,,,,,,,,,,2019_Feb_10_1730,60.0743321386684,Cloud_Experiment_FR_REAL,001,19,
images/fcloud80-20_D1.8_6.tif,1.8,2,,,,,,,,,0,78,78,104,,,,,,,,,,,,,,,None,None,,None,10.458,,,,,,,,,,,,,,,,,,2019_Feb_10_1730,60.0743321386684,Cloud_Experiment_FR_REAL,001,19,
images/fcloud_D0.8_5.tif,0.8,0,,,,,,,,,0,79,79,1,,,,,,,,,,,,,,,1,None,,1,0.669,,,,,,,,,,,,,,,,,,2019_Feb_10_1730,60.0743321386684,Cloud_Experiment_FR_REAL,001,19,
images/fcloud80-20_D1.3_4.tif,1.3,2,,,,,,,,,0,80,80,87,,,,,,,,,,,,,,,3,space,6.05411016964,2,1.369,,,,,,,,,,,,,,,,,,2019_Feb_10_1730,60.0743321386684,Cloud_Experiment_FR_REAL,001,19,
images/fcloud80-20_D1.3_6.tif,1.3,2,,,,,,,,,0,81,81,89,,,,,,,,,,,,,,,1,space,6.90549624769,1,1.419,,,,,,,,,,,,,,,,,,2019_Feb_10_1730,60.0743321386684,Cloud_Experiment_FR_REAL,001,19,
images/fcloud_D1.3_5.tif,1.3,0,,,,,,,,,0,82,82,16,,,,,,,,,,,,,,,4,space,2.40910827019,3,1.201,,,,,,,,,,,,,,,,,,2019_Feb_10_1730,60.0743321386684,Cloud_Experiment_FR_REAL,001,19,
images/fcloud65-35_D1.3_5.tif,1.3,1,,,,,,,,,0,83,83,52,,,,,,,,,,,,,,,2,space,4.73573144421,3,1.27,,,,,,,,,,,,,,,,,,2019_Feb_10_1730,60.0743321386684,Cloud_Experiment_FR_REAL,001,19,
images/fcloud80-20_D1.3_5.tif,1.3,2,,,,,,,,,0,84,84,88,,,,,,,,,,,,,,,2,space,7.11588236107,1,1.234,,,,,,,,,,,,,,,,,,2019_Feb_10_1730,60.0743321386684,Cloud_Experiment_FR_REAL,001,19,
images/fcloud65-35_D1.5_4.tif,1.5,1,,,,,,,,,0,85,85,57,,,,,,,,,,,,,,,2,None,,2,1.001,,,,,,,,,,,,,,,,,,2019_Feb_10_1730,60.0743321386684,Cloud_Experiment_FR_REAL,001,19,
images/fcloud65-35_D1.1_5.tif,1.1,1,,,,,,,,,0,86,86,46,,,,,,,,,,,,,,,1,space,6.59027537529,3,0.969,,,,,,,,,,,,,,,,,,2019_Feb_10_1730,60.0743321386684,Cloud_Experiment_FR_REAL,001,19,
images/fcloud65-35_D0.8_6.tif,0.8,1,,,,,,,,,0,87,87,38,,,,,,,,,,,,,,,1,space,6.3751362894,1,0.601,,,,,,,,,,,,,,,,,,2019_Feb_10_1730,60.0743321386684,Cloud_Experiment_FR_REAL,001,19,
images/fcloud65-35_D0.8_4.tif,0.8,1,,,,,,,,,0,88,88,36,,,,,,,,,,,,,,,None,None,,None,10.412,,,,,,,,,,,,,,,,,,2019_Feb_10_1730,60.0743321386684,Cloud_Experiment_FR_REAL,001,19,
images/fcloud65-35_D0.8_5.tif,0.8,1,,,,,,,,,0,89,89,37,,,,,,,,,,,,,,,1,space,7.53890770045,1,0.502,,,,,,,,,,,,,,,,,,2019_Feb_10_1730,60.0743321386684,Cloud_Experiment_FR_REAL,001,19,
images/fcloud65-35_D1.6_4.tif,1.6,1,,,,,,,,,0,90,90,60,,,,,,,,,,,,,,,3,space,1.99490260938,2,0.835,,,,,,,,,,,,,,,,,,2019_Feb_10_1730,60.0743321386684,Cloud_Experiment_FR_REAL,001,19,
images/fcloud80-20_D1.1_5.tif,1.1,2,,,,,,,,,0,91,91,82,,,,,,,,,,,,,,,1,space,1.24271773791,3,0.619,,,,,,,,,,,,,,,,,,2019_Feb_10_1730,60.0743321386684,Cloud_Experiment_FR_REAL,001,19,
images/fcloud_D1.4_4.tif,1.4,0,,,,,,,,,0,92,92,18,,,,,,,,,,,,,,,2,None,,2,0.752,,,,,,,,,,,,,,,,,,2019_Feb_10_1730,60.0743321386684,Cloud_Experiment_FR_REAL,001,19,
images/fcloud65-35_D0.9_4.tif,0.9,1,,,,,,,,,0,93,93,39,,,,,,,,,,,,,,,None,None,,None,10.127,,,,,,,,,,,,,,,,,,2019_Feb_10_1730,60.0743321386684,Cloud_Experiment_FR_REAL,001,19,
images/fcloud65-35_D1.4_6.tif,1.4,1,,,,,,,,,0,94,94,56,,,,,,,,,,,,,,,1,space,5.58319886448,2,1.267,,,,,,,,,,,,,,,,,,2019_Feb_10_1730,60.0743321386684,Cloud_Experiment_FR_REAL,001,19,
images/fcloud80-20_D1.4_4.tif,1.4,2,,,,,,,,,0,95,95,90,,,,,,,,,,,,,,,2,None,,2,0.704,,,,,,,,,,,,,,,,,,2019_Feb_10_1730,60.0743321386684,Cloud_Experiment_FR_REAL,001,19,
images/fcloud80-20_D1_5.tif,1.0,2,,,,,,,,,0,96,96,79,,,,,,,,,,,,,,,2,space,1.85507135373,3,1.134,,,,,,,,,,,,,,,,,,2019_Feb_10_1730,60.0743321386684,Cloud_Experiment_FR_REAL,001,19,
images/fcloud_D0.8_6.tif,0.8,0,,,,,,,,,0,97,97,2,,,,,,,,,,,,,,,1,space,2.90599231282,2,1.567,,,,,,,,,,,,,,,,,,2019_Feb_10_1730,60.0743321386684,Cloud_Experiment_FR_REAL,001,19,
images/fcloud80-20_D1_6.tif,1.0,2,,,,,,,,,0,98,98,80,,,,,,,,,,,,,,,1,None,,1,0.67,,,,,,,,,,,,,,,,,,2019_Feb_10_1730,60.0743321386684,Cloud_Experiment_FR_REAL,001,19,
images/fcloud80-20_D1.9_6.tif,1.9,2,,,,,,,,,0,99,99,107,,,,,,,,,,,,,,,None,None,,None,9.361,,,,,,,,,,,,,,,,,,2019_Feb_10_1730,60.0743321386684,Cloud_Experiment_FR_REAL,001,19,
images/fcloud65-35_D1_5.tif,1.0,1,,,,,,,,,0,100,100,43,,,,,,,,,,,,,,,1,space,6.2673816859,4,1.518,,,,,,,,,,,,,,,,,,2019_Feb_10_1730,60.0743321386684,Cloud_Experiment_FR_REAL,001,19,
images/fcloud_D1.6_5.tif,1.6,0,,,,,,,,,0,101,101,25,,,,,,,,,,,,,,,2,space,2.97554630134,3,1.485,,,,,,,,,,,,,,,,,,2019_Feb_10_1730,60.0743321386684,Cloud_Experiment_FR_REAL,001,19,
images/fcloud65-35_D1.3_6.tif,1.3,1,,,,,,,,,0,102,102,53,,,,,,,,,,,,,,,2,space,3.72139490431,3,2.982,,,,,,,,,,,,,,,,,,2019_Feb_10_1730,60.0743321386684,Cloud_Experiment_FR_REAL,001,19,
images/fcloud_D1.2_4.tif,1.2,0,,,,,,,,,0,103,103,12,,,,,,,,,,,,,,,None,None,,None,12.359,,,,,,,,,,,,,,,,,,2019_Feb_10_1730,60.0743321386684,Cloud_Experiment_FR_REAL,001,19,
images/fcloud_D1.8_4.tif,1.8,0,,,,,,,,,0,104,104,30,,,,,,,,,,,,,,,1,space,4.26268166141,2,2.032,,,,,,,,,,,,,,,,,,2019_Feb_10_1730,60.0743321386684,Cloud_Experiment_FR_REAL,001,19,
images/fcloud_D1.7_5.tif,1.7,0,,,,,,,,,0,105,105,28,,,,,,,,,,,,,,,None,None,,None,12.079,,,,,,,,,,,,,,,,,,2019_Feb_10_1730,60.0743321386684,Cloud_Experiment_FR_REAL,001,19,
images/fcloud80-20_D1.5_6.tif,1.5,2,,,,,,,,,0,106,106,95,,,,,,,,,,,,,,,1,space,6.53701185773,2,1.07,,,,,,,,,,,,,,,,,,2019_Feb_10_1730,60.0743321386684,Cloud_Experiment_FR_REAL,001,19,
images/fcloud_D1.3_4.tif,1.3,0,,,,,,,,,0,107,107,15,,,,,,,,,,,,,,,2,space,1.95798610919,3,0.868,,,,,,,,,,,,,,,,,,2019_Feb_10_1730,60.0743321386684,Cloud_Experiment_FR_REAL,001,19,
,,,,,,,,,,,,,,,,,,,,,,,,,,,,,,,,,,,,,,,,,,,,,,space,5.26346868288,,,,2019_Feb_10_1730,60.0743321386684,Cloud_Experiment_FR_REAL,001,19,
,,,,,,,,,,,,,,,,,,,,,,,,,5,14.795,,,,,,,,,,,,,,,,,,,,,,,,,2019_Feb_10_1730,60.0743321386684,Cloud_Experiment_FR_REAL,001,19,
,,,,,,,,,,,,,,,,,,,,,,,,,,,,,,,,,,5,,,,,,,,,,,,,,,,,2019_Feb_10_1730,60.0743321386684,Cloud_Experiment_FR_REAL,001,19,
,,,,,,,,,,,,,,,,,,,,,,,,,,,,,,,,,,,5,,,,,,,,,,,,,,,,2019_Feb_10_1730,60.0743321386684,Cloud_Experiment_FR_REAL,001,19,
,,,,,,,,,,,,,,,,,,,,,,,,,,,,,,,,,,,,5,,,,,,,,,,,,,,,2019_Feb_10_1730,60.0743321386684,Cloud_Experiment_FR_REAL,001,19,
,,,,,,,,,,,,,,,,,,,,,,,,,,,,,,,,,,,,,5,,,,,,,,,,,,,,2019_Feb_10_1730,60.0743321386684,Cloud_Experiment_FR_REAL,001,19,
,,,,,,,,,,,,,,,,,,,,,,,,,,,,,,,,,,,,,,4,,,,,,,,,,,,,2019_Feb_10_1730,60.0743321386684,Cloud_Experiment_FR_REAL,001,19,
,,,,,,,,,,,,,,,,,,,,,,,,,,,,,,,,,,,,,,,5,,,,,,,,,,,,2019_Feb_10_1730,60.0743321386684,Cloud_Experiment_FR_REAL,001,19,
,,,,,,,,,,,,,,,,,,,,,,,,,,,,,,,,,,,,,,,,5,,,,,,,,,,,2019_Feb_10_1730,60.0743321386684,Cloud_Experiment_FR_REAL,001,19,
,,,,,,,,,,,,,,,,,,,,,,,,,,,,,,,,,,,,,,,,,6,,,,,,,,,,2019_Feb_10_1730,60.0743321386684,Cloud_Experiment_FR_REAL,001,19,
,,,,,,,,,,,,,,,,,,,,,,,,,,,,,,,,,,,,,,,,,,6,,,,,,,,,2019_Feb_10_1730,60.0743321386684,Cloud_Experiment_FR_REAL,001,19,
,,,,,,,,,,,,,,,,,,,,,,,,,,,,,,,,,,,,,,,,,,,5,,,,,,,,2019_Feb_10_1730,60.0743321386684,Cloud_Experiment_FR_REAL,001,19,
,,,,,,,,,,,,,,,,,,,,,,,,,,,,,,,,,,,,,,,,,,,,,,,,space,19.0201777712,,2019_Feb_10_1730,60.0743321386684,Cloud_Experiment_FR_REAL,001,19,
images/fcloud65-35_D1.8_9.tif,1.8,1,,,,,,,,,,,,,0,0,0,90,,,,,,,,,,,1,space,3.40950923483,1,2.168,,,,,,,,,,,,,,,,,,2019_Feb_10_1730,60.0743321386684,Cloud_Experiment_FR_REAL,001,19,
images/fcloud_D1.8_9.tif,1.8,0,,,,,,,,,,,,,0,1,1,42,,,,,,,,,,,None,None,,None,11.441,,,,,,,,,,,,,,,,,,2019_Feb_10_1730,60.0743321386684,Cloud_Experiment_FR_REAL,001,19,
images/fcloud80-20_D1.2_7.tif,1.2,2,,,,,,,,,,,,,0,2,2,112,,,,,,,,,,,1,space,7.25041060313,1,1.782,,,,,,,,,,,,,,,,,,2019_Feb_10_1730,60.0743321386684,Cloud_Experiment_FR_REAL,001,19,
images/fcloud80-20_D1.1_10.tif,1.1,2,,,,,,,,,,,,,0,3,3,111,,,,,,,,,,,2,space,2.00336141966,1,1.003,,,,,,,,,,,,,,,,,,2019_Feb_10_1730,60.0743321386684,Cloud_Experiment_FR_REAL,001,19,
images/fcloud65-35_D1.4_8.tif,1.4,1,,,,,,,,,,,,,0,4,4,73,,,,,,,,,,,2,space,2.42146054935,1,0.902,,,,,,,,,,,,,,,,,,2019_Feb_10_1730,60.0743321386684,Cloud_Experiment_FR_REAL,001,19,
images/fcloud_D1.7_7.tif,1.7,0,,,,,,,,,,,,,0,5,5,36,,,,,,,,,,,3,space,3.40929949947,2,1.685,,,,,,,,,,,,,,,,,,2019_Feb_10_1730,60.0743321386684,Cloud_Experiment_FR_REAL,001,19,
images/fcloud_D1.6_10.tif,1.6,0,,,,,,,,,,,,,0,6,6,35,,,,,,,,,,,2,space,4.25944464351,2,1.351,,,,,,,,,,,,,,,,,,2019_Feb_10_1730,60.0743321386684,Cloud_Experiment_FR_REAL,001,19,
images/fcloud_D1.2_9.tif,1.2,0,,,,,,,,,,,,,0,7,7,18,,,,,,,,,,,2,space,4.17659713712,1,1.918,,,,,,,,,,,,,,,,,,2019_Feb_10_1730,60.0743321386684,Cloud_Experiment_FR_REAL,001,19,
images/fcloud80-20_D1.2_9.tif,1.2,2,,,,,,,,,,,,,0,8,8,114,,,,,,,,,,,None,None,,None,10.827,,,,,,,,,,,,,,,,,,2019_Feb_10_1730,60.0743321386684,Cloud_Experiment_FR_REAL,001,19,
images/fcloud80-20_D1.5_8.tif,1.5,2,,,,,,,,,,,,,0,9,9,125,,,,,,,,,,,2,space,4.66397780506,3,0.885,,,,,,,,,,,,,,,,,,2019_Feb_10_1730,60.0743321386684,Cloud_Experiment_FR_REAL,001,19,
images/fcloud65-35_D1.9_8.tif,1.9,1,,,,,,,,,,,,,0,10,10,93,,,,,,,,,,,2,space,4.36701110203,3,0.987,,,,,,,,,,,,,,,,,,2019_Feb_10_1730,60.0743321386684,Cloud_Experiment_FR_REAL,001,19,
images/fcloud_D1.9_7.tif,1.9,0,,,,,,,,,,,,,0,11,11,44,,,,,,,,,,,2,None,,3,2.069,,,,,,,,,,,,,,,,,,2019_Feb_10_1730,60.0743321386684,Cloud_Experiment_FR_REAL,001,19,
images/fcloud80-20_D1.7_8.tif,1.7,2,,,,,,,,,,,,,0,12,12,133,,,,,,,,,,,None,None,,None,11.394,,,,,,,,,,,,,,,,,,2019_Feb_10_1730,60.0743321386684,Cloud_Experiment_FR_REAL,001,19,
images/fcloud65-35_D1_8.tif,1.0,1,,,,,,,,,,,,,0,13,13,57,,,,,,,,,,,None,None,,None,20.533,,,,,,,,,,,,,,,,,,2019_Feb_10_1730,60.0743321386684,Cloud_Experiment_FR_REAL,001,19,
images/fcloud80-20_D1.6_10.tif,1.6,2,,,,,,,,,,,,,0,14,14,131,,,,,,,,,,,2,space,5.83143449191,1,0.752,,,,,,,,,,,,,,,,,,2019_Feb_10_1730,60.0743321386684,Cloud_Experiment_FR_REAL,001,19,
images/fcloud80-20_D1.4_8.tif,1.4,2,,,,,,,,,,,,,0,15,15,121,,,,,,,,,,,3,None,,2,0.921,,,,,,,,,,,,,,,,,,2019_Feb_10_1730,60.0743321386684,Cloud_Experiment_FR_REAL,001,19,
images/fcloud_D1.2_10.tif,1.2,0,,,,,,,,,,,,,0,16,16,19,,,,,,,,,,,2,space,4.90340043663,3,1.318,,,,,,,,,,,,,,,,,,2019_Feb_10_1730,60.0743321386684,Cloud_Experiment_FR_REAL,001,19,
images/fcloud_D1_9.tif,1.0,0,,,,,,,,,,,,,0,17,17,10,,,,,,,,,,,2,space,1.94046292896,2,1.023,,,,,,,,,,,,,,,,,,2019_Feb_10_1730,60.0743321386684,Cloud_Experiment_FR_REAL,001,19,
images/fcloud_D1.7_8.tif,1.7,0,,,,,,,,,,,,,0,18,18,37,,,,,,,,,,,1,space,4.01229676104,1,0.501,,,,,,,,,,,,,,,,,,2019_Feb_10_1730,60.0743321386684,Cloud_Experiment_FR_REAL,001,19,
images/fcloud_D1.5_7.tif,1.5,0,,,,,,,,,,,,,0,19,19,28,,,,,,,,,,,2,space,6.55793346965,1,0.784,,,,,,,,,,,,,,,,,,2019_Feb_10_1730,60.0743321386684,Cloud_Experiment_FR_REAL,001,19,
images/fcloud_D1.8_10.tif,1.8,0,,,,,,,,,,,,,0,20,20,43,,,,,,,,,,,1,space,5.96695332206,1,1.202,,,,,,,,,,,,,,,,,,2019_Feb_10_1730,60.0743321386684,Cloud_Experiment_FR_REAL,001,19,
images/fcloud80-20_D1.6_7.tif,1.6,2,,,,,,,,,,,,,0,21,21,128,,,,,,,,,,,2,space,5.18528059043,3,1.568,,,,,,,,,,,,,,,,,,2019_Feb_10_1730,60.0743321386684,Cloud_Experiment_FR_REAL,001,19,
images/fcloud_D1_7.tif,1.0,0,,,,,,,,,,,,,0,22,22,8,,,,,,,,,,,3,space,2.3128726593,3,0.786,,,,,,,,,,,,,,,,,,2019_Feb_10_1730,60.0743321386684,Cloud_Experiment_FR_REAL,001,19,
images/fcloud_D1.6_9.tif,1.6,0,,,,,,,,,,,,,0,23,23,34,,,,,,,,,,,1,space,2.40476859978,3,0.703,,,,,,,,,,,,,,,,,,2019_Feb_10_1730,60.0743321386684,Cloud_Experiment_FR_REAL,001,19,
images/fcloud_D0.8_9.tif,0.8,0,,,,,,,,,,,,,0,24,24,2,,,,,,,,,,,2,space,1.4439125096,3,1.685,,,,,,,,,,,,,,,,,,2019_Feb_10_1730,60.0743321386684,Cloud_Experiment_FR_REAL,001,19,
images/fcloud_D0.9_9.tif,0.9,0,,,,,,,,,,,,,0,25,25,6,,,,,,,,,,,3,space,3.14244883461,3,0.937,,,,,,,,,,,,,,,,,,2019_Feb_10_1730,60.0743321386684,Cloud_Experiment_FR_REAL,001,19,
images/fcloud_D1.2_8.tif,1.2,0,,,,,,,,,,,,,0,26,26,17,,,,,,,,,,,2,None,,2,2.299,,,,,,,,,,,,,,,,,,2019_Feb_10_1730,60.0743321386684,Cloud_Experiment_FR_REAL,001,19,
images/fcloud65-35_D1_10.tif,1.0,1,,,,,,,,,,,,,0,27,27,59,,,,,,,,,,,2,space,4.13287143584,2,0.935,,,,,,,,,,,,,,,,,,2019_Feb_10_1730,60.0743321386684,Cloud_Experiment_FR_REAL,001,19,
images/fcloud80-20_D1.9_8.tif,1.9,2,,,,,,,,,,,,,0,28,28,141,,,,,,,,,,,1,None,,1,0.738,,,,,,,,,,,,,,,,,,2019_Feb_10_1730,60.0743321386684,Cloud_Experiment_FR_REAL,001,19,
images/fcloud80-20_D1.4_10.tif,1.4,2,,,,,,,,,,,,,0,29,29,123,,,,,,,,,,,None,None,,None,9.392,,,,,,,,,,,,,,,,,,2019_Feb_10_1730,60.0743321386684,Cloud_Experiment_FR_REAL,001,19,
images/fcloud_D1.3_8.tif,1.3,0,,,,,,,,,,,,,0,30,30,21,,,,,,,,,,,3,space,4.40393736935,3,0.468,,,,,,,,,,,,,,,,,,2019_Feb_10_1730,60.0743321386684,Cloud_Experiment_FR_REAL,001,19,
images/fcloud65-35_D1.1_9.tif,1.1,1,,,,,,,,,,,,,0,31,31,62,,,,,,,,,,,None,None,,None,9.732,,,,,,,,,,,,,,,,,,2019_Feb_10_1730,60.0743321386684,Cloud_Experiment_FR_REAL,001,19,
images/fcloud65-35_D1.7_7.tif,1.7,1,,,,,,,,,,,,,0,32,32,84,,,,,,,,,,,3,space,4.49591401673,2,0.72,,,,,,,,,,,,,,,,,,2019_Feb_10_1730,60.0743321386684,Cloud_Experiment_FR_REAL,001,19,
images/fcloud80-20_D1.1_8.tif,1.1,2,,,,,,,,,,,,,0,33,33,109,,,,,,,,,,,1,space,4.49128338997,2,1.85,,,,,,,,,,,,,,,,,,2019_Feb_10_1730,60.0743321386684,Cloud_Experiment_FR_REAL,001,19,
images/fcloud80-20_D1.8_8.tif,1.8,2,,,,,,,,,,,,,0,34,34,137,,,,,,,,,,,None,None,,None,25.861,,,,,,,,,,,,,,,,,,2019_Feb_10_1730,60.0743321386684,Cloud_Experiment_FR_REAL,001,19,
images/fcloud65-35_D1.8_10.tif,1.8,1,,,,,,,,,,,,,0,35,35,91,,,,,,,,,,,2,space,4.74817316944,3,0.581,,,,,,,,,,,,,,,,,,2019_Feb_10_1730,60.0743321386684,Cloud_Experiment_FR_REAL,001,19,
images/fcloud65-35_D1.1_8.tif,1.1,1,,,,,,,,,,,,,0,36,36,61,,,,,,,,,,,2,space,3.00910498027,3,0.684,,,,,,,,,,,,,,,,,,2019_Feb_10_1730,60.0743321386684,Cloud_Experiment_FR_REAL,001,19,
images/fcloud80-20_D1_8.tif,1.0,2,,,,,,,,,,,,,0,37,37,105,,,,,,,,,,,2,None,,2,1.07,,,,,,,,,,,,,,,,,,2019_Feb_10_1730,60.0743321386684,Cloud_Experiment_FR_REAL,001,19,
images/fcloud_D1.1_9.tif,1.1,0,,,,,,,,,,,,,0,38,38,14,,,,,,,,,,,2,space,1.16327277571,3,0.768,,,,,,,,,,,,,,,,,,2019_Feb_10_1730,60.0743321386684,Cloud_Experiment_FR_REAL,001,19,
images/fcloud65-35_D1.8_7.tif,1.8,1,,,,,,,,,,,,,0,39,39,88,,,,,,,,,,,None,None,,None,9.743,,,,,,,,,,,,,,,,,,2019_Feb_10_1730,60.0743321386684,Cloud_Experiment_FR_REAL,001,19,
images/fcloud_D1.6_8.tif,1.6,0,,,,,,,,,,,,,0,40,40,33,,,,,,,,,,,2,space,3.83562559984,3,0.603,,,,,,,,,,,,,,,,,,2019_Feb_10_1730,60.0743321386684,Cloud_Experiment_FR_REAL,001,19,
images/fcloud80-20_D1.7_7.tif,1.7,2,,,,,,,,,,,,,0,41,41,132,,,,,,,,,,,3,space,1.9065500648,4,2.069,,,,,,,,,,,,,,,,,,2019_Feb_10_1730,60.0743321386684,Cloud_Experiment_FR_REAL,001,19,
images/fcloud80-20_D1.4_9.tif,1.4,2,,,,,,,,,,,,,0,42,42,122,,,,,,,,,,,1,space,7.75777627109,1,0.585,,,,,,,,,,,,,,,,,,2019_Feb_10_1730,60.0743321386684,Cloud_Experiment_FR_REAL,001,19,
images/fcloud80-20_D1.5_10.tif,1.5,2,,,,,,,,,,,,,0,43,43,127,,,,,,,,,,,3,space,1.63225122588,4,0.87,,,,,,,,,,,,,,,,,,2019_Feb_10_1730,60.0743321386684,Cloud_Experiment_FR_REAL,001,19,
images/fcloud65-35_D1.2_7.tif,1.2,1,,,,,,,,,,,,,0,44,44,64,,,,,,,,,,,2,space,4.66533337382,3,0.79,,,,,,,,,,,,,,,,,,2019_Feb_10_1730,60.0743321386684,Cloud_Experiment_FR_REAL,001,19,
images/fcloud_D1.4_7.tif,1.4,0,,,,,,,,,,,,,0,45,45,24,,,,,,,,,,,2,space,3.78853539471,3,1.051,,,,,,,,,,,,,,,,,,2019_Feb_10_1730,60.0743321386684,Cloud_Experiment_FR_REAL,001,19,
images/fcloud65-35_D1.7_9.tif,1.7,1,,,,,,,,,,,,,0,46,46,86,,,,,,,,,,,2,None,,2,2.269,,,,,,,,,,,,,,,,,,2019_Feb_10_1730,60.0743321386684,Cloud_Experiment_FR_REAL,001,19,
images/fcloud_D1.9_8.tif,1.9,0,,,,,,,,,,,,,0,47,47,45,,,,,,,,,,,1,None,,1,0.7,,,,,,,,,,,,,,,,,,2019_Feb_10_1730,60.0743321386684,Cloud_Experiment_FR_REAL,001,19,
images/fcloud65-35_D1.4_10.tif,1.4,1,,,,,,,,,,,,,0,48,48,75,,,,,,,,,,,3,space,7.64295440982,3,0.969,,,,,,,,,,,,,,,,,,2019_Feb_10_1730,60.0743321386684,Cloud_Experiment_FR_REAL,001,19,
images/fcloud65-35_D1.6_10.tif,1.6,1,,,,,,,,,,,,,0,49,49,83,,,,,,,,,,,3,space,6.39051430905,3,0.836,,,,,,,,,,,,,,,,,,2019_Feb_10_1730,60.0743321386684,Cloud_Experiment_FR_REAL,001,19,
images/fcloud80-20_D1.6_9.tif,1.6,2,,,,,,,,,,,,,0,50,50,130,,,,,,,,,,,1,None,,1,0.62,,,,,,,,,,,,,,,,,,2019_Feb_10_1730,60.0743321386684,Cloud_Experiment_FR_REAL,001,19,
images/fcloud_D1.3_7.tif,1.3,0,,,,,,,,,,,,,0,51,51,20,,,,,,,,,,,3,space,2.99925513123,2,1.184,,,,,,,,,,,,,,,,,,2019_Feb_10_1730,60.0743321386684,Cloud_Experiment_FR_REAL,001,19,
images/fcloud65-35_D0.8_8.tif,0.8,1,,,,,,,,,,,,,0,52,52,49,,,,,,,,,,,1,None,,1,0.652,,,,,,,,,,,,,,,,,,2019_Feb_10_1730,60.0743321386684,Cloud_Experiment_FR_REAL,001,19,
images/fcloud80-20_D1_9.tif,1.0,2,,,,,,,,,,,,,0,53,53,106,,,,,,,,,,,2,space,3.30780868232,2,1.02,,,,,,,,,,,,,,,,,,2019_Feb_10_1730,60.0743321386684,Cloud_Experiment_FR_REAL,001,19,
images/fcloud65-35_D1.3_8.tif,1.3,1,,,,,,,,,,,,,0,54,54,69,,,,,,,,,,,2,space,2.89668582217,3,0.834,,,,,,,,,,,,,,,,,,2019_Feb_10_1730,60.0743321386684,Cloud_Experiment_FR_REAL,001,19,
images/fcloud80-20_D0.9_10.tif,0.9,2,,,,,,,,,,,,,0,55,55,103,,,,,,,,,,,1,space,1.47924982617,1,0.571,,,,,,,,,,,,,,,,,,2019_Feb_10_1730,60.0743321386684,Cloud_Experiment_FR_REAL,001,19,
images/fcloud80-20_D1.7_9.tif,1.7,2,,,,,,,,,,,,,0,56,56,134,,,,,,,,,,,None,None,,None,9.792,,,,,,,,,,,,,,,,,,2019_Feb_10_1730,60.0743321386684,Cloud_Experiment_FR_REAL,001,19,
images/fcloud_D0.9_10.tif,0.9,0,,,,,,,,,,,,,0,57,57,7,,,,,,,,,,,2,space,1.69469631813,3,0.851,,,,,,,,,,,,,,,,,,2019_Feb_10_1730,60.0743321386684,Cloud_Experiment_FR_REAL,001,19,
images/fcloud65-35_D1.5_8.tif,1.5,1,,,,,,,,,,,,,0,58,58,77,,,,,,,,,,,1,space,3.29724069545,2,1.187,,,,,,,,,,,,,,,,,,2019_Feb_10_1730,60.0743321386684,Cloud_Experiment_FR_REAL,001,19,
images/fcloud_D1.1_10.tif,1.1,0,,,,,,,,,,,,,0,59,59,15,,,,,,,,,,,1,space,7.06176859315,2,1.119,,,,,,,,,,,,,,,,,,2019_Feb_10_1730,60.0743321386684,Cloud_Experiment_FR_REAL,001,19,
images/fcloud_D1.3_10.tif,1.3,0,,,,,,,,,,,,,0,60,60,23,,,,,,,,,,,2,space,2.10612092982,2,1.087,,,,,,,,,,,,,,,,,,2019_Feb_10_1730,60.0743321386684,Cloud_Experiment_FR_REAL,001,19,
images/fcloud65-35_D1.5_7.tif,1.5,1,,,,,,,,,,,,,0,61,61,76,,,,,,,,,,,1,None,,1,0.585,,,,,,,,,,,,,,,,,,2019_Feb_10_1730,60.0743321386684,Cloud_Experiment_FR_REAL,001,19,
images/fcloud_D1_10.tif,1.0,0,,,,,,,,,,,,,0,62,62,11,,,,,,,,,,,2,space,6.80126087938,3,2.153,,,,,,,,,,,,,,,,,,2019_Feb_10_1730,60.0743321386684,Cloud_Experiment_FR_REAL,001,19,
images/fcloud_D0.8_10.tif,0.8,0,,,,,,,,,,,,,0,63,63,3,,,,,,,,,,,1,space,1.99116747011,1,0.552,,,,,,,,,,,,,,,,,,2019_Feb_10_1730,60.0743321386684,Cloud_Experiment_FR_REAL,001,19,
images/fcloud65-35_D0.9_10.tif,0.9,1,,,,,,,,,,,,,0,64,64,55,,,,,,,,,,,1,space,5.12309509702,1,0.535,,,,,,,,,,,,,,,,,,2019_Feb_10_1730,60.0743321386684,Cloud_Experiment_FR_REAL,001,19,
images/fcloud65-35_D1.2_9.tif,1.2,1,,,,,,,,,,,,,0,65,65,66,,,,,,,,,,,None,None,,None,9.195,,,,,,,,,,,,,,,,,,2019_Feb_10_1730,60.0743321386684,Cloud_Experiment_FR_REAL,001,19,
images/fcloud_D1.8_8.tif,1.8,0,,,,,,,,,,,,,0,66,66,41,,,,,,,,,,,2,space,1.69794001873,2,0.852,,,,,,,,,,,,,,,,,,2019_Feb_10_1730,60.0743321386684,Cloud_Experiment_FR_REAL,001,19,
images/fcloud65-35_D1.3_10.tif,1.3,1,,,,,,,,,,,,,0,67,67,71,,,,,,,,,,,1,space,2.14438683004,3,0.903,,,,,,,,,,,,,,,,,,2019_Feb_10_1730,60.0743321386684,Cloud_Experiment_FR_REAL,001,19,
images/fcloud65-35_D1.7_8.tif,1.7,1,,,,,,,,,,,,,0,68,68,85,,,,,,,,,,,None,None,,None,11.312,,,,,,,,,,,,,,,,,,2019_Feb_10_1730,60.0743321386684,Cloud_Experiment_FR_REAL,001,19,
images/fcloud80-20_D1.2_8.tif,1.2,2,,,,,,,,,,,,,0,69,69,113,,,,,,,,,,,None,None,,None,20.605,,,,,,,,,,,,,,,,,,2019_Feb_10_1730,60.0743321386684,Cloud_Experiment_FR_REAL,001,19,
images/fcloud65-35_D1.3_7.tif,1.3,1,,,,,,,,,,,,,0,70,70,68,,,,,,,,,,,2,space,4.63422623347,2,1.705,,,,,,,,,,,,,,,,,,2019_Feb_10_1730,60.0743321386684,Cloud_Experiment_FR_REAL,001,19,
images/fcloud65-35_D1_9.tif,1.0,1,,,,,,,,,,,,,0,71,71,58,,,,,,,,,,,2,space,5.10395469307,3,1.185,,,,,,,,,,,,,,,,,,2019_Feb_10_1730,60.0743321386684,Cloud_Experiment_FR_REAL,001,19,
images/fcloud65-35_D1.9_9.tif,1.9,1,,,,,,,,,,,,,0,72,72,94,,,,,,,,,,,2,space,5.68165314617,2,1.053,,,,,,,,,,,,,,,,,,2019_Feb_10_1730,60.0743321386684,Cloud_Experiment_FR_REAL,001,19,
images/fcloud80-20_D1.1_7.tif,1.1,2,,,,,,,,,,,,,0,73,73,108,,,,,,,,,,,None,None,,None,11.161,,,,,,,,,,,,,,,,,,2019_Feb_10_1730,60.0743321386684,Cloud_Experiment_FR_REAL,001,19,
images/fcloud80-20_D1.1_9.tif,1.1,2,,,,,,,,,,,,,0,74,74,110,,,,,,,,,,,1,space,1.62464060984,1,0.57,,,,,,,,,,,,,,,,,,2019_Feb_10_1730,60.0743321386684,Cloud_Experiment_FR_REAL,001,19,
images/fcloud_D1.6_7.tif,1.6,0,,,,,,,,,,,,,0,75,75,32,,,,,,,,,,,1,space,3.85858287802,3,1.023,,,,,,,,,,,,,,,,,,2019_Feb_10_1730,60.0743321386684,Cloud_Experiment_FR_REAL,001,19,
images/fcloud65-35_D0.8_7.tif,0.8,1,,,,,,,,,,,,,0,76,76,48,,,,,,,,,,,1,space,3.43842751964,1,0.701,,,,,,,,,,,,,,,,,,2019_Feb_10_1730,60.0743321386684,Cloud_Experiment_FR_REAL,001,19,
images/fcloud65-35_D1.6_7.tif,1.6,1,,,,,,,,,,,,,0,77,77,80,,,,,,,,,,,1,space,7.22547112056,1,1.235,,,,,,,,,,,,,,,,,,2019_Feb_10_1730,60.0743321386684,Cloud_Experiment_FR_REAL,001,19,
images/fcloud_D1_8.tif,1.0,0,,,,,,,,,,,,,0,78,78,9,,,,,,,,,,,1,space,6.30335386307,2,1.587,,,,,,,,,,,,,,,,,,2019_Feb_10_1730,60.0743321386684,Cloud_Experiment_FR_REAL,001,19,
images/fcloud80-20_D0.8_9.tif,0.8,2,,,,,,,,,,,,,0,79,79,98,,,,,,,,,,,1,None,,1,0.437,,,,,,,,,,,,,,,,,,2019_Feb_10_1730,60.0743321386684,Cloud_Experiment_FR_REAL,001,19,
images/fcloud65-35_D1.2_8.tif,1.2,1,,,,,,,,,,,,,0,80,80,65,,,,,,,,,,,1,space,5.70711902331,1,0.538,,,,,,,,,,,,,,,,,,2019_Feb_10_1730,60.0743321386684,Cloud_Experiment_FR_REAL,001,19,
images/fcloud80-20_D1.7_10.tif,1.7,2,,,,,,,,,,,,,0,81,81,135,,,,,,,,,,,1,None,,1,0.654,,,,,,,,,,,,,,,,,,2019_Feb_10_1730,60.0743321386684,Cloud_Experiment_FR_REAL,001,19,
images/fcloud80-20_D0.9_9.tif,0.9,2,,,,,,,,,,,,,0,82,82,102,,,,,,,,,,,2,space,1.30142923305,2,1.352,,,,,,,,,,,,,,,,,,2019_Feb_10_1730,60.0743321386684,Cloud_Experiment_FR_REAL,001,19,
images/fcloud65-35_D1.1_10.tif,1.1,1,,,,,,,,,,,,,0,83,83,63,,,,,,,,,,,2,space,2.23233789601,1,0.834,,,,,,,,,,,,,,,,,,2019_Feb_10_1730,60.0743321386684,Cloud_Experiment_FR_REAL,001,19,
images/fcloud_D1.7_10.tif,1.7,0,,,,,,,,,,,,,0,84,84,39,,,,,,,,,,,2,space,3.34393970319,2,0.621,,,,,,,,,,,,,,,,,,2019_Feb_10_1730,60.0743321386684,Cloud_Experiment_FR_REAL,001,19,
images/fcloud_D1.1_8.tif,1.1,0,,,,,,,,,,,,,0,85,85,13,,,,,,,,,,,None,None,,None,10.375,,,,,,,,,,,,,,,,,,2019_Feb_10_1730,60.0743321386684,Cloud_Experiment_FR_REAL,001,19,
images/fcloud_D0.9_8.tif,0.9,0,,,,,,,,,,,,,0,86,86,5,,,,,,,,,,,1,space,7.41382834304,1,0.704,,,,,,,,,,,,,,,,,,2019_Feb_10_1730,60.0743321386684,Cloud_Experiment_FR_REAL,001,19,
images/fcloud80-20_D0.8_8.tif,0.8,2,,,,,,,,,,,,,0,87,87,97,,,,,,,,,,,2,space,3.52595962898,1,0.62,,,,,,,,,,,,,,,,,,2019_Feb_10_1730,60.0743321386684,Cloud_Experiment_FR_REAL,001,19,
images/fcloud80-20_D1.3_10.tif,1.3,2,,,,,,,,,,,,,0,88,88,119,,,,,,,,,,,None,None,,None,10.142,,,,,,,,,,,,,,,,,,2019_Feb_10_1730,60.0743321386684,Cloud_Experiment_FR_REAL,001,19,
images/fcloud80-20_D0.8_10.tif,0.8,2,,,,,,,,,,,,,0,89,89,99,,,,,,,,,,,1,space,4.27350359247,1,0.585,,,,,,,,,,,,,,,,,,2019_Feb_10_1730,60.0743321386684,Cloud_Experiment_FR_REAL,001,19,
images/fcloud80-20_D1.2_10.tif,1.2,2,,,,,,,,,,,,,0,90,90,115,,,,,,,,,,,1,space,8.14392109436,1,10.71,,,,,,,,,,,,,,,,,,2019_Feb_10_1730,60.0743321386684,Cloud_Experiment_FR_REAL,001,19,
images/fcloud65-35_D1.9_7.tif,1.9,1,,,,,,,,,,,,,0,91,91,92,,,,,,,,,,,2,None,,2,1.55,,,,,,,,,,,,,,,,,,2019_Feb_10_1730,60.0743321386684,Cloud_Experiment_FR_REAL,001,19,
images/fcloud80-20_D0.9_7.tif,0.9,2,,,,,,,,,,,,,0,92,92,100,,,,,,,,,,,1,space,6.82338487101,1,0.469,,,,,,,,,,,,,,,,,,2019_Feb_10_1730,60.0743321386684,Cloud_Experiment_FR_REAL,001,19,
images/fcloud65-35_D1.5_10.tif,1.5,1,,,,,,,,,,,,,0,93,93,79,,,,,,,,,,,1,space,3.9338300497,4,1.205,,,,,,,,,,,,,,,,,,2019_Feb_10_1730,60.0743321386684,Cloud_Experiment_FR_REAL,001,19,
images/fcloud80-20_D1.8_10.tif,1.8,2,,,,,,,,,,,,,0,94,94,139,,,,,,,,,,,1,space,8.10409914306,1,0.803,,,,,,,,,,,,,,,,,,2019_Feb_10_1730,60.0743321386684,Cloud_Experiment_FR_REAL,001,19,
images/fcloud65-35_D1.8_8.tif,1.8,1,,,,,,,,,,,,,0,95,95,89,,,,,,,,,,,1,space,6.40107869753,3,0.789,,,,,,,,,,,,,,,,,,2019_Feb_10_1730,60.0743321386684,Cloud_Experiment_FR_REAL,001,19,
images/fcloud65-35_D0.9_9.tif,0.9,1,,,,,,,,,,,,,0,96,96,54,,,,,,,,,,,None,None,,None,11.458,,,,,,,,,,,,,,,,,,2019_Feb_10_1730,60.0743321386684,Cloud_Experiment_FR_REAL,001,19,
images/fcloud_D0.8_7.tif,0.8,0,,,,,,,,,,,,,0,97,97,0,,,,,,,,,,,1,space,5.84363872278,3,0.621,,,,,,,,,,,,,,,,,,2019_Feb_10_1730,60.0743321386684,Cloud_Experiment_FR_REAL,001,19,
images/fcloud_D1.8_7.tif,1.8,0,,,,,,,,,,,,,0,98,98,40,,,,,,,,,,,None,None,,None,9.661,,,,,,,,,,,,,,,,,,2019_Feb_10_1730,60.0743321386684,Cloud_Experiment_FR_REAL,001,19,
images/fcloud_D1.9_10.tif,1.9,0,,,,,,,,,,,,,0,99,99,47,,,,,,,,,,,1,space,4.52888512833,1,0.736,,,,,,,,,,,,,,,,,,2019_Feb_10_1730,60.0743321386684,Cloud_Experiment_FR_REAL,001,19,
images/fcloud_D1.2_7.tif,1.2,0,,,,,,,,,,,,,0,100,100,16,,,,,,,,,,,2,space,6.7610688071,2,0.788,,,,,,,,,,,,,,,,,,2019_Feb_10_1730,60.0743321386684,Cloud_Experiment_FR_REAL,001,19,
images/fcloud80-20_D1.6_8.tif,1.6,2,,,,,,,,,,,,,0,101,101,129,,,,,,,,,,,1,space,7.15277984121,3,1.032,,,,,,,,,,,,,,,,,,2019_Feb_10_1730,60.0743321386684,Cloud_Experiment_FR_REAL,001,19,
images/fcloud65-35_D1.4_7.tif,1.4,1,,,,,,,,,,,,,0,102,102,72,,,,,,,,,,,None,None,,None,9.474,,,,,,,,,,,,,,,,,,2019_Feb_10_1730,60.0743321386684,Cloud_Experiment_FR_REAL,001,19,
images/fcloud_D1.3_9.tif,1.3,0,,,,,,,,,,,,,0,103,103,22,,,,,,,,,,,2,space,1.47161607747,3,0.718,,,,,,,,,,,,,,,,,,2019_Feb_10_1730,60.0743321386684,Cloud_Experiment_FR_REAL,001,19,
images/fcloud80-20_D1.9_10.tif,1.9,2,,,,,,,,,,,,,0,104,104,143,,,,,,,,,,,2,space,3.59938189771,1,0.753,,,,,,,,,,,,,,,,,,2019_Feb_10_1730,60.0743321386684,Cloud_Experiment_FR_REAL,001,19,
images/fcloud_D1.5_8.tif,1.5,0,,,,,,,,,,,,,0,105,105,29,,,,,,,,,,,1,space,3.70820522599,4,1.354,,,,,,,,,,,,,,,,,,2019_Feb_10_1730,60.0743321386684,Cloud_Experiment_FR_REAL,001,19,
images/fcloud_D1.4_10.tif,1.4,0,,,,,,,,,,,,,0,106,106,27,,,,,,,,,,,3,space,5.63746427943,2,0.819,,,,,,,,,,,,,,,,,,2019_Feb_10_1730,60.0743321386684,Cloud_Experiment_FR_REAL,001,19,
images/fcloud65-35_D1.3_9.tif,1.3,1,,,,,,,,,,,,,0,107,107,70,,,,,,,,,,,2,space,4.5240128946,1,0.835,,,,,,,,,,,,,,,,,,2019_Feb_10_1730,60.0743321386684,Cloud_Experiment_FR_REAL,001,19,
images/fcloud80-20_D1.5_9.tif,1.5,2,,,,,,,,,,,,,0,108,108,126,,,,,,,,,,,1,None,,1,1.001,,,,,,,,,,,,,,,,,,2019_Feb_10_1730,60.0743321386684,Cloud_Experiment_FR_REAL,001,19,
images/fcloud65-35_D0.9_7.tif,0.9,1,,,,,,,,,,,,,0,109,109,52,,,,,,,,,,,None,None,,None,11.16,,,,,,,,,,,,,,,,,,2019_Feb_10_1730,60.0743321386684,Cloud_Experiment_FR_REAL,001,19,
images/fcloud65-35_D1.6_8.tif,1.6,1,,,,,,,,,,,,,0,110,110,81,,,,,,,,,,,1,space,4.5627095747,2,1.37,,,,,,,,,,,,,,,,,,2019_Feb_10_1730,60.0743321386684,Cloud_Experiment_FR_REAL,001,19,
images/fcloud_D0.9_7.tif,0.9,0,,,,,,,,,,,,,0,111,111,4,,,,,,,,,,,1,space,2.55673108995,3,1.537,,,,,,,,,,,,,,,,,,2019_Feb_10_1730,60.0743321386684,Cloud_Experiment_FR_REAL,001,19,
images/fcloud65-35_D1.4_9.tif,1.4,1,,,,,,,,,,,,,0,112,112,74,,,,,,,,,,,1,space,7.50246259081,1,0.484,,,,,,,,,,,,,,,,,,2019_Feb_10_1730,60.0743321386684,Cloud_Experiment_FR_REAL,001,19,
images/fcloud65-35_D0.8_10.tif,0.8,1,,,,,,,,,,,,,0,113,113,51,,,,,,,,,,,1,space,2.441218336,2,0.486,,,,,,,,,,,,,,,,,,2019_Feb_10_1730,60.0743321386684,Cloud_Experiment_FR_REAL,001,19,
images/fcloud80-20_D1.3_8.tif,1.3,2,,,,,,,,,,,,,0,114,114,117,,,,,,,,,,,1,space,2.83349380491,1,1.103,,,,,,,,,,,,,,,,,,2019_Feb_10_1730,60.0743321386684,Cloud_Experiment_FR_REAL,001,19,
images/fcloud_D1.5_10.tif,1.5,0,,,,,,,,,,,,,0,115,115,31,,,,,,,,,,,1,None,,1,0.435,,,,,,,,,,,,,,,,,,2019_Feb_10_1730,60.0743321386684,Cloud_Experiment_FR_REAL,001,19,
images/fcloud65-35_D1.5_9.tif,1.5,1,,,,,,,,,,,,,0,116,116,78,,,,,,,,,,,2,space,4.96021300473,1,1.236,,,,,,,,,,,,,,,,,,2019_Feb_10_1730,60.0743321386684,Cloud_Experiment_FR_REAL,001,19,
images/fcloud_D1.9_9.tif,1.9,0,,,,,,,,,,,,,0,117,117,46,,,,,,,,,,,1,space,6.52135624725,3,0.569,,,,,,,,,,,,,,,,,,2019_Feb_10_1730,60.0743321386684,Cloud_Experiment_FR_REAL,001,19,
images/fcloud80-20_D1.9_7.tif,1.9,2,,,,,,,,,,,,,0,118,118,140,,,,,,,,,,,1,space,2.78385336208,2,1.069,,,,,,,,,,,,,,,,,,2019_Feb_10_1730,60.0743321386684,Cloud_Experiment_FR_REAL,001,19,
images/fcloud65-35_D1.1_7.tif,1.1,1,,,,,,,,,,,,,0,119,119,60,,,,,,,,,,,2,space,4.59364399174,1,0.57,,,,,,,,,,,,,,,,,,2019_Feb_10_1730,60.0743321386684,Cloud_Experiment_FR_REAL,001,19,
images/fcloud80-20_D1.9_9.tif,1.9,2,,,,,,,,,,,,,0,120,120,142,,,,,,,,,,,2,space,5.07831814897,3,1.502,,,,,,,,,,,,,,,,,,2019_Feb_10_1730,60.0743321386684,Cloud_Experiment_FR_REAL,001,19,
images/fcloud80-20_D1.3_9.tif,1.3,2,,,,,,,,,,,,,0,121,121,118,,,,,,,,,,,None,None,,None,11.091,,,,,,,,,,,,,,,,,,2019_Feb_10_1730,60.0743321386684,Cloud_Experiment_FR_REAL,001,19,
images/fcloud_D1.1_7.tif,1.1,0,,,,,,,,,,,,,0,122,122,12,,,,,,,,,,,None,None,,None,20.35,,,,,,,,,,,,,,,,,,2019_Feb_10_1730,60.0743321386684,Cloud_Experiment_FR_REAL,001,19,
images/fcloud_D1.7_9.tif,1.7,0,,,,,,,,,,,,,0,123,123,38,,,,,,,,,,,2,space,3.91774006083,1,1.434,,,,,,,,,,,,,,,,,,2019_Feb_10_1730,60.0743321386684,Cloud_Experiment_FR_REAL,001,19,
images/fcloud65-35_D1.7_10.tif,1.7,1,,,,,,,,,,,,,0,124,124,87,,,,,,,,,,,1,space,6.93918035645,2,3.688,,,,,,,,,,,,,,,,,,2019_Feb_10_1730,60.0743321386684,Cloud_Experiment_FR_REAL,001,19,
images/fcloud65-35_D1.6_9.tif,1.6,1,,,,,,,,,,,,,0,125,125,82,,,,,,,,,,,1,space,2.52465289575,2,2.452,,,,,,,,,,,,,,,,,,2019_Feb_10_1730,60.0743321386684,Cloud_Experiment_FR_REAL,001,19,
images/fcloud80-20_D1.4_7.tif,1.4,2,,,,,,,,,,,,,0,126,126,120,,,,,,,,,,,2,space,1.89017991477,3,1.669,,,,,,,,,,,,,,,,,,2019_Feb_10_1730,60.0743321386684,Cloud_Experiment_FR_REAL,001,19,
images/fcloud80-20_D1.8_7.tif,1.8,2,,,,,,,,,,,,,0,127,127,136,,,,,,,,,,,2,space,5.80923030735,1,0.588,,,,,,,,,,,,,,,,,,2019_Feb_10_1730,60.0743321386684,Cloud_Experiment_FR_REAL,001,19,
images/fcloud_D1.5_9.tif,1.5,0,,,,,,,,,,,,,0,128,128,30,,,,,,,,,,,2,space,3.09170985175,2,0.836,,,,,,,,,,,,,,,,,,2019_Feb_10_1730,60.0743321386684,Cloud_Experiment_FR_REAL,001,19,
images/fcloud_D1.4_8.tif,1.4,0,,,,,,,,,,,,,0,129,129,25,,,,,,,,,,,2,None,,2,1.834,,,,,,,,,,,,,,,,,,2019_Feb_10_1730,60.0743321386684,Cloud_Experiment_FR_REAL,001,19,
images/fcloud80-20_D1.5_7.tif,1.5,2,,,,,,,,,,,,,0,130,130,124,,,,,,,,,,,3,None,,2,1.303,,,,,,,,,,,,,,,,,,2019_Feb_10_1730,60.0743321386684,Cloud_Experiment_FR_REAL,001,19,
images/fcloud80-20_D0.8_7.tif,0.8,2,,,,,,,,,,,,,0,131,131,96,,,,,,,,,,,1,space,5.39341976005,1,0.752,,,,,,,,,,,,,,,,,,2019_Feb_10_1730,60.0743321386684,Cloud_Experiment_FR_REAL,001,19,
images/fcloud80-20_D1.3_7.tif,1.3,2,,,,,,,,,,,,,0,132,132,116,,,,,,,,,,,2,space,1.36331143288,3,1.583,,,,,,,,,,,,,,,,,,2019_Feb_10_1730,60.0743321386684,Cloud_Experiment_FR_REAL,001,19,
images/fcloud80-20_D1_10.tif,1.0,2,,,,,,,,,,,,,0,133,133,107,,,,,,,,,,,None,space,3.94285997748,None,13.905,,,,,,,,,,,,,,,,,,2019_Feb_10_1730,60.0743321386684,Cloud_Experiment_FR_REAL,001,19,
images/fcloud80-20_D1.8_9.tif,1.8,2,,,,,,,,,,,,,0,134,134,138,,,,,,,,,,,2,space,1.23478583607,2,1.985,,,,,,,,,,,,,,,,,,2019_Feb_10_1730,60.0743321386684,Cloud_Experiment_FR_REAL,001,19,
images/fcloud65-35_D1_7.tif,1.0,1,,,,,,,,,,,,,0,135,135,56,,,,,,,,,,,None,None,,None,11.425,,,,,,,,,,,,,,,,,,2019_Feb_10_1730,60.0743321386684,Cloud_Experiment_FR_REAL,001,19,
images/fcloud_D1.4_9.tif,1.4,0,,,,,,,,,,,,,0,136,136,26,,,,,,,,,,,1,space,7.27359509456,2,1.687,,,,,,,,,,,,,,,,,,2019_Feb_10_1730,60.0743321386684,Cloud_Experiment_FR_REAL,001,19,
images/fcloud65-35_D1.2_10.tif,1.2,1,,,,,,,,,,,,,0,137,137,67,,,,,,,,,,,2,space,2.44520279299,2,0.953,,,,,,,,,,,,,,,,,,2019_Feb_10_1730,60.0743321386684,Cloud_Experiment_FR_REAL,001,19,
images/fcloud80-20_D1_7.tif,1.0,2,,,,,,,,,,,,,0,138,138,104,,,,,,,,,,,1,space,5.93531156238,1,0.918,,,,,,,,,,,,,,,,,,2019_Feb_10_1730,60.0743321386684,Cloud_Experiment_FR_REAL,001,19,
images/fcloud_D0.8_8.tif,0.8,0,,,,,,,,,,,,,0,139,139,1,,,,,,,,,,,1,space,1.48453690391,4,2.603,,,,,,,,,,,,,,,,,,2019_Feb_10_1730,60.0743321386684,Cloud_Experiment_FR_REAL,001,19,
images/fcloud80-20_D0.9_8.tif,0.9,2,,,,,,,,,,,,,0,140,140,101,,,,,,,,,,,2,space,5.30742673785,2,1.168,,,,,,,,,,,,,,,,,,2019_Feb_10_1730,60.0743321386684,Cloud_Experiment_FR_REAL,001,19,
images/fcloud65-35_D1.9_10.tif,1.9,1,,,,,,,,,,,,,0,141,141,95,,,,,,,,,,,2,space,2.43526761036,3,1.869,,,,,,,,,,,,,,,,,,2019_Feb_10_1730,60.0743321386684,Cloud_Experiment_FR_REAL,001,19,
images/fcloud65-35_D0.8_9.tif,0.8,1,,,,,,,,,,,,,0,142,142,50,,,,,,,,,,,1,space,7.41676463746,2,0.704,,,,,,,,,,,,,,,,,,2019_Feb_10_1730,60.0743321386684,Cloud_Experiment_FR_REAL,001,19,
images/fcloud65-35_D0.9_8.tif,0.9,1,,,,,,,,,,,,,0,143,143,53,,,,,,,,,,,2,space,1.42446161516,3,1.204,,,,,,,,,,,,,,,,,,2019_Feb_10_1730,60.0743321386684,Cloud_Experiment_FR_REAL,001,19,
,,,,,,,,,,,,,,,,,,,,,,,,,5,12.232,,,,,,,,,,,,,,,,,,,,,,,,,2019_Feb_10_1730,60.0743321386684,Cloud_Experiment_FR_REAL,001,19,
,,,,,,,,,,,,,,,,,,,,,,,,,,,,,,,,,,5,,,,,,,,,,,,,,,,,2019_Feb_10_1730,60.0743321386684,Cloud_Experiment_FR_REAL,001,19,
,,,,,,,,,,,,,,,,,,,,,,,,,,,,,,,,,,,6,,,,,,,,,,,,,,,,2019_Feb_10_1730,60.0743321386684,Cloud_Experiment_FR_REAL,001,19,
,,,,,,,,,,,,,,,,,,,,,,,,,,,,,,,,,,,,7,,,,,,,,,,,,,,,2019_Feb_10_1730,60.0743321386684,Cloud_Experiment_FR_REAL,001,19,
,,,,,,,,,,,,,,,,,,,,,,,,,,,,,,,,,,,,,4,,,,,,,,,,,,,,2019_Feb_10_1730,60.0743321386684,Cloud_Experiment_FR_REAL,001,19,
,,,,,,,,,,,,,,,,,,,,,,,,,,,,,,,,,,,,,,4,,,,,,,,,,,,,2019_Feb_10_1730,60.0743321386684,Cloud_Experiment_FR_REAL,001,19,
,,,,,,,,,,,,,,,,,,,,,,,,,,,,,,,,,,,,,,,7,,,,,,,,,,,,2019_Feb_10_1730,60.0743321386684,Cloud_Experiment_FR_REAL,001,19,
,,,,,,,,,,,,,,,,,,,,,,,,,,,,,,,,,,,,,,,,7,,,,,,,,,,,2019_Feb_10_1730,60.0743321386684,Cloud_Experiment_FR_REAL,001,19,
,,,,,,,,,,,,,,,,,,,,,,,,,,,,,,,,,,,,,,,,,7,,,,,,,,,,2019_Feb_10_1730,60.0743321386684,Cloud_Experiment_FR_REAL,001,19,
,,,,,,,,,,,,,,,,,,,,,,,,,,,,,,,,,,,,,,,,,,7,,,,,,,,,2019_Feb_10_1730,60.0743321386684,Cloud_Experiment_FR_REAL,001,19,
,,,,,,,,,,,,,,,,,,,,,,,,,,,,,,,,,,,,,,,,,,,5,,,,,,,,2019_Feb_10_1730,60.0743321386684,Cloud_Experiment_FR_REAL,001,19,
,,,,,,,,,,,,,,,,,,,,,,,,,,,,,,,,,,,,,,,,,,,,,,,,,,4,2019_Feb_10_1730,60.0743321386684,Cloud_Experiment_FR_REAL,001,19,
