ImageFile,FD,Contrast,trials_4.thisRepN,trials_4.thisTrialN,trials_4.thisN,trials_4.thisIndex,trials.thisRepN,trials.thisTrialN,trials.thisN,trials.thisIndex,trials_2.thisRepN,trials_2.thisTrialN,trials_2.thisN,trials_2.thisIndex,trials_3.thisRepN,trials_3.thisTrialN,trials_3.thisN,trials_3.thisIndex,end_instructions.keys,end_instructions.rt,key_resp_4.keys,key_resp_4.rt,key_resp_6.keys,key_resp_6.rt,Fatigue.response,Fatigue.rt,key_resp_5.keys,key_resp_5.rt,n_objets.response,reaction_time.keys,reaction_time.rt,vividness.response,vividness.rt,Flow01.response,Flow02.response,Flow03.response,Flow04.response,Flow05.response,Flow06.response,Flow07.response,Flow08.response,Flow09.response,Flow10.response,key_resp_2.keys,key_resp_2.rt,key_resp_8.keys,key_resp_8.rt,key_resp_3.keys,key_resp_3.rt,Redondance_question.response,date,frameRate,expName,session,participant,
,,,,,,,,,,,,,,,,,,,space,5.35977702338,,,,,,,,,,,,,,,,,,,,,,,,,,,,,,,2019_Feb_14_1430,59.924282797021256,Cloud_Experiment_FR_REAL,001,20,
,,,,,,,,,,,,,,,,,,,,,space,0.618121683074,,,,,,,,,,,,,,,,,,,,,,,,,,,,,2019_Feb_14_1430,59.924282797021256,Cloud_Experiment_FR_REAL,001,20,
,,,,,,,,,,,,,,,,,,,,,,,space,41.3483942969,,,,,,,,,,,,,,,,,,,,,,,,,,,2019_Feb_14_1430,59.924282797021256,Cloud_Experiment_FR_REAL,001,20,
,,,,,,,,,,,,,,,,,,,,,,,,,6,18.134,,,,,,,,,,,,,,,,,,,,,,,,,2019_Feb_14_1430,59.924282797021256,Cloud_Experiment_FR_REAL,001,20,
,,,,,,,,,,,,,,,,,,,,,,,,,,,space,4.23042734445,,,,,,,,,,,,,,,,,,,,,,,2019_Feb_14_1430,59.924282797021256,Cloud_Experiment_FR_REAL,001,20,
pratique/fcloud_D0.8_30,0.8,0,0,0,0,0,,,,,,,,,,,,,,,,,,,,,,,1,space,31.9911983452,4,13.691,,,,,,,,,,,,,,,,,,2019_Feb_14_1430,59.924282797021256,Cloud_Experiment_FR_REAL,001,20,
pratique/fcloud65-35_D1.6_30,1.6,1,0,1,1,2,,,,,,,,,,,,,,,,,,,,,,,2,None,,3,5.38,,,,,,,,,,,,,,,,,,2019_Feb_14_1430,59.924282797021256,Cloud_Experiment_FR_REAL,001,20,
pratique/fcloud80-20_D1.5_30,1.5,2,0,2,2,8,,,,,,,,,,,,,,,,,,,,,,,2,None,,2,3.665,,,,,,,,,,,,,,,,,,2019_Feb_14_1430,59.924282797021256,Cloud_Experiment_FR_REAL,001,20,
pratique/fcloud80-20_D1.8_30,1.8,2,0,3,3,4,,,,,,,,,,,,,,,,,,,,,,,1,None,,2,3.316,,,,,,,,,,,,,,,,,,2019_Feb_14_1430,59.924282797021256,Cloud_Experiment_FR_REAL,001,20,
pratique/fcloud65-35_D1.3_30,1.3,1,0,4,4,6,,,,,,,,,,,,,,,,,,,,,,,None,None,,None,15.006,,,,,,,,,,,,,,,,,,2019_Feb_14_1430,59.924282797021256,Cloud_Experiment_FR_REAL,001,20,
pratique/fcloud65-35_D1.2_30,1.2,1,0,5,5,3,,,,,,,,,,,,,,,,,,,,,,,1,None,,4,4.598,,,,,,,,,,,,,,,,,,2019_Feb_14_1430,59.924282797021256,Cloud_Experiment_FR_REAL,001,20,
pratique/fcloud80-20_D1_30,1.0,2,0,6,6,9,,,,,,,,,,,,,,,,,,,,,,,1,space,7.64585342433,2,2.516,,,,,,,,,,,,,,,,,,2019_Feb_14_1430,59.924282797021256,Cloud_Experiment_FR_REAL,001,20,
pratique/fcloud65-35_D1.9_29,1.9,1,0,7,7,7,,,,,,,,,,,,,,,,,,,,,,,1,space,3.76096479956,3,5.848,,,,,,,,,,,,,,,,,,2019_Feb_14_1430,59.924282797021256,Cloud_Experiment_FR_REAL,001,20,
pratique/fcloud_D1.6_28,1.6,0,0,8,8,5,,,,,,,,,,,,,,,,,,,,,,,1,space,1.63826596813,4,3.017,,,,,,,,,,,,,,,,,,2019_Feb_14_1430,59.924282797021256,Cloud_Experiment_FR_REAL,001,20,
pratique/fcloud_D1.4_30,1.4,0,0,9,9,1,,,,,,,,,,,,,,,,,,,,,,,3,space,2.93611423543,3,3.25,,,,,,,,,,,,,,,,,,2019_Feb_14_1430,59.924282797021256,Cloud_Experiment_FR_REAL,001,20,
,,,,,,,,,,,,,,,,,,,,,,,,,,,,,,,,,,6,,,,,,,,,,,,,,,,,2019_Feb_14_1430,59.924282797021256,Cloud_Experiment_FR_REAL,001,20,
,,,,,,,,,,,,,,,,,,,,,,,,,,,,,,,,,,,6,,,,,,,,,,,,,,,,2019_Feb_14_1430,59.924282797021256,Cloud_Experiment_FR_REAL,001,20,
,,,,,,,,,,,,,,,,,,,,,,,,,,,,,,,,,,,,6,,,,,,,,,,,,,,,2019_Feb_14_1430,59.924282797021256,Cloud_Experiment_FR_REAL,001,20,
,,,,,,,,,,,,,,,,,,,,,,,,,,,,,,,,,,,,,4,,,,,,,,,,,,,,2019_Feb_14_1430,59.924282797021256,Cloud_Experiment_FR_REAL,001,20,
,,,,,,,,,,,,,,,,,,,,,,,,,,,,,,,,,,,,,,6,,,,,,,,,,,,,2019_Feb_14_1430,59.924282797021256,Cloud_Experiment_FR_REAL,001,20,
,,,,,,,,,,,,,,,,,,,,,,,,,,,,,,,,,,,,,,,6,,,,,,,,,,,,2019_Feb_14_1430,59.924282797021256,Cloud_Experiment_FR_REAL,001,20,
,,,,,,,,,,,,,,,,,,,,,,,,,,,,,,,,,,,,,,,,5,,,,,,,,,,,2019_Feb_14_1430,59.924282797021256,Cloud_Experiment_FR_REAL,001,20,
,,,,,,,,,,,,,,,,,,,,,,,,,,,,,,,,,,,,,,,,,7,,,,,,,,,,2019_Feb_14_1430,59.924282797021256,Cloud_Experiment_FR_REAL,001,20,
,,,,,,,,,,,,,,,,,,,,,,,,,,,,,,,,,,,,,,,,,,5,,,,,,,,,2019_Feb_14_1430,59.924282797021256,Cloud_Experiment_FR_REAL,001,20,
,,,,,,,,,,,,,,,,,,,,,,,,,,,,,,,,,,,,,,,,,,,1,,,,,,,,2019_Feb_14_1430,59.924282797021256,Cloud_Experiment_FR_REAL,001,20,
,,,,,,,,,,,,,,,,,,,,,,,,,,,,,,,,,,,,,,,,,,,,space,6.21257368985,,,,,,2019_Feb_14_1430,59.924282797021256,Cloud_Experiment_FR_REAL,001,20,
images/fcloud65-35_D0.8_3.tif,0.8,1,,,,,0,0,0,38,,,,,,,,,,,,,,,,,,,None,None,,None,150.139,,,,,,,,,,,,,,,,,,2019_Feb_14_1430,59.924282797021256,Cloud_Experiment_FR_REAL,001,20,
images/fcloud_D1.1_1.tif,1.1,0,,,,,0,1,1,9,,,,,,,,,,,,,,,,,,,2,space,1.84866006346,5,20.635,,,,,,,,,,,,,,,,,,2019_Feb_14_1430,59.924282797021256,Cloud_Experiment_FR_REAL,001,20,
images/fcloud80-20_D0.8_2.tif,0.8,2,,,,,0,2,2,73,,,,,,,,,,,,,,,,,,,2,space,3.84458925953,4,4.982,,,,,,,,,,,,,,,,,,2019_Feb_14_1430,59.924282797021256,Cloud_Experiment_FR_REAL,001,20,
images/fcloud80-20_D1_3.tif,1.0,2,,,,,0,3,3,80,,,,,,,,,,,,,,,,,,,1,space,5.27460782719,5,6.164,,,,,,,,,,,,,,,,,,2019_Feb_14_1430,59.924282797021256,Cloud_Experiment_FR_REAL,001,20,
images/fcloud80-20_D1.4_1.tif,1.4,2,,,,,0,4,4,90,,,,,,,,,,,,,,,,,,,None,None,,None,16.09,,,,,,,,,,,,,,,,,,2019_Feb_14_1430,59.924282797021256,Cloud_Experiment_FR_REAL,001,20,
images/fcloud80-20_D0.9_3.tif,0.9,2,,,,,0,5,5,77,,,,,,,,,,,,,,,,,,,2,space,1.74737060716,3,3.55,,,,,,,,,,,,,,,,,,2019_Feb_14_1430,59.924282797021256,Cloud_Experiment_FR_REAL,001,20,
images/fcloud80-20_D1.1_3.tif,1.1,2,,,,,0,6,6,83,,,,,,,,,,,,,,,,,,,1,None,,3,5.032,,,,,,,,,,,,,,,,,,2019_Feb_14_1430,59.924282797021256,Cloud_Experiment_FR_REAL,001,20,
images/fcloud65-35_D1.4_3.tif,1.4,1,,,,,0,7,7,56,,,,,,,,,,,,,,,,,,,2,space,5.85457581186,3,1.768,,,,,,,,,,,,,,,,,,2019_Feb_14_1430,59.924282797021256,Cloud_Experiment_FR_REAL,001,20,
images/fcloud80-20_D0.9_1.tif,0.9,2,,,,,0,8,8,75,,,,,,,,,,,,,,,,,,,2,space,3.15036271742,4,2.084,,,,,,,,,,,,,,,,,,2019_Feb_14_1430,59.924282797021256,Cloud_Experiment_FR_REAL,001,20,
images/fcloud_D1.4_1.tif,1.4,0,,,,,0,9,9,18,,,,,,,,,,,,,,,,,,,3,space,1.70214710617,4,1.702,,,,,,,,,,,,,,,,,,2019_Feb_14_1430,59.924282797021256,Cloud_Experiment_FR_REAL,001,20,
images/fcloud65-35_D1.7_2.tif,1.7,1,,,,,0,10,10,64,,,,,,,,,,,,,,,,,,,2,space,6.51687078088,3,3.533,,,,,,,,,,,,,,,,,,2019_Feb_14_1430,59.924282797021256,Cloud_Experiment_FR_REAL,001,20,
images/fcloud80-20_D1.3_3.tif,1.3,2,,,,,0,11,11,89,,,,,,,,,,,,,,,,,,,None,None,,None,13.257,,,,,,,,,,,,,,,,,,2019_Feb_14_1430,59.924282797021256,Cloud_Experiment_FR_REAL,001,20,
images/fcloud80-20_D1.9_1.tif,1.9,2,,,,,0,12,12,105,,,,,,,,,,,,,,,,,,,3,space,3.27452300806,3,3.783,,,,,,,,,,,,,,,,,,2019_Feb_14_1430,59.924282797021256,Cloud_Experiment_FR_REAL,001,20,
images/fcloud65-35_D1.2_2.tif,1.2,1,,,,,0,13,13,49,,,,,,,,,,,,,,,,,,,None,None,,None,14.306,,,,,,,,,,,,,,,,,,2019_Feb_14_1430,59.924282797021256,Cloud_Experiment_FR_REAL,001,20,
images/fcloud_D1_1.tif,1.0,0,,,,,0,14,14,6,,,,,,,,,,,,,,,,,,,2,space,1.06272914016,2,6.131,,,,,,,,,,,,,,,,,,2019_Feb_14_1430,59.924282797021256,Cloud_Experiment_FR_REAL,001,20,
images/fcloud65-35_D1.1_3.tif,1.1,1,,,,,0,15,15,47,,,,,,,,,,,,,,,,,,,None,None,,None,18.035,,,,,,,,,,,,,,,,,,2019_Feb_14_1430,59.924282797021256,Cloud_Experiment_FR_REAL,001,20,
images/fcloud65-35_D1.7_3.tif,1.7,1,,,,,0,16,16,65,,,,,,,,,,,,,,,,,,,None,None,,None,27.679,,,,,,,,,,,,,,,,,,2019_Feb_14_1430,59.924282797021256,Cloud_Experiment_FR_REAL,001,20,
images/fcloud_D0.9_3.tif,0.9,0,,,,,0,17,17,5,,,,,,,,,,,,,,,,,,,None,None,,None,37.136,,,,,,,,,,,,,,,,,,2019_Feb_14_1430,59.924282797021256,Cloud_Experiment_FR_REAL,001,20,
images/fcloud65-35_D1.5_3.tif,1.5,1,,,,,0,18,18,59,,,,,,,,,,,,,,,,,,,3,space,3.92210263011,3,4.482,,,,,,,,,,,,,,,,,,2019_Feb_14_1430,59.924282797021256,Cloud_Experiment_FR_REAL,001,20,
images/fcloud80-20_D1.1_1.tif,1.1,2,,,,,0,19,19,81,,,,,,,,,,,,,,,,,,,1,None,,2,1.851,,,,,,,,,,,,,,,,,,2019_Feb_14_1430,59.924282797021256,Cloud_Experiment_FR_REAL,001,20,
images/fcloud_D1_3.tif,1.0,0,,,,,0,20,20,8,,,,,,,,,,,,,,,,,,,1,space,4.90128801696,3,6.482,,,,,,,,,,,,,,,,,,2019_Feb_14_1430,59.924282797021256,Cloud_Experiment_FR_REAL,001,20,
images/fcloud80-20_D0.8_1.tif,0.8,2,,,,,0,21,21,72,,,,,,,,,,,,,,,,,,,2,space,5.94428514442,3,1.385,,,,,,,,,,,,,,,,,,2019_Feb_14_1430,59.924282797021256,Cloud_Experiment_FR_REAL,001,20,
images/fcloud80-20_D1_1.tif,1.0,2,,,,,0,22,22,78,,,,,,,,,,,,,,,,,,,1,space,5.00369400138,2,1.269,,,,,,,,,,,,,,,,,,2019_Feb_14_1430,59.924282797021256,Cloud_Experiment_FR_REAL,001,20,
images/fcloud65-35_D1.6_2.tif,1.6,1,,,,,0,23,23,61,,,,,,,,,,,,,,,,,,,1,space,6.98448118454,2,1.218,,,,,,,,,,,,,,,,,,2019_Feb_14_1430,59.924282797021256,Cloud_Experiment_FR_REAL,001,20,
images/fcloud_D0.9_2.tif,0.9,0,,,,,0,24,24,4,,,,,,,,,,,,,,,,,,,1,space,7.81152984913,2,1.318,,,,,,,,,,,,,,,,,,2019_Feb_14_1430,59.924282797021256,Cloud_Experiment_FR_REAL,001,20,
images/fcloud_D1.1_2.tif,1.1,0,,,,,0,25,25,10,,,,,,,,,,,,,,,,,,,None,None,,None,11.374,,,,,,,,,,,,,,,,,,2019_Feb_14_1430,59.924282797021256,Cloud_Experiment_FR_REAL,001,20,
images/fcloud65-35_D1.9_2.tif,1.9,1,,,,,0,26,26,70,,,,,,,,,,,,,,,,,,,None,None,,None,22.832,,,,,,,,,,,,,,,,,,2019_Feb_14_1430,59.924282797021256,Cloud_Experiment_FR_REAL,001,20,
images/fcloud_D1.2_3.tif,1.2,0,,,,,0,27,27,14,,,,,,,,,,,,,,,,,,,None,None,,None,32.173,,,,,,,,,,,,,,,,,,2019_Feb_14_1430,59.924282797021256,Cloud_Experiment_FR_REAL,001,20,
images/fcloud65-35_D0.9_3.tif,0.9,1,,,,,0,28,28,41,,,,,,,,,,,,,,,,,,,None,None,,None,41.465,,,,,,,,,,,,,,,,,,2019_Feb_14_1430,59.924282797021256,Cloud_Experiment_FR_REAL,001,20,
images/fcloud65-35_D0.8_2.tif,0.8,1,,,,,0,29,29,37,,,,,,,,,,,,,,,,,,,1,space,7.17291586558,2,2.4,,,,,,,,,,,,,,,,,,2019_Feb_14_1430,59.924282797021256,Cloud_Experiment_FR_REAL,001,20,
images/fcloud65-35_D1.2_1.tif,1.2,1,,,,,0,30,30,48,,,,,,,,,,,,,,,,,,,2,space,7.54650452678,2,2.218,,,,,,,,,,,,,,,,,,2019_Feb_14_1430,59.924282797021256,Cloud_Experiment_FR_REAL,001,20,
images/fcloud65-35_D1.2_3.tif,1.2,1,,,,,0,31,31,50,,,,,,,,,,,,,,,,,,,2,space,3.31273530881,2,1.334,,,,,,,,,,,,,,,,,,2019_Feb_14_1430,59.924282797021256,Cloud_Experiment_FR_REAL,001,20,
images/fcloud80-20_D1.2_2.tif,1.2,2,,,,,0,32,32,85,,,,,,,,,,,,,,,,,,,3,space,2.77555266087,4,2.283,,,,,,,,,,,,,,,,,,2019_Feb_14_1430,59.924282797021256,Cloud_Experiment_FR_REAL,001,20,
images/fcloud_D1.3_2.tif,1.3,0,,,,,0,33,33,16,,,,,,,,,,,,,,,,,,,1,space,7.23645926933,3,2.367,,,,,,,,,,,,,,,,,,2019_Feb_14_1430,59.924282797021256,Cloud_Experiment_FR_REAL,001,20,
images/fcloud65-35_D1.8_2.tif,1.8,1,,,,,0,34,34,67,,,,,,,,,,,,,,,,,,,None,None,,None,11.857,,,,,,,,,,,,,,,,,,2019_Feb_14_1430,59.924282797021256,Cloud_Experiment_FR_REAL,001,20,
images/fcloud65-35_D1.7_1.tif,1.7,1,,,,,0,35,35,63,,,,,,,,,,,,,,,,,,,1,space,4.63385331741,2,1.368,,,,,,,,,,,,,,,,,,2019_Feb_14_1430,59.924282797021256,Cloud_Experiment_FR_REAL,001,20,
images/fcloud_D1.2_2.tif,1.2,0,,,,,0,36,36,13,,,,,,,,,,,,,,,,,,,None,None,,None,12.84,,,,,,,,,,,,,,,,,,2019_Feb_14_1430,59.924282797021256,Cloud_Experiment_FR_REAL,001,20,
images/fcloud80-20_D1.7_3.tif,1.7,2,,,,,0,37,37,101,,,,,,,,,,,,,,,,,,,None,None,,None,22.682,,,,,,,,,,,,,,,,,,2019_Feb_14_1430,59.924282797021256,Cloud_Experiment_FR_REAL,001,20,
images/fcloud_D0.8_3.tif,0.8,0,,,,,0,38,38,2,,,,,,,,,,,,,,,,,,,2,space,2.22612572971,2,1.202,,,,,,,,,,,,,,,,,,2019_Feb_14_1430,59.924282797021256,Cloud_Experiment_FR_REAL,001,20,
images/fcloud80-20_D0.8_3.tif,0.8,2,,,,,0,39,39,74,,,,,,,,,,,,,,,,,,,None,None,,None,12.707,,,,,,,,,,,,,,,,,,2019_Feb_14_1430,59.924282797021256,Cloud_Experiment_FR_REAL,001,20,
images/fcloud_D1.6_2.tif,1.6,0,,,,,0,40,40,25,,,,,,,,,,,,,,,,,,,2,space,6.0566175367,2,1.168,,,,,,,,,,,,,,,,,,2019_Feb_14_1430,59.924282797021256,Cloud_Experiment_FR_REAL,001,20,
images/fcloud65-35_D1.1_2.tif,1.1,1,,,,,0,41,41,46,,,,,,,,,,,,,,,,,,,None,None,,None,10.876,,,,,,,,,,,,,,,,,,2019_Feb_14_1430,59.924282797021256,Cloud_Experiment_FR_REAL,001,20,
images/fcloud_D1.3_3.tif,1.3,0,,,,,0,42,42,17,,,,,,,,,,,,,,,,,,,None,None,,None,20.283,,,,,,,,,,,,,,,,,,2019_Feb_14_1430,59.924282797021256,Cloud_Experiment_FR_REAL,001,20,
images/fcloud80-20_D1.2_1.tif,1.2,2,,,,,0,43,43,84,,,,,,,,,,,,,,,,,,,None,None,,None,29.709,,,,,,,,,,,,,,,,,,2019_Feb_14_1430,59.924282797021256,Cloud_Experiment_FR_REAL,001,20,
images/fcloud80-20_D1.3_2.tif,1.3,2,,,,,0,44,44,88,,,,,,,,,,,,,,,,,,,1,space,5.36984942292,2,3.982,,,,,,,,,,,,,,,,,,2019_Feb_14_1430,59.924282797021256,Cloud_Experiment_FR_REAL,001,20,
images/fcloud80-20_D1.3_1.tif,1.3,2,,,,,0,45,45,87,,,,,,,,,,,,,,,,,,,None,None,,None,13.623,,,,,,,,,,,,,,,,,,2019_Feb_14_1430,59.924282797021256,Cloud_Experiment_FR_REAL,001,20,
images/fcloud80-20_D1_2.tif,1.0,2,,,,,0,46,46,79,,,,,,,,,,,,,,,,,,,2,space,6.56604274063,2,1.884,,,,,,,,,,,,,,,,,,2019_Feb_14_1430,59.924282797021256,Cloud_Experiment_FR_REAL,001,20,
images/fcloud_D1.2_1.tif,1.2,0,,,,,0,47,47,12,,,,,,,,,,,,,,,,,,,None,None,,None,11.741,,,,,,,,,,,,,,,,,,2019_Feb_14_1430,59.924282797021256,Cloud_Experiment_FR_REAL,001,20,
images/fcloud_D1.5_2.tif,1.5,0,,,,,0,48,48,22,,,,,,,,,,,,,,,,,,,None,None,,None,21.532,,,,,,,,,,,,,,,,,,2019_Feb_14_1430,59.924282797021256,Cloud_Experiment_FR_REAL,001,20,
images/fcloud80-20_D1.1_2.tif,1.1,2,,,,,0,49,49,82,,,,,,,,,,,,,,,,,,,None,None,,None,31.409,,,,,,,,,,,,,,,,,,2019_Feb_14_1430,59.924282797021256,Cloud_Experiment_FR_REAL,001,20,
images/fcloud80-20_D1.4_2.tif,1.4,2,,,,,0,50,50,91,,,,,,,,,,,,,,,,,,,2,space,3.43453608564,4,2.167,,,,,,,,,,,,,,,,,,2019_Feb_14_1430,59.924282797021256,Cloud_Experiment_FR_REAL,001,20,
images/fcloud_D1.7_2.tif,1.7,0,,,,,0,51,51,28,,,,,,,,,,,,,,,,,,,None,None,,None,11.691,,,,,,,,,,,,,,,,,,2019_Feb_14_1430,59.924282797021256,Cloud_Experiment_FR_REAL,001,20,
images/fcloud_D1.8_3.tif,1.8,0,,,,,0,52,52,32,,,,,,,,,,,,,,,,,,,2,space,2.98866919309,2,1.202,,,,,,,,,,,,,,,,,,2019_Feb_14_1430,59.924282797021256,Cloud_Experiment_FR_REAL,001,20,
images/fcloud80-20_D1.6_3.tif,1.6,2,,,,,0,53,53,98,,,,,,,,,,,,,,,,,,,None,None,,None,15.273,,,,,,,,,,,,,,,,,,2019_Feb_14_1430,59.924282797021256,Cloud_Experiment_FR_REAL,001,20,
images/fcloud65-35_D1.3_3.tif,1.3,1,,,,,0,54,54,53,,,,,,,,,,,,,,,,,,,None,None,,None,24.93,,,,,,,,,,,,,,,,,,2019_Feb_14_1430,59.924282797021256,Cloud_Experiment_FR_REAL,001,20,
images/fcloud_D1_2.tif,1.0,0,,,,,0,55,55,7,,,,,,,,,,,,,,,,,,,2,space,5.68663445939,3,1.235,,,,,,,,,,,,,,,,,,2019_Feb_14_1430,59.924282797021256,Cloud_Experiment_FR_REAL,001,20,
images/fcloud_D1.7_1.tif,1.7,0,,,,,0,56,56,27,,,,,,,,,,,,,,,,,,,3,space,3.63316859573,3,1.204,,,,,,,,,,,,,,,,,,2019_Feb_14_1430,59.924282797021256,Cloud_Experiment_FR_REAL,001,20,
images/fcloud65-35_D1_3.tif,1.0,1,,,,,0,57,57,44,,,,,,,,,,,,,,,,,,,2,space,6.06463834154,2,2.717,,,,,,,,,,,,,,,,,,2019_Feb_14_1430,59.924282797021256,Cloud_Experiment_FR_REAL,001,20,
images/fcloud80-20_D1.9_2.tif,1.9,2,,,,,0,58,58,106,,,,,,,,,,,,,,,,,,,None,None,,None,12.274,,,,,,,,,,,,,,,,,,2019_Feb_14_1430,59.924282797021256,Cloud_Experiment_FR_REAL,001,20,
images/fcloud65-35_D1.1_1.tif,1.1,1,,,,,0,59,59,45,,,,,,,,,,,,,,,,,,,None,None,,None,22.284,,,,,,,,,,,,,,,,,,2019_Feb_14_1430,59.924282797021256,Cloud_Experiment_FR_REAL,001,20,
images/fcloud80-20_D1.5_2.tif,1.5,2,,,,,0,60,60,94,,,,,,,,,,,,,,,,,,,1,space,7.34538244686,2,5.43,,,,,,,,,,,,,,,,,,2019_Feb_14_1430,59.924282797021256,Cloud_Experiment_FR_REAL,001,20,
images/fcloud65-35_D1_2.tif,1.0,1,,,,,0,61,61,43,,,,,,,,,,,,,,,,,,,2,space,2.9560534124,2,2.001,,,,,,,,,,,,,,,,,,2019_Feb_14_1430,59.924282797021256,Cloud_Experiment_FR_REAL,001,20,
images/fcloud80-20_D1.8_2.tif,1.8,2,,,,,0,62,62,103,,,,,,,,,,,,,,,,,,,None,None,,None,11.592,,,,,,,,,,,,,,,,,,2019_Feb_14_1430,59.924282797021256,Cloud_Experiment_FR_REAL,001,20,
images/fcloud80-20_D1.4_3.tif,1.4,2,,,,,0,63,63,92,,,,,,,,,,,,,,,,,,,None,None,,None,21.017,,,,,,,,,,,,,,,,,,2019_Feb_14_1430,59.924282797021256,Cloud_Experiment_FR_REAL,001,20,
images/fcloud_D1.9_3.tif,1.9,0,,,,,0,64,64,35,,,,,,,,,,,,,,,,,,,None,None,,None,30.508,,,,,,,,,,,,,,,,,,2019_Feb_14_1430,59.924282797021256,Cloud_Experiment_FR_REAL,001,20,
images/fcloud80-20_D1.2_3.tif,1.2,2,,,,,0,65,65,86,,,,,,,,,,,,,,,,,,,1,space,7.18005198127,2,1.602,,,,,,,,,,,,,,,,,,2019_Feb_14_1430,59.924282797021256,Cloud_Experiment_FR_REAL,001,20,
images/fcloud65-35_D0.9_2.tif,0.9,1,,,,,0,66,66,40,,,,,,,,,,,,,,,,,,,None,None,,None,11.727,,,,,,,,,,,,,,,,,,2019_Feb_14_1430,59.924282797021256,Cloud_Experiment_FR_REAL,001,20,
images/fcloud80-20_D1.8_3.tif,1.8,2,,,,,0,67,67,104,,,,,,,,,,,,,,,,,,,1,space,2.27768907469,3,1.835,,,,,,,,,,,,,,,,,,2019_Feb_14_1430,59.924282797021256,Cloud_Experiment_FR_REAL,001,20,
images/fcloud65-35_D1.8_1.tif,1.8,1,,,,,0,68,68,66,,,,,,,,,,,,,,,,,,,None,None,,None,11.409,,,,,,,,,,,,,,,,,,2019_Feb_14_1430,59.924282797021256,Cloud_Experiment_FR_REAL,001,20,
images/fcloud_D1.9_1.tif,1.9,0,,,,,0,69,69,33,,,,,,,,,,,,,,,,,,,None,None,,None,20.716,,,,,,,,,,,,,,,,,,2019_Feb_14_1430,59.924282797021256,Cloud_Experiment_FR_REAL,001,20,
images/fcloud65-35_D1.3_1.tif,1.3,1,,,,,0,70,70,51,,,,,,,,,,,,,,,,,,,2,space,1.90315815015,3,1.701,,,,,,,,,,,,,,,,,,2019_Feb_14_1430,59.924282797021256,Cloud_Experiment_FR_REAL,001,20,
images/fcloud65-35_D1_1.tif,1.0,1,,,,,0,71,71,42,,,,,,,,,,,,,,,,,,,None,None,,None,11.191,,,,,,,,,,,,,,,,,,2019_Feb_14_1430,59.924282797021256,Cloud_Experiment_FR_REAL,001,20,
images/fcloud_D0.8_1.tif,0.8,0,,,,,0,72,72,0,,,,,,,,,,,,,,,,,,,None,None,,None,20.783,,,,,,,,,,,,,,,,,,2019_Feb_14_1430,59.924282797021256,Cloud_Experiment_FR_REAL,001,20,
images/fcloud_D1.9_2.tif,1.9,0,,,,,0,73,73,34,,,,,,,,,,,,,,,,,,,None,None,,None,30.242,,,,,,,,,,,,,,,,,,2019_Feb_14_1430,59.924282797021256,Cloud_Experiment_FR_REAL,001,20,
images/fcloud65-35_D1.5_2.tif,1.5,1,,,,,0,74,74,58,,,,,,,,,,,,,,,,,,,1,space,8.39304514023,1,1.618,,,,,,,,,,,,,,,,,,2019_Feb_14_1430,59.924282797021256,Cloud_Experiment_FR_REAL,001,20,
images/fcloud_D1.5_1.tif,1.5,0,,,,,0,75,75,21,,,,,,,,,,,,,,,,,,,2,space,3.49019593731,2,1.418,,,,,,,,,,,,,,,,,,2019_Feb_14_1430,59.924282797021256,Cloud_Experiment_FR_REAL,001,20,
images/fcloud80-20_D1.8_1.tif,1.8,2,,,,,0,76,76,102,,,,,,,,,,,,,,,,,,,None,None,,None,12.457,,,,,,,,,,,,,,,,,,2019_Feb_14_1430,59.924282797021256,Cloud_Experiment_FR_REAL,001,20,
images/fcloud80-20_D1.9_3.tif,1.9,2,,,,,0,77,77,107,,,,,,,,,,,,,,,,,,,None,None,,None,21.849,,,,,,,,,,,,,,,,,,2019_Feb_14_1430,59.924282797021256,Cloud_Experiment_FR_REAL,001,20,
images/fcloud65-35_D1.4_1.tif,1.4,1,,,,,0,78,78,54,,,,,,,,,,,,,,,,,,,None,None,,None,31.141,,,,,,,,,,,,,,,,,,2019_Feb_14_1430,59.924282797021256,Cloud_Experiment_FR_REAL,001,20,
images/fcloud_D1.6_1.tif,1.6,0,,,,,0,79,79,24,,,,,,,,,,,,,,,,,,,1,space,6.88741674877,4,1.569,,,,,,,,,,,,,,,,,,2019_Feb_14_1430,59.924282797021256,Cloud_Experiment_FR_REAL,001,20,
images/fcloud_D1.1_3.tif,1.1,0,,,,,0,80,80,11,,,,,,,,,,,,,,,,,,,None,None,,None,11.008,,,,,,,,,,,,,,,,,,2019_Feb_14_1430,59.924282797021256,Cloud_Experiment_FR_REAL,001,20,
images/fcloud65-35_D1.9_3.tif,1.9,1,,,,,0,81,81,71,,,,,,,,,,,,,,,,,,,None,None,,None,21.633,,,,,,,,,,,,,,,,,,2019_Feb_14_1430,59.924282797021256,Cloud_Experiment_FR_REAL,001,20,
images/fcloud65-35_D1.5_1.tif,1.5,1,,,,,0,82,82,57,,,,,,,,,,,,,,,,,,,None,None,,None,30.874,,,,,,,,,,,,,,,,,,2019_Feb_14_1430,59.924282797021256,Cloud_Experiment_FR_REAL,001,20,
images/fcloud65-35_D1.4_2.tif,1.4,1,,,,,0,83,83,55,,,,,,,,,,,,,,,,,,,2,space,6.3246737291,4,3.399,,,,,,,,,,,,,,,,,,2019_Feb_14_1430,59.924282797021256,Cloud_Experiment_FR_REAL,001,20,
images/fcloud_D1.8_2.tif,1.8,0,,,,,0,84,84,31,,,,,,,,,,,,,,,,,,,None,None,,None,13.557,,,,,,,,,,,,,,,,,,2019_Feb_14_1430,59.924282797021256,Cloud_Experiment_FR_REAL,001,20,
images/fcloud80-20_D1.7_1.tif,1.7,2,,,,,0,85,85,99,,,,,,,,,,,,,,,,,,,None,None,,None,25.079,,,,,,,,,,,,,,,,,,2019_Feb_14_1430,59.924282797021256,Cloud_Experiment_FR_REAL,001,20,
images/fcloud_D1.3_1.tif,1.3,0,,,,,0,86,86,15,,,,,,,,,,,,,,,,,,,3,space,6.28883430766,3,3.384,,,,,,,,,,,,,,,,,,2019_Feb_14_1430,59.924282797021256,Cloud_Experiment_FR_REAL,001,20,
images/fcloud80-20_D1.6_2.tif,1.6,2,,,,,0,87,87,97,,,,,,,,,,,,,,,,,,,1,space,7.53205751663,2,0.935,,,,,,,,,,,,,,,,,,2019_Feb_14_1430,59.924282797021256,Cloud_Experiment_FR_REAL,001,20,
images/fcloud65-35_D0.9_1.tif,0.9,1,,,,,0,88,88,39,,,,,,,,,,,,,,,,,,,1,space,5.69918357738,2,1.901,,,,,,,,,,,,,,,,,,2019_Feb_14_1430,59.924282797021256,Cloud_Experiment_FR_REAL,001,20,
images/fcloud65-35_D1.6_1.tif,1.6,1,,,,,0,89,89,60,,,,,,,,,,,,,,,,,,,None,None,,None,11.376,,,,,,,,,,,,,,,,,,2019_Feb_14_1430,59.924282797021256,Cloud_Experiment_FR_REAL,001,20,
images/fcloud80-20_D1.7_2.tif,1.7,2,,,,,0,90,90,100,,,,,,,,,,,,,,,,,,,None,None,,None,20.935,,,,,,,,,,,,,,,,,,2019_Feb_14_1430,59.924282797021256,Cloud_Experiment_FR_REAL,001,20,
images/fcloud_D1.4_3.tif,1.4,0,,,,,0,91,91,20,,,,,,,,,,,,,,,,,,,None,None,,None,30.607,,,,,,,,,,,,,,,,,,2019_Feb_14_1430,59.924282797021256,Cloud_Experiment_FR_REAL,001,20,
images/fcloud80-20_D1.6_1.tif,1.6,2,,,,,0,92,92,96,,,,,,,,,,,,,,,,,,,1,space,2.75566540347,3,0.985,,,,,,,,,,,,,,,,,,2019_Feb_14_1430,59.924282797021256,Cloud_Experiment_FR_REAL,001,20,
images/fcloud_D1.8_1.tif,1.8,0,,,,,0,93,93,30,,,,,,,,,,,,,,,,,,,None,None,,None,10.275,,,,,,,,,,,,,,,,,,2019_Feb_14_1430,59.924282797021256,Cloud_Experiment_FR_REAL,001,20,
images/fcloud65-35_D1.8_3.tif,1.8,1,,,,,0,94,94,68,,,,,,,,,,,,,,,,,,,None,None,,None,19.834,,,,,,,,,,,,,,,,,,2019_Feb_14_1430,59.924282797021256,Cloud_Experiment_FR_REAL,001,20,
images/fcloud_D0.8_2.tif,0.8,0,,,,,0,95,95,1,,,,,,,,,,,,,,,,,,,2,space,3.00847677188,2,0.535,,,,,,,,,,,,,,,,,,2019_Feb_14_1430,59.924282797021256,Cloud_Experiment_FR_REAL,001,20,
images/fcloud_D1.6_3.tif,1.6,0,,,,,0,96,96,26,,,,,,,,,,,,,,,,,,,1,space,7.74542130943,2,0.436,,,,,,,,,,,,,,,,,,2019_Feb_14_1430,59.924282797021256,Cloud_Experiment_FR_REAL,001,20,
images/fcloud_D1.5_3.tif,1.5,0,,,,,0,97,97,23,,,,,,,,,,,,,,,,,,,None,None,,None,10.045,,,,,,,,,,,,,,,,,,2019_Feb_14_1430,59.924282797021256,Cloud_Experiment_FR_REAL,001,20,
images/fcloud_D0.9_1.tif,0.9,0,,,,,0,98,98,3,,,,,,,,,,,,,,,,,,,1,space,4.00535902649,1,0.984,,,,,,,,,,,,,,,,,,2019_Feb_14_1430,59.924282797021256,Cloud_Experiment_FR_REAL,001,20,
images/fcloud65-35_D1.3_2.tif,1.3,1,,,,,0,99,99,52,,,,,,,,,,,,,,,,,,,2,space,4.69691453729,2,3.982,,,,,,,,,,,,,,,,,,2019_Feb_14_1430,59.924282797021256,Cloud_Experiment_FR_REAL,001,20,
images/fcloud80-20_D0.9_2.tif,0.9,2,,,,,0,100,100,76,,,,,,,,,,,,,,,,,,,None,None,,None,13.391,,,,,,,,,,,,,,,,,,2019_Feb_14_1430,59.924282797021256,Cloud_Experiment_FR_REAL,001,20,
images/fcloud80-20_D1.5_1.tif,1.5,2,,,,,0,101,101,93,,,,,,,,,,,,,,,,,,,None,None,,None,22.915,,,,,,,,,,,,,,,,,,2019_Feb_14_1430,59.924282797021256,Cloud_Experiment_FR_REAL,001,20,
images/fcloud65-35_D0.8_1.tif,0.8,1,,,,,0,102,102,36,,,,,,,,,,,,,,,,,,,None,None,,None,32.607,,,,,,,,,,,,,,,,,,2019_Feb_14_1430,59.924282797021256,Cloud_Experiment_FR_REAL,001,20,
images/fcloud65-35_D1.9_1.tif,1.9,1,,,,,0,103,103,69,,,,,,,,,,,,,,,,,,,None,None,,None,41.998,,,,,,,,,,,,,,,,,,2019_Feb_14_1430,59.924282797021256,Cloud_Experiment_FR_REAL,001,20,
images/fcloud_D1.4_2.tif,1.4,0,,,,,0,104,104,19,,,,,,,,,,,,,,,,,,,3,space,3.65392049417,3,1.568,,,,,,,,,,,,,,,,,,2019_Feb_14_1430,59.924282797021256,Cloud_Experiment_FR_REAL,001,20,
images/fcloud65-35_D1.6_3.tif,1.6,1,,,,,0,105,105,62,,,,,,,,,,,,,,,,,,,1,space,7.64408867247,3,0.502,,,,,,,,,,,,,,,,,,2019_Feb_14_1430,59.924282797021256,Cloud_Experiment_FR_REAL,001,20,
images/fcloud80-20_D1.5_3.tif,1.5,2,,,,,0,106,106,95,,,,,,,,,,,,,,,,,,,None,None,,None,14.089,,,,,,,,,,,,,,,,,,2019_Feb_14_1430,59.924282797021256,Cloud_Experiment_FR_REAL,001,20,
images/fcloud_D1.7_3.tif,1.7,0,,,,,0,107,107,29,,,,,,,,,,,,,,,,,,,2,space,1.94137867575,4,0.934,,,,,,,,,,,,,,,,,,2019_Feb_14_1430,59.924282797021256,Cloud_Experiment_FR_REAL,001,20,
,,,,,,,,,,,,,,,,,,,,,,,,,,,,,,,,,,,,,,,,,,,,,,space,3.73172584813,,,,2019_Feb_14_1430,59.924282797021256,Cloud_Experiment_FR_REAL,001,20,
,,,,,,,,,,,,,,,,,,,,,,,,,4,14.251,,,,,,,,,,,,,,,,,,,,,,,,,2019_Feb_14_1430,59.924282797021256,Cloud_Experiment_FR_REAL,001,20,
,,,,,,,,,,,,,,,,,,,,,,,,,,,,,,,,,,5,,,,,,,,,,,,,,,,,2019_Feb_14_1430,59.924282797021256,Cloud_Experiment_FR_REAL,001,20,
,,,,,,,,,,,,,,,,,,,,,,,,,,,,,,,,,,,5,,,,,,,,,,,,,,,,2019_Feb_14_1430,59.924282797021256,Cloud_Experiment_FR_REAL,001,20,
,,,,,,,,,,,,,,,,,,,,,,,,,,,,,,,,,,,,5,,,,,,,,,,,,,,,2019_Feb_14_1430,59.924282797021256,Cloud_Experiment_FR_REAL,001,20,
,,,,,,,,,,,,,,,,,,,,,,,,,,,,,,,,,,,,,4,,,,,,,,,,,,,,2019_Feb_14_1430,59.924282797021256,Cloud_Experiment_FR_REAL,001,20,
,,,,,,,,,,,,,,,,,,,,,,,,,,,,,,,,,,,,,,4,,,,,,,,,,,,,2019_Feb_14_1430,59.924282797021256,Cloud_Experiment_FR_REAL,001,20,
,,,,,,,,,,,,,,,,,,,,,,,,,,,,,,,,,,,,,,,5,,,,,,,,,,,,2019_Feb_14_1430,59.924282797021256,Cloud_Experiment_FR_REAL,001,20,
,,,,,,,,,,,,,,,,,,,,,,,,,,,,,,,,,,,,,,,,6,,,,,,,,,,,2019_Feb_14_1430,59.924282797021256,Cloud_Experiment_FR_REAL,001,20,
,,,,,,,,,,,,,,,,,,,,,,,,,,,,,,,,,,,,,,,,,7,,,,,,,,,,2019_Feb_14_1430,59.924282797021256,Cloud_Experiment_FR_REAL,001,20,
,,,,,,,,,,,,,,,,,,,,,,,,,,,,,,,,,,,,,,,,,,3,,,,,,,,,2019_Feb_14_1430,59.924282797021256,Cloud_Experiment_FR_REAL,001,20,
,,,,,,,,,,,,,,,,,,,,,,,,,,,,,,,,,,,,,,,,,,,3,,,,,,,,2019_Feb_14_1430,59.924282797021256,Cloud_Experiment_FR_REAL,001,20,
,,,,,,,,,,,,,,,,,,,,,,,,,,,,,,,,,,,,,,,,,,,,,,,,space,370.628735383,,2019_Feb_14_1430,59.924282797021256,Cloud_Experiment_FR_REAL,001,20,
images/fcloud_D1.1_6.tif,1.1,0,,,,,,,,,0,0,0,11,,,,,,,,,,,,,,,2,None,,3,5.764,,,,,,,,,,,,,,,,,,2019_Feb_14_1430,59.924282797021256,Cloud_Experiment_FR_REAL,001,20,
images/fcloud65-35_D0.8_5.tif,0.8,1,,,,,,,,,0,1,1,37,,,,,,,,,,,,,,,None,None,,None,15.472,,,,,,,,,,,,,,,,,,2019_Feb_14_1430,59.924282797021256,Cloud_Experiment_FR_REAL,001,20,
images/fcloud_D1.9_5.tif,1.9,0,,,,,,,,,0,2,2,34,,,,,,,,,,,,,,,1,space,5.76955517766,4,0.752,,,,,,,,,,,,,,,,,,2019_Feb_14_1430,59.924282797021256,Cloud_Experiment_FR_REAL,001,20,
images/fcloud_D1.2_5.tif,1.2,0,,,,,,,,,0,3,3,13,,,,,,,,,,,,,,,2,space,6.08335560907,3,3.749,,,,,,,,,,,,,,,,,,2019_Feb_14_1430,59.924282797021256,Cloud_Experiment_FR_REAL,001,20,
images/fcloud80-20_D1.6_5.tif,1.6,2,,,,,,,,,0,4,4,97,,,,,,,,,,,,,,,None,None,,None,13.14,,,,,,,,,,,,,,,,,,2019_Feb_14_1430,59.924282797021256,Cloud_Experiment_FR_REAL,001,20,
images/fcloud80-20_D1.3_6.tif,1.3,2,,,,,,,,,0,5,5,89,,,,,,,,,,,,,,,1,space,5.16591957296,1,1.119,,,,,,,,,,,,,,,,,,2019_Feb_14_1430,59.924282797021256,Cloud_Experiment_FR_REAL,001,20,
images/fcloud_D1.8_5.tif,1.8,0,,,,,,,,,0,6,6,31,,,,,,,,,,,,,,,None,None,,None,10.645,,,,,,,,,,,,,,,,,,2019_Feb_14_1430,59.924282797021256,Cloud_Experiment_FR_REAL,001,20,
images/fcloud80-20_D1.5_5.tif,1.5,2,,,,,,,,,0,7,7,94,,,,,,,,,,,,,,,None,None,,None,20.284,,,,,,,,,,,,,,,,,,2019_Feb_14_1430,59.924282797021256,Cloud_Experiment_FR_REAL,001,20,
images/fcloud_D1.4_6.tif,1.4,0,,,,,,,,,0,8,8,20,,,,,,,,,,,,,,,None,None,,None,29.794,,,,,,,,,,,,,,,,,,2019_Feb_14_1430,59.924282797021256,Cloud_Experiment_FR_REAL,001,20,
images/fcloud80-20_D1.1_6.tif,1.1,2,,,,,,,,,0,9,9,83,,,,,,,,,,,,,,,1,space,4.71015505964,2,1.068,,,,,,,,,,,,,,,,,,2019_Feb_14_1430,59.924282797021256,Cloud_Experiment_FR_REAL,001,20,
images/fcloud80-20_D1.9_4.tif,1.9,2,,,,,,,,,0,10,10,105,,,,,,,,,,,,,,,None,None,,None,10.494,,,,,,,,,,,,,,,,,,2019_Feb_14_1430,59.924282797021256,Cloud_Experiment_FR_REAL,001,20,
images/fcloud_D1_5.tif,1.0,0,,,,,,,,,0,11,11,7,,,,,,,,,,,,,,,1,space,3.99705908963,3,1.085,,,,,,,,,,,,,,,,,,2019_Feb_14_1430,59.924282797021256,Cloud_Experiment_FR_REAL,001,20,
images/fcloud80-20_D0.8_4.tif,0.8,2,,,,,,,,,0,12,12,72,,,,,,,,,,,,,,,None,None,,None,10.892,,,,,,,,,,,,,,,,,,2019_Feb_14_1430,59.924282797021256,Cloud_Experiment_FR_REAL,001,20,
images/fcloud80-20_D1.4_4.tif,1.4,2,,,,,,,,,0,13,13,90,,,,,,,,,,,,,,,None,None,,None,20.499,,,,,,,,,,,,,,,,,,2019_Feb_14_1430,59.924282797021256,Cloud_Experiment_FR_REAL,001,20,
images/fcloud_D1.4_5.tif,1.4,0,,,,,,,,,0,14,14,19,,,,,,,,,,,,,,,1,space,5.65581992851,2,0.785,,,,,,,,,,,,,,,,,,2019_Feb_14_1430,59.924282797021256,Cloud_Experiment_FR_REAL,001,20,
images/fcloud_D1.3_4.tif,1.3,0,,,,,,,,,0,15,15,15,,,,,,,,,,,,,,,3,space,2.76906117052,3,0.436,,,,,,,,,,,,,,,,,,2019_Feb_14_1430,59.924282797021256,Cloud_Experiment_FR_REAL,001,20,
images/fcloud65-35_D1.4_5.tif,1.4,1,,,,,,,,,0,16,16,55,,,,,,,,,,,,,,,1,space,3.48448786727,2,2.467,,,,,,,,,,,,,,,,,,2019_Feb_14_1430,59.924282797021256,Cloud_Experiment_FR_REAL,001,20,
images/fcloud80-20_D1.6_4.tif,1.6,2,,,,,,,,,0,17,17,96,,,,,,,,,,,,,,,1,space,5.99806715208,3,4.565,,,,,,,,,,,,,,,,,,2019_Feb_14_1430,59.924282797021256,Cloud_Experiment_FR_REAL,001,20,
images/fcloud65-35_D1.3_4.tif,1.3,1,,,,,,,,,0,18,18,51,,,,,,,,,,,,,,,1,space,7.44436636515,2,0.419,,,,,,,,,,,,,,,,,,2019_Feb_14_1430,59.924282797021256,Cloud_Experiment_FR_REAL,001,20,
images/fcloud_D1.5_4.tif,1.5,0,,,,,,,,,0,19,19,21,,,,,,,,,,,,,,,None,None,,None,10.026,,,,,,,,,,,,,,,,,,2019_Feb_14_1430,59.924282797021256,Cloud_Experiment_FR_REAL,001,20,
images/fcloud65-35_D1.7_4.tif,1.7,1,,,,,,,,,0,20,20,63,,,,,,,,,,,,,,,None,None,,None,19.301,,,,,,,,,,,,,,,,,,2019_Feb_14_1430,59.924282797021256,Cloud_Experiment_FR_REAL,001,20,
images/fcloud_D1.1_5.tif,1.1,0,,,,,,,,,0,21,21,10,,,,,,,,,,,,,,,1,space,8.29144827885,2,1.951,,,,,,,,,,,,,,,,,,2019_Feb_14_1430,59.924282797021256,Cloud_Experiment_FR_REAL,001,20,
images/fcloud80-20_D1.9_5.tif,1.9,2,,,,,,,,,0,22,22,106,,,,,,,,,,,,,,,2,space,5.77641216133,3,0.418,,,,,,,,,,,,,,,,,,2019_Feb_14_1430,59.924282797021256,Cloud_Experiment_FR_REAL,001,20,
images/fcloud80-20_D1.7_4.tif,1.7,2,,,,,,,,,0,23,23,99,,,,,,,,,,,,,,,None,None,,None,9.694,,,,,,,,,,,,,,,,,,2019_Feb_14_1430,59.924282797021256,Cloud_Experiment_FR_REAL,001,20,
images/fcloud_D1_4.tif,1.0,0,,,,,,,,,0,24,24,6,,,,,,,,,,,,,,,1,space,8.17728893404,2,1.101,,,,,,,,,,,,,,,,,,2019_Feb_14_1430,59.924282797021256,Cloud_Experiment_FR_REAL,001,20,
images/fcloud_D1.2_4.tif,1.2,0,,,,,,,,,0,25,25,12,,,,,,,,,,,,,,,2,space,4.09407983071,2,0.469,,,,,,,,,,,,,,,,,,2019_Feb_14_1430,59.924282797021256,Cloud_Experiment_FR_REAL,001,20,
images/fcloud80-20_D1_6.tif,1.0,2,,,,,,,,,0,26,26,80,,,,,,,,,,,,,,,None,None,,None,9.71,,,,,,,,,,,,,,,,,,2019_Feb_14_1430,59.924282797021256,Cloud_Experiment_FR_REAL,001,20,
images/fcloud65-35_D1.5_6.tif,1.5,1,,,,,,,,,0,27,27,59,,,,,,,,,,,,,,,1,space,4.61657900311,2,2.05,,,,,,,,,,,,,,,,,,2019_Feb_14_1430,59.924282797021256,Cloud_Experiment_FR_REAL,001,20,
images/fcloud80-20_D1.4_5.tif,1.4,2,,,,,,,,,0,28,28,91,,,,,,,,,,,,,,,2,space,6.42694451698,3,1.019,,,,,,,,,,,,,,,,,,2019_Feb_14_1430,59.924282797021256,Cloud_Experiment_FR_REAL,001,20,
images/fcloud65-35_D1.7_6.tif,1.7,1,,,,,,,,,0,29,29,65,,,,,,,,,,,,,,,None,None,,None,11.491,,,,,,,,,,,,,,,,,,2019_Feb_14_1430,59.924282797021256,Cloud_Experiment_FR_REAL,001,20,
images/fcloud65-35_D0.9_6.tif,0.9,1,,,,,,,,,0,30,30,41,,,,,,,,,,,,,,,None,None,,None,20.849,,,,,,,,,,,,,,,,,,2019_Feb_14_1430,59.924282797021256,Cloud_Experiment_FR_REAL,001,20,
images/fcloud65-35_D1_6.tif,1.0,1,,,,,,,,,0,31,31,44,,,,,,,,,,,,,,,1,None,,1,0.552,,,,,,,,,,,,,,,,,,2019_Feb_14_1430,59.924282797021256,Cloud_Experiment_FR_REAL,001,20,
images/fcloud_D1_6.tif,1.0,0,,,,,,,,,0,32,32,8,,,,,,,,,,,,,,,None,None,,None,12.174,,,,,,,,,,,,,,,,,,2019_Feb_14_1430,59.924282797021256,Cloud_Experiment_FR_REAL,001,20,
images/fcloud65-35_D1.6_6.tif,1.6,1,,,,,,,,,0,33,33,62,,,,,,,,,,,,,,,1,space,2.63523509805,2,0.42,,,,,,,,,,,,,,,,,,2019_Feb_14_1430,59.924282797021256,Cloud_Experiment_FR_REAL,001,20,
images/fcloud65-35_D1.8_5.tif,1.8,1,,,,,,,,,0,34,34,67,,,,,,,,,,,,,,,1,None,,1,0.718,,,,,,,,,,,,,,,,,,2019_Feb_14_1430,59.924282797021256,Cloud_Experiment_FR_REAL,001,20,
images/fcloud_D1.7_6.tif,1.7,0,,,,,,,,,0,35,35,29,,,,,,,,,,,,,,,None,None,,None,10.177,,,,,,,,,,,,,,,,,,2019_Feb_14_1430,59.924282797021256,Cloud_Experiment_FR_REAL,001,20,
images/fcloud_D1.8_6.tif,1.8,0,,,,,,,,,0,36,36,32,,,,,,,,,,,,,,,3,space,3.82650428003,3,6.83,,,,,,,,,,,,,,,,,,2019_Feb_14_1430,59.924282797021256,Cloud_Experiment_FR_REAL,001,20,
images/fcloud_D1.9_6.tif,1.9,0,,,,,,,,,0,37,37,35,,,,,,,,,,,,,,,1,space,4.86798391625,2,0.553,,,,,,,,,,,,,,,,,,2019_Feb_14_1430,59.924282797021256,Cloud_Experiment_FR_REAL,001,20,
images/fcloud_D0.8_6.tif,0.8,0,,,,,,,,,0,38,38,2,,,,,,,,,,,,,,,None,None,,None,10.11,,,,,,,,,,,,,,,,,,2019_Feb_14_1430,59.924282797021256,Cloud_Experiment_FR_REAL,001,20,
images/fcloud80-20_D1.5_4.tif,1.5,2,,,,,,,,,0,39,39,93,,,,,,,,,,,,,,,1,space,6.5523498496,2,2.118,,,,,,,,,,,,,,,,,,2019_Feb_14_1430,59.924282797021256,Cloud_Experiment_FR_REAL,001,20,
images/fcloud_D0.8_5.tif,0.8,0,,,,,,,,,0,40,40,1,,,,,,,,,,,,,,,1,space,5.45360034049,1,1.035,,,,,,,,,,,,,,,,,,2019_Feb_14_1430,59.924282797021256,Cloud_Experiment_FR_REAL,001,20,
images/fcloud_D1.5_6.tif,1.5,0,,,,,,,,,0,41,41,23,,,,,,,,,,,,,,,None,None,,None,10.393,,,,,,,,,,,,,,,,,,2019_Feb_14_1430,59.924282797021256,Cloud_Experiment_FR_REAL,001,20,
images/fcloud80-20_D1.2_6.tif,1.2,2,,,,,,,,,0,42,42,86,,,,,,,,,,,,,,,1,space,9.63660094299,1,3.349,,,,,,,,,,,,,,,,,,2019_Feb_14_1430,59.924282797021256,Cloud_Experiment_FR_REAL,001,20,
images/fcloud65-35_D1.7_5.tif,1.7,1,,,,,,,,,0,43,43,64,,,,,,,,,,,,,,,None,None,,None,13.938,,,,,,,,,,,,,,,,,,2019_Feb_14_1430,59.924282797021256,Cloud_Experiment_FR_REAL,001,20,
images/fcloud80-20_D1.1_5.tif,1.1,2,,,,,,,,,0,44,44,82,,,,,,,,,,,,,,,2,space,4.90440524829,2,1.119,,,,,,,,,,,,,,,,,,2019_Feb_14_1430,59.924282797021256,Cloud_Experiment_FR_REAL,001,20,
images/fcloud_D1.8_4.tif,1.8,0,,,,,,,,,0,45,45,30,,,,,,,,,,,,,,,1,space,2.48491042072,3,0.519,,,,,,,,,,,,,,,,,,2019_Feb_14_1430,59.924282797021256,Cloud_Experiment_FR_REAL,001,20,
images/fcloud_D1.7_4.tif,1.7,0,,,,,,,,,0,46,46,27,,,,,,,,,,,,,,,None,None,,None,9.909,,,,,,,,,,,,,,,,,,2019_Feb_14_1430,59.924282797021256,Cloud_Experiment_FR_REAL,001,20,
images/fcloud80-20_D0.8_5.tif,0.8,2,,,,,,,,,0,47,47,73,,,,,,,,,,,,,,,None,None,,None,19.252,,,,,,,,,,,,,,,,,,2019_Feb_14_1430,59.924282797021256,Cloud_Experiment_FR_REAL,001,20,
images/fcloud80-20_D1.2_5.tif,1.2,2,,,,,,,,,0,48,48,85,,,,,,,,,,,,,,,None,None,,None,29.043,,,,,,,,,,,,,,,,,,2019_Feb_14_1430,59.924282797021256,Cloud_Experiment_FR_REAL,001,20,
images/fcloud_D1.3_6.tif,1.3,0,,,,,,,,,0,49,49,17,,,,,,,,,,,,,,,None,None,,None,38.452,,,,,,,,,,,,,,,,,,2019_Feb_14_1430,59.924282797021256,Cloud_Experiment_FR_REAL,001,20,
images/fcloud_D1.3_5.tif,1.3,0,,,,,,,,,0,50,50,16,,,,,,,,,,,,,,,1,space,7.36979287685,2,0.568,,,,,,,,,,,,,,,,,,2019_Feb_14_1430,59.924282797021256,Cloud_Experiment_FR_REAL,001,20,
images/fcloud65-35_D1.9_6.tif,1.9,1,,,,,,,,,0,51,51,71,,,,,,,,,,,,,,,None,None,,None,10.459,,,,,,,,,,,,,,,,,,2019_Feb_14_1430,59.924282797021256,Cloud_Experiment_FR_REAL,001,20,
images/fcloud80-20_D1.8_5.tif,1.8,2,,,,,,,,,0,52,52,103,,,,,,,,,,,,,,,2,space,1.87818123121,3,5.165,,,,,,,,,,,,,,,,,,2019_Feb_14_1430,59.924282797021256,Cloud_Experiment_FR_REAL,001,20,
images/fcloud65-35_D1.1_5.tif,1.1,1,,,,,,,,,0,53,53,46,,,,,,,,,,,,,,,2,space,4.18947821332,2,1.335,,,,,,,,,,,,,,,,,,2019_Feb_14_1430,59.924282797021256,Cloud_Experiment_FR_REAL,001,20,
images/fcloud_D1.9_4.tif,1.9,0,,,,,,,,,0,54,54,33,,,,,,,,,,,,,,,None,None,,None,11.391,,,,,,,,,,,,,,,,,,2019_Feb_14_1430,59.924282797021256,Cloud_Experiment_FR_REAL,001,20,
images/fcloud80-20_D1_5.tif,1.0,2,,,,,,,,,0,55,55,79,,,,,,,,,,,,,,,1,space,5.3192226867,2,2.335,,,,,,,,,,,,,,,,,,2019_Feb_14_1430,59.924282797021256,Cloud_Experiment_FR_REAL,001,20,
images/fcloud80-20_D1.2_4.tif,1.2,2,,,,,,,,,0,56,56,84,,,,,,,,,,,,,,,1,space,4.66828268519,1,3.316,,,,,,,,,,,,,,,,,,2019_Feb_14_1430,59.924282797021256,Cloud_Experiment_FR_REAL,001,20,
images/fcloud65-35_D1.9_4.tif,1.9,1,,,,,,,,,0,57,57,69,,,,,,,,,,,,,,,2,space,2.87649307359,2,2.685,,,,,,,,,,,,,,,,,,2019_Feb_14_1430,59.924282797021256,Cloud_Experiment_FR_REAL,001,20,
images/fcloud80-20_D0.9_6.tif,0.9,2,,,,,,,,,0,58,58,77,,,,,,,,,,,,,,,None,None,,None,13.261,,,,,,,,,,,,,,,,,,2019_Feb_14_1430,59.924282797021256,Cloud_Experiment_FR_REAL,001,20,
images/fcloud80-20_D1.8_4.tif,1.8,2,,,,,,,,,0,59,59,102,,,,,,,,,,,,,,,None,None,,None,22.765,,,,,,,,,,,,,,,,,,2019_Feb_14_1430,59.924282797021256,Cloud_Experiment_FR_REAL,001,20,
images/fcloud65-35_D0.8_6.tif,0.8,1,,,,,,,,,0,60,60,38,,,,,,,,,,,,,,,None,None,,None,32.256,,,,,,,,,,,,,,,,,,2019_Feb_14_1430,59.924282797021256,Cloud_Experiment_FR_REAL,001,20,
images/fcloud65-35_D1.4_6.tif,1.4,1,,,,,,,,,0,61,61,56,,,,,,,,,,,,,,,1,space,4.86967413005,2,0.436,,,,,,,,,,,,,,,,,,2019_Feb_14_1430,59.924282797021256,Cloud_Experiment_FR_REAL,001,20,
images/fcloud_D0.8_4.tif,0.8,0,,,,,,,,,0,62,62,0,,,,,,,,,,,,,,,None,None,,None,12.956,,,,,,,,,,,,,,,,,,2019_Feb_14_1430,59.924282797021256,Cloud_Experiment_FR_REAL,001,20,
images/fcloud80-20_D1.7_6.tif,1.7,2,,,,,,,,,0,63,63,101,,,,,,,,,,,,,,,1,space,2.77470138529,3,0.536,,,,,,,,,,,,,,,,,,2019_Feb_14_1430,59.924282797021256,Cloud_Experiment_FR_REAL,001,20,
images/fcloud80-20_D0.9_5.tif,0.9,2,,,,,,,,,0,64,64,76,,,,,,,,,,,,,,,None,None,,None,10.41,,,,,,,,,,,,,,,,,,2019_Feb_14_1430,59.924282797021256,Cloud_Experiment_FR_REAL,001,20,
images/fcloud80-20_D1.7_5.tif,1.7,2,,,,,,,,,0,65,65,100,,,,,,,,,,,,,,,None,None,,None,22.565,,,,,,,,,,,,,,,,,,2019_Feb_14_1430,59.924282797021256,Cloud_Experiment_FR_REAL,001,20,
images/fcloud65-35_D1.4_4.tif,1.4,1,,,,,,,,,0,66,66,54,,,,,,,,,,,,,,,None,None,,None,32.073,,,,,,,,,,,,,,,,,,2019_Feb_14_1430,59.924282797021256,Cloud_Experiment_FR_REAL,001,20,
images/fcloud65-35_D1.2_4.tif,1.2,1,,,,,,,,,0,67,67,48,,,,,,,,,,,,,,,1,None,,1,0.469,,,,,,,,,,,,,,,,,,2019_Feb_14_1430,59.924282797021256,Cloud_Experiment_FR_REAL,001,20,
images/fcloud80-20_D1.9_6.tif,1.9,2,,,,,,,,,0,68,68,107,,,,,,,,,,,,,,,1,None,,1,1.451,,,,,,,,,,,,,,,,,,2019_Feb_14_1430,59.924282797021256,Cloud_Experiment_FR_REAL,001,20,
images/fcloud80-20_D0.9_4.tif,0.9,2,,,,,,,,,0,69,69,75,,,,,,,,,,,,,,,4,space,4.17578326608,2,0.736,,,,,,,,,,,,,,,,,,2019_Feb_14_1430,59.924282797021256,Cloud_Experiment_FR_REAL,001,20,
images/fcloud_D1.6_6.tif,1.6,0,,,,,,,,,0,70,70,26,,,,,,,,,,,,,,,None,None,,None,13.256,,,,,,,,,,,,,,,,,,2019_Feb_14_1430,59.924282797021256,Cloud_Experiment_FR_REAL,001,20,
images/fcloud_D1.7_5.tif,1.7,0,,,,,,,,,0,71,71,28,,,,,,,,,,,,,,,None,None,,None,22.531,,,,,,,,,,,,,,,,,,2019_Feb_14_1430,59.924282797021256,Cloud_Experiment_FR_REAL,001,20,
images/fcloud80-20_D1.1_4.tif,1.1,2,,,,,,,,,0,72,72,81,,,,,,,,,,,,,,,1,space,6.3132473079,2,0.903,,,,,,,,,,,,,,,,,,2019_Feb_14_1430,59.924282797021256,Cloud_Experiment_FR_REAL,001,20,
images/fcloud65-35_D1.2_6.tif,1.2,1,,,,,,,,,0,73,73,50,,,,,,,,,,,,,,,None,None,,None,11.175,,,,,,,,,,,,,,,,,,2019_Feb_14_1430,59.924282797021256,Cloud_Experiment_FR_REAL,001,20,
images/fcloud65-35_D1.2_5.tif,1.2,1,,,,,,,,,0,74,74,49,,,,,,,,,,,,,,,None,None,,None,20.967,,,,,,,,,,,,,,,,,,2019_Feb_14_1430,59.924282797021256,Cloud_Experiment_FR_REAL,001,20,
images/fcloud80-20_D1.4_6.tif,1.4,2,,,,,,,,,0,75,75,92,,,,,,,,,,,,,,,None,None,,None,30.675,,,,,,,,,,,,,,,,,,2019_Feb_14_1430,59.924282797021256,Cloud_Experiment_FR_REAL,001,20,
images/fcloud80-20_D0.8_6.tif,0.8,2,,,,,,,,,0,76,76,74,,,,,,,,,,,,,,,1,space,3.70845045225,2,1.851,,,,,,,,,,,,,,,,,,2019_Feb_14_1430,59.924282797021256,Cloud_Experiment_FR_REAL,001,20,
images/fcloud_D0.9_6.tif,0.9,0,,,,,,,,,0,77,77,5,,,,,,,,,,,,,,,1,space,6.73273905113,2,1.535,,,,,,,,,,,,,,,,,,2019_Feb_14_1430,59.924282797021256,Cloud_Experiment_FR_REAL,001,20,
images/fcloud_D1.1_4.tif,1.1,0,,,,,,,,,0,78,78,9,,,,,,,,,,,,,,,1,None,,1,1.552,,,,,,,,,,,,,,,,,,2019_Feb_14_1430,59.924282797021256,Cloud_Experiment_FR_REAL,001,20,
images/fcloud65-35_D1.1_6.tif,1.1,1,,,,,,,,,0,79,79,47,,,,,,,,,,,,,,,1,space,6.71775279698,1,1.967,,,,,,,,,,,,,,,,,,2019_Feb_14_1430,59.924282797021256,Cloud_Experiment_FR_REAL,001,20,
images/fcloud65-35_D1.1_4.tif,1.1,1,,,,,,,,,0,80,80,45,,,,,,,,,,,,,,,1,None,,2,1.135,,,,,,,,,,,,,,,,,,2019_Feb_14_1430,59.924282797021256,Cloud_Experiment_FR_REAL,001,20,
images/fcloud80-20_D1.3_4.tif,1.3,2,,,,,,,,,0,81,81,87,,,,,,,,,,,,,,,2,space,5.5562813445,3,1.152,,,,,,,,,,,,,,,,,,2019_Feb_14_1430,59.924282797021256,Cloud_Experiment_FR_REAL,001,20,
images/fcloud65-35_D0.9_5.tif,0.9,1,,,,,,,,,0,82,82,40,,,,,,,,,,,,,,,1,space,1.42307830707,3,1.352,,,,,,,,,,,,,,,,,,2019_Feb_14_1430,59.924282797021256,Cloud_Experiment_FR_REAL,001,20,
images/fcloud65-35_D0.8_4.tif,0.8,1,,,,,,,,,0,83,83,36,,,,,,,,,,,,,,,2,space,6.81952135285,3,2.784,,,,,,,,,,,,,,,,,,2019_Feb_14_1430,59.924282797021256,Cloud_Experiment_FR_REAL,001,20,
images/fcloud65-35_D1.5_4.tif,1.5,1,,,,,,,,,0,84,84,57,,,,,,,,,,,,,,,1,space,5.70814356123,2,1.801,,,,,,,,,,,,,,,,,,2019_Feb_14_1430,59.924282797021256,Cloud_Experiment_FR_REAL,001,20,
images/fcloud65-35_D0.9_4.tif,0.9,1,,,,,,,,,0,85,85,39,,,,,,,,,,,,,,,3,space,3.94948892621,4,2.117,,,,,,,,,,,,,,,,,,2019_Feb_14_1430,59.924282797021256,Cloud_Experiment_FR_REAL,001,20,
images/fcloud_D0.9_5.tif,0.9,0,,,,,,,,,0,86,86,4,,,,,,,,,,,,,,,None,None,,None,11.924,,,,,,,,,,,,,,,,,,2019_Feb_14_1430,59.924282797021256,Cloud_Experiment_FR_REAL,001,20,
images/fcloud65-35_D1.8_6.tif,1.8,1,,,,,,,,,0,87,87,68,,,,,,,,,,,,,,,1,space,5.94695926009,2,0.836,,,,,,,,,,,,,,,,,,2019_Feb_14_1430,59.924282797021256,Cloud_Experiment_FR_REAL,001,20,
images/fcloud80-20_D1_4.tif,1.0,2,,,,,,,,,0,88,88,78,,,,,,,,,,,,,,,None,None,,None,10.076,,,,,,,,,,,,,,,,,,2019_Feb_14_1430,59.924282797021256,Cloud_Experiment_FR_REAL,001,20,
images/fcloud_D1.2_6.tif,1.2,0,,,,,,,,,0,89,89,14,,,,,,,,,,,,,,,None,None,,None,19.802,,,,,,,,,,,,,,,,,,2019_Feb_14_1430,59.924282797021256,Cloud_Experiment_FR_REAL,001,20,
images/fcloud_D1.4_4.tif,1.4,0,,,,,,,,,0,90,90,18,,,,,,,,,,,,,,,2,space,3.87672285634,3,4.566,,,,,,,,,,,,,,,,,,2019_Feb_14_1430,59.924282797021256,Cloud_Experiment_FR_REAL,001,20,
images/fcloud80-20_D1.3_5.tif,1.3,2,,,,,,,,,0,91,91,88,,,,,,,,,,,,,,,1,space,5.95183507461,3,3.765,,,,,,,,,,,,,,,,,,2019_Feb_14_1430,59.924282797021256,Cloud_Experiment_FR_REAL,001,20,
images/fcloud65-35_D1.9_5.tif,1.9,1,,,,,,,,,0,92,92,70,,,,,,,,,,,,,,,1,space,6.96041979812,3,2.982,,,,,,,,,,,,,,,,,,2019_Feb_14_1430,59.924282797021256,Cloud_Experiment_FR_REAL,001,20,
images/fcloud80-20_D1.6_6.tif,1.6,2,,,,,,,,,0,93,93,98,,,,,,,,,,,,,,,1,space,4.9351072011,2,1.802,,,,,,,,,,,,,,,,,,2019_Feb_14_1430,59.924282797021256,Cloud_Experiment_FR_REAL,001,20,
images/fcloud65-35_D1_5.tif,1.0,1,,,,,,,,,0,94,94,43,,,,,,,,,,,,,,,None,None,,None,11.242,,,,,,,,,,,,,,,,,,2019_Feb_14_1430,59.924282797021256,Cloud_Experiment_FR_REAL,001,20,
images/fcloud80-20_D1.8_6.tif,1.8,2,,,,,,,,,0,95,95,104,,,,,,,,,,,,,,,2,space,4.42844196007,2,0.453,,,,,,,,,,,,,,,,,,2019_Feb_14_1430,59.924282797021256,Cloud_Experiment_FR_REAL,001,20,
images/fcloud_D1.5_5.tif,1.5,0,,,,,,,,,0,96,96,22,,,,,,,,,,,,,,,2,space,6.42984378888,3,1.668,,,,,,,,,,,,,,,,,,2019_Feb_14_1430,59.924282797021256,Cloud_Experiment_FR_REAL,001,20,
images/fcloud_D1.6_4.tif,1.6,0,,,,,,,,,0,97,97,24,,,,,,,,,,,,,,,2,space,6.40656273838,3,1.102,,,,,,,,,,,,,,,,,,2019_Feb_14_1430,59.924282797021256,Cloud_Experiment_FR_REAL,001,20,
images/fcloud_D1.6_5.tif,1.6,0,,,,,,,,,0,98,98,25,,,,,,,,,,,,,,,2,space,5.80860847284,4,3.567,,,,,,,,,,,,,,,,,,2019_Feb_14_1430,59.924282797021256,Cloud_Experiment_FR_REAL,001,20,
images/fcloud65-35_D1.8_4.tif,1.8,1,,,,,,,,,0,99,99,66,,,,,,,,,,,,,,,2,None,,2,0.719,,,,,,,,,,,,,,,,,,2019_Feb_14_1430,59.924282797021256,Cloud_Experiment_FR_REAL,001,20,
images/fcloud80-20_D1.5_6.tif,1.5,2,,,,,,,,,0,100,100,95,,,,,,,,,,,,,,,3,space,8.34249345606,1,7.48,,,,,,,,,,,,,,,,,,2019_Feb_14_1430,59.924282797021256,Cloud_Experiment_FR_REAL,001,20,
images/fcloud65-35_D1_4.tif,1.0,1,,,,,,,,,0,101,101,42,,,,,,,,,,,,,,,None,None,,None,17.005,,,,,,,,,,,,,,,,,,2019_Feb_14_1430,59.924282797021256,Cloud_Experiment_FR_REAL,001,20,
images/fcloud65-35_D1.5_5.tif,1.5,1,,,,,,,,,0,102,102,58,,,,,,,,,,,,,,,2,space,6.37722354621,3,0.817,,,,,,,,,,,,,,,,,,2019_Feb_14_1430,59.924282797021256,Cloud_Experiment_FR_REAL,001,20,
images/fcloud_D0.9_4.tif,0.9,0,,,,,,,,,0,103,103,3,,,,,,,,,,,,,,,3,space,5.08924051415,2,0.435,,,,,,,,,,,,,,,,,,2019_Feb_14_1430,59.924282797021256,Cloud_Experiment_FR_REAL,001,20,
images/fcloud65-35_D1.3_5.tif,1.3,1,,,,,,,,,0,104,104,52,,,,,,,,,,,,,,,3,space,5.46170288013,3,1.051,,,,,,,,,,,,,,,,,,2019_Feb_14_1430,59.924282797021256,Cloud_Experiment_FR_REAL,001,20,
images/fcloud65-35_D1.3_6.tif,1.3,1,,,,,,,,,0,105,105,53,,,,,,,,,,,,,,,2,space,7.90532592134,3,0.936,,,,,,,,,,,,,,,,,,2019_Feb_14_1430,59.924282797021256,Cloud_Experiment_FR_REAL,001,20,
images/fcloud65-35_D1.6_5.tif,1.6,1,,,,,,,,,0,106,106,61,,,,,,,,,,,,,,,1,space,6.99783891151,3,2.25,,,,,,,,,,,,,,,,,,2019_Feb_14_1430,59.924282797021256,Cloud_Experiment_FR_REAL,001,20,
images/fcloud65-35_D1.6_4.tif,1.6,1,,,,,,,,,0,107,107,60,,,,,,,,,,,,,,,2,space,4.43931063128,3,0.687,,,,,,,,,,,,,,,,,,2019_Feb_14_1430,59.924282797021256,Cloud_Experiment_FR_REAL,001,20,
,,,,,,,,,,,,,,,,,,,,,,,,,,,,,,,,,,,,,,,,,,,,,,space,2.45004976055,,,,2019_Feb_14_1430,59.924282797021256,Cloud_Experiment_FR_REAL,001,20,
,,,,,,,,,,,,,,,,,,,,,,,,,4,13.234,,,,,,,,,,,,,,,,,,,,,,,,,2019_Feb_14_1430,59.924282797021256,Cloud_Experiment_FR_REAL,001,20,
,,,,,,,,,,,,,,,,,,,,,,,,,,,,,,,,,,6,,,,,,,,,,,,,,,,,2019_Feb_14_1430,59.924282797021256,Cloud_Experiment_FR_REAL,001,20,
,,,,,,,,,,,,,,,,,,,,,,,,,,,,,,,,,,,6,,,,,,,,,,,,,,,,2019_Feb_14_1430,59.924282797021256,Cloud_Experiment_FR_REAL,001,20,
,,,,,,,,,,,,,,,,,,,,,,,,,,,,,,,,,,,,7,,,,,,,,,,,,,,,2019_Feb_14_1430,59.924282797021256,Cloud_Experiment_FR_REAL,001,20,
,,,,,,,,,,,,,,,,,,,,,,,,,,,,,,,,,,,,,7,,,,,,,,,,,,,,2019_Feb_14_1430,59.924282797021256,Cloud_Experiment_FR_REAL,001,20,
,,,,,,,,,,,,,,,,,,,,,,,,,,,,,,,,,,,,,,6,,,,,,,,,,,,,2019_Feb_14_1430,59.924282797021256,Cloud_Experiment_FR_REAL,001,20,
,,,,,,,,,,,,,,,,,,,,,,,,,,,,,,,,,,,,,,,7,,,,,,,,,,,,2019_Feb_14_1430,59.924282797021256,Cloud_Experiment_FR_REAL,001,20,
,,,,,,,,,,,,,,,,,,,,,,,,,,,,,,,,,,,,,,,,7,,,,,,,,,,,2019_Feb_14_1430,59.924282797021256,Cloud_Experiment_FR_REAL,001,20,
,,,,,,,,,,,,,,,,,,,,,,,,,,,,,,,,,,,,,,,,,7,,,,,,,,,,2019_Feb_14_1430,59.924282797021256,Cloud_Experiment_FR_REAL,001,20,
,,,,,,,,,,,,,,,,,,,,,,,,,,,,,,,,,,,,,,,,,,5,,,,,,,,,2019_Feb_14_1430,59.924282797021256,Cloud_Experiment_FR_REAL,001,20,
,,,,,,,,,,,,,,,,,,,,,,,,,,,,,,,,,,,,,,,,,,,2,,,,,,,,2019_Feb_14_1430,59.924282797021256,Cloud_Experiment_FR_REAL,001,20,
,,,,,,,,,,,,,,,,,,,,,,,,,,,,,,,,,,,,,,,,,,,,,,,,space,122.495869566,,2019_Feb_14_1430,59.924282797021256,Cloud_Experiment_FR_REAL,001,20,
images/fcloud_D1.8_9.tif,1.8,0,,,,,,,,,,,,,0,0,0,42,,,,,,,,,,,3,space,4.32946318234,3,0.82,,,,,,,,,,,,,,,,,,2019_Feb_14_1430,59.924282797021256,Cloud_Experiment_FR_REAL,001,20,
images/fcloud_D1_7.tif,1.0,0,,,,,,,,,,,,,0,1,1,8,,,,,,,,,,,2,space,7.0006523362,3,1.119,,,,,,,,,,,,,,,,,,2019_Feb_14_1430,59.924282797021256,Cloud_Experiment_FR_REAL,001,20,
images/fcloud_D1.1_8.tif,1.1,0,,,,,,,,,,,,,0,2,2,13,,,,,,,,,,,1,None,,1,0.402,,,,,,,,,,,,,,,,,,2019_Feb_14_1430,59.924282797021256,Cloud_Experiment_FR_REAL,001,20,
images/fcloud_D1.7_9.tif,1.7,0,,,,,,,,,,,,,0,3,3,38,,,,,,,,,,,1,space,5.44700706724,2,0.701,,,,,,,,,,,,,,,,,,2019_Feb_14_1430,59.924282797021256,Cloud_Experiment_FR_REAL,001,20,
images/fcloud65-35_D1.5_7.tif,1.5,1,,,,,,,,,,,,,0,4,4,76,,,,,,,,,,,3,space,7.6066818964,2,1.917,,,,,,,,,,,,,,,,,,2019_Feb_14_1430,59.924282797021256,Cloud_Experiment_FR_REAL,001,20,
images/fcloud65-35_D1.5_10.tif,1.5,1,,,,,,,,,,,,,0,5,5,79,,,,,,,,,,,None,None,,None,11.726,,,,,,,,,,,,,,,,,,2019_Feb_14_1430,59.924282797021256,Cloud_Experiment_FR_REAL,001,20,
images/fcloud_D1.7_7.tif,1.7,0,,,,,,,,,,,,,0,6,6,36,,,,,,,,,,,None,None,,None,21.167,,,,,,,,,,,,,,,,,,2019_Feb_14_1430,59.924282797021256,Cloud_Experiment_FR_REAL,001,20,
images/fcloud65-35_D0.9_9.tif,0.9,1,,,,,,,,,,,,,0,7,7,54,,,,,,,,,,,None,None,,None,30.341,,,,,,,,,,,,,,,,,,2019_Feb_14_1430,59.924282797021256,Cloud_Experiment_FR_REAL,001,20,
images/fcloud80-20_D1.8_10.tif,1.8,2,,,,,,,,,,,,,0,8,8,139,,,,,,,,,,,3,space,1.92139117757,3,4.348,,,,,,,,,,,,,,,,,,2019_Feb_14_1430,59.924282797021256,Cloud_Experiment_FR_REAL,001,20,
images/fcloud80-20_D1.1_7.tif,1.1,2,,,,,,,,,,,,,0,9,9,108,,,,,,,,,,,2,space,6.82931821872,2,1.451,,,,,,,,,,,,,,,,,,2019_Feb_14_1430,59.924282797021256,Cloud_Experiment_FR_REAL,001,20,
images/fcloud65-35_D0.9_7.tif,0.9,1,,,,,,,,,,,,,0,10,10,52,,,,,,,,,,,None,None,,None,10.859,,,,,,,,,,,,,,,,,,2019_Feb_14_1430,59.924282797021256,Cloud_Experiment_FR_REAL,001,20,
images/fcloud_D1.1_10.tif,1.1,0,,,,,,,,,,,,,0,11,11,15,,,,,,,,,,,None,None,,None,20.467,,,,,,,,,,,,,,,,,,2019_Feb_14_1430,59.924282797021256,Cloud_Experiment_FR_REAL,001,20,
images/fcloud65-35_D1.7_9.tif,1.7,1,,,,,,,,,,,,,0,12,12,86,,,,,,,,,,,3,space,2.957778582,3,0.42,,,,,,,,,,,,,,,,,,2019_Feb_14_1430,59.924282797021256,Cloud_Experiment_FR_REAL,001,20,
images/fcloud65-35_D1.8_8.tif,1.8,1,,,,,,,,,,,,,0,13,13,89,,,,,,,,,,,2,space,6.19459511974,3,3.816,,,,,,,,,,,,,,,,,,2019_Feb_14_1430,59.924282797021256,Cloud_Experiment_FR_REAL,001,20,
images/fcloud_D1.9_10.tif,1.9,0,,,,,,,,,,,,,0,14,14,47,,,,,,,,,,,2,space,3.20820576194,2,1.717,,,,,,,,,,,,,,,,,,2019_Feb_14_1430,59.924282797021256,Cloud_Experiment_FR_REAL,001,20,
images/fcloud80-20_D1_9.tif,1.0,2,,,,,,,,,,,,,0,15,15,106,,,,,,,,,,,None,None,,None,11.042,,,,,,,,,,,,,,,,,,2019_Feb_14_1430,59.924282797021256,Cloud_Experiment_FR_REAL,001,20,
images/fcloud65-35_D1_10.tif,1.0,1,,,,,,,,,,,,,0,16,16,59,,,,,,,,,,,2,space,6.14796619161,2,0.602,,,,,,,,,,,,,,,,,,2019_Feb_14_1430,59.924282797021256,Cloud_Experiment_FR_REAL,001,20,
images/fcloud65-35_D0.9_8.tif,0.9,1,,,,,,,,,,,,,0,17,17,53,,,,,,,,,,,1,space,3.30201417147,2,0.452,,,,,,,,,,,,,,,,,,2019_Feb_14_1430,59.924282797021256,Cloud_Experiment_FR_REAL,001,20,
images/fcloud80-20_D1.3_10.tif,1.3,2,,,,,,,,,,,,,0,18,18,119,,,,,,,,,,,1,space,2.20472046701,3,0.436,,,,,,,,,,,,,,,,,,2019_Feb_14_1430,59.924282797021256,Cloud_Experiment_FR_REAL,001,20,
images/fcloud65-35_D0.8_8.tif,0.8,1,,,,,,,,,,,,,0,19,19,49,,,,,,,,,,,None,None,,None,9.279,,,,,,,,,,,,,,,,,,2019_Feb_14_1430,59.924282797021256,Cloud_Experiment_FR_REAL,001,20,
images/fcloud80-20_D1.1_8.tif,1.1,2,,,,,,,,,,,,,0,20,20,109,,,,,,,,,,,2,space,5.42048592621,3,5.43,,,,,,,,,,,,,,,,,,2019_Feb_14_1430,59.924282797021256,Cloud_Experiment_FR_REAL,001,20,
images/fcloud65-35_D1.4_8.tif,1.4,1,,,,,,,,,,,,,0,21,21,73,,,,,,,,,,,2,space,5.7797391272,3,0.786,,,,,,,,,,,,,,,,,,2019_Feb_14_1430,59.924282797021256,Cloud_Experiment_FR_REAL,001,20,
images/fcloud_D1.4_9.tif,1.4,0,,,,,,,,,,,,,0,22,22,26,,,,,,,,,,,1,space,6.1418587006,2,1.385,,,,,,,,,,,,,,,,,,2019_Feb_14_1430,59.924282797021256,Cloud_Experiment_FR_REAL,001,20,
images/fcloud65-35_D1.7_7.tif,1.7,1,,,,,,,,,,,,,0,23,23,84,,,,,,,,,,,3,space,3.93139109534,3,0.518,,,,,,,,,,,,,,,,,,2019_Feb_14_1430,59.924282797021256,Cloud_Experiment_FR_REAL,001,20,
images/fcloud80-20_D1.9_8.tif,1.9,2,,,,,,,,,,,,,0,24,24,141,,,,,,,,,,,1,space,3.94384100064,3,0.502,,,,,,,,,,,,,,,,,,2019_Feb_14_1430,59.924282797021256,Cloud_Experiment_FR_REAL,001,20,
images/fcloud_D1.4_10.tif,1.4,0,,,,,,,,,,,,,0,25,25,27,,,,,,,,,,,4,space,3.23841627789,3,3.433,,,,,,,,,,,,,,,,,,2019_Feb_14_1430,59.924282797021256,Cloud_Experiment_FR_REAL,001,20,
images/fcloud80-20_D1.6_8.tif,1.6,2,,,,,,,,,,,,,0,26,26,129,,,,,,,,,,,None,None,,None,13.557,,,,,,,,,,,,,,,,,,2019_Feb_14_1430,59.924282797021256,Cloud_Experiment_FR_REAL,001,20,
images/fcloud_D1.1_7.tif,1.1,0,,,,,,,,,,,,,0,27,27,12,,,,,,,,,,,2,space,6.10004390031,3,1.95,,,,,,,,,,,,,,,,,,2019_Feb_14_1430,59.924282797021256,Cloud_Experiment_FR_REAL,001,20,
images/fcloud65-35_D1.8_7.tif,1.8,1,,,,,,,,,,,,,0,28,28,88,,,,,,,,,,,1,None,,2,1.786,,,,,,,,,,,,,,,,,,2019_Feb_14_1430,59.924282797021256,Cloud_Experiment_FR_REAL,001,20,
images/fcloud_D1.5_8.tif,1.5,0,,,,,,,,,,,,,0,29,29,29,,,,,,,,,,,1,space,4.04768376963,2,1.235,,,,,,,,,,,,,,,,,,2019_Feb_14_1430,59.924282797021256,Cloud_Experiment_FR_REAL,001,20,
images/fcloud80-20_D1.3_7.tif,1.3,2,,,,,,,,,,,,,0,30,30,116,,,,,,,,,,,1,space,6.37035576737,1,0.535,,,,,,,,,,,,,,,,,,2019_Feb_14_1430,59.924282797021256,Cloud_Experiment_FR_REAL,001,20,
images/fcloud65-35_D1.9_7.tif,1.9,1,,,,,,,,,,,,,0,31,31,92,,,,,,,,,,,1,space,4.46330673268,3,1.918,,,,,,,,,,,,,,,,,,2019_Feb_14_1430,59.924282797021256,Cloud_Experiment_FR_REAL,001,20,
images/fcloud80-20_D0.9_9.tif,0.9,2,,,,,,,,,,,,,0,32,32,102,,,,,,,,,,,1,None,,3,2.618,,,,,,,,,,,,,,,,,,2019_Feb_14_1430,59.924282797021256,Cloud_Experiment_FR_REAL,001,20,
images/fcloud65-35_D1.6_9.tif,1.6,1,,,,,,,,,,,,,0,33,33,82,,,,,,,,,,,1,space,5.28808944151,2,0.686,,,,,,,,,,,,,,,,,,2019_Feb_14_1430,59.924282797021256,Cloud_Experiment_FR_REAL,001,20,
images/fcloud80-20_D0.8_9.tif,0.8,2,,,,,,,,,,,,,0,34,34,98,,,,,,,,,,,1,space,4.46329799373,1,2.717,,,,,,,,,,,,,,,,,,2019_Feb_14_1430,59.924282797021256,Cloud_Experiment_FR_REAL,001,20,
images/fcloud80-20_D0.8_8.tif,0.8,2,,,,,,,,,,,,,0,35,35,97,,,,,,,,,,,None,None,,None,12.042,,,,,,,,,,,,,,,,,,2019_Feb_14_1430,59.924282797021256,Cloud_Experiment_FR_REAL,001,20,
images/fcloud80-20_D1.7_9.tif,1.7,2,,,,,,,,,,,,,0,36,36,134,,,,,,,,,,,1,space,7.11096089272,1,2.617,,,,,,,,,,,,,,,,,,2019_Feb_14_1430,59.924282797021256,Cloud_Experiment_FR_REAL,001,20,
images/fcloud80-20_D1.6_7.tif,1.6,2,,,,,,,,,,,,,0,37,37,128,,,,,,,,,,,None,None,,None,12.34,,,,,,,,,,,,,,,,,,2019_Feb_14_1430,59.924282797021256,Cloud_Experiment_FR_REAL,001,20,
images/fcloud65-35_D1.8_9.tif,1.8,1,,,,,,,,,,,,,0,38,38,90,,,,,,,,,,,2,space,5.32862989869,2,1.401,,,,,,,,,,,,,,,,,,2019_Feb_14_1430,59.924282797021256,Cloud_Experiment_FR_REAL,001,20,
images/fcloud65-35_D1.3_9.tif,1.3,1,,,,,,,,,,,,,0,39,39,70,,,,,,,,,,,None,None,,None,12.34,,,,,,,,,,,,,,,,,,2019_Feb_14_1430,59.924282797021256,Cloud_Experiment_FR_REAL,001,20,
images/fcloud80-20_D1.9_10.tif,1.9,2,,,,,,,,,,,,,0,40,40,143,,,,,,,,,,,1,None,,1,0.536,,,,,,,,,,,,,,,,,,2019_Feb_14_1430,59.924282797021256,Cloud_Experiment_FR_REAL,001,20,
images/fcloud65-35_D1.8_10.tif,1.8,1,,,,,,,,,,,,,0,41,41,91,,,,,,,,,,,4,space,1.47312827324,3,6.064,,,,,,,,,,,,,,,,,,2019_Feb_14_1430,59.924282797021256,Cloud_Experiment_FR_REAL,001,20,
images/fcloud65-35_D1.9_8.tif,1.9,1,,,,,,,,,,,,,0,42,42,93,,,,,,,,,,,4,space,5.87594920309,3,4.333,,,,,,,,,,,,,,,,,,2019_Feb_14_1430,59.924282797021256,Cloud_Experiment_FR_REAL,001,20,
images/fcloud80-20_D1.3_8.tif,1.3,2,,,,,,,,,,,,,0,43,43,117,,,,,,,,,,,1,None,,1,0.736,,,,,,,,,,,,,,,,,,2019_Feb_14_1430,59.924282797021256,Cloud_Experiment_FR_REAL,001,20,
images/fcloud_D1.5_7.tif,1.5,0,,,,,,,,,,,,,0,44,44,28,,,,,,,,,,,None,None,,None,10.211,,,,,,,,,,,,,,,,,,2019_Feb_14_1430,59.924282797021256,Cloud_Experiment_FR_REAL,001,20,
images/fcloud_D0.8_7.tif,0.8,0,,,,,,,,,,,,,0,45,45,0,,,,,,,,,,,None,None,,None,20.153,,,,,,,,,,,,,,,,,,2019_Feb_14_1430,59.924282797021256,Cloud_Experiment_FR_REAL,001,20,
images/fcloud80-20_D1.4_10.tif,1.4,2,,,,,,,,,,,,,0,46,46,123,,,,,,,,,,,1,space,4.93415105823,3,2.85,,,,,,,,,,,,,,,,,,2019_Feb_14_1430,59.924282797021256,Cloud_Experiment_FR_REAL,001,20,
images/fcloud80-20_D1_10.tif,1.0,2,,,,,,,,,,,,,0,47,47,107,,,,,,,,,,,None,None,,None,12.258,,,,,,,,,,,,,,,,,,2019_Feb_14_1430,59.924282797021256,Cloud_Experiment_FR_REAL,001,20,
images/fcloud65-35_D0.8_10.tif,0.8,1,,,,,,,,,,,,,0,48,48,51,,,,,,,,,,,2,space,1.49890352003,2,1.2,,,,,,,,,,,,,,,,,,2019_Feb_14_1430,59.924282797021256,Cloud_Experiment_FR_REAL,001,20,
images/fcloud65-35_D1_9.tif,1.0,1,,,,,,,,,,,,,0,49,49,58,,,,,,,,,,,2,space,5.46503241634,3,0.535,,,,,,,,,,,,,,,,,,2019_Feb_14_1430,59.924282797021256,Cloud_Experiment_FR_REAL,001,20,
images/fcloud65-35_D1.2_7.tif,1.2,1,,,,,,,,,,,,,0,50,50,64,,,,,,,,,,,1,space,4.02515786639,3,0.518,,,,,,,,,,,,,,,,,,2019_Feb_14_1430,59.924282797021256,Cloud_Experiment_FR_REAL,001,20,
images/fcloud80-20_D1.1_10.tif,1.1,2,,,,,,,,,,,,,0,51,51,111,,,,,,,,,,,2,space,3.11642478651,2,0.603,,,,,,,,,,,,,,,,,,2019_Feb_14_1430,59.924282797021256,Cloud_Experiment_FR_REAL,001,20,
images/fcloud_D1.6_7.tif,1.6,0,,,,,,,,,,,,,0,52,52,32,,,,,,,,,,,2,space,2.60744732476,1,1.885,,,,,,,,,,,,,,,,,,2019_Feb_14_1430,59.924282797021256,Cloud_Experiment_FR_REAL,001,20,
images/fcloud65-35_D1.5_8.tif,1.5,1,,,,,,,,,,,,,0,53,53,77,,,,,,,,,,,2,space,4.0237822544,2,0.569,,,,,,,,,,,,,,,,,,2019_Feb_14_1430,59.924282797021256,Cloud_Experiment_FR_REAL,001,20,
images/fcloud80-20_D1_7.tif,1.0,2,,,,,,,,,,,,,0,54,54,104,,,,,,,,,,,None,None,,None,9.877,,,,,,,,,,,,,,,,,,2019_Feb_14_1430,59.924282797021256,Cloud_Experiment_FR_REAL,001,20,
images/fcloud_D1.5_9.tif,1.5,0,,,,,,,,,,,,,0,55,55,30,,,,,,,,,,,None,None,,None,19.418,,,,,,,,,,,,,,,,,,2019_Feb_14_1430,59.924282797021256,Cloud_Experiment_FR_REAL,001,20,
images/fcloud65-35_D1.3_10.tif,1.3,1,,,,,,,,,,,,,0,56,56,71,,,,,,,,,,,2,space,5.29248255811,2,0.651,,,,,,,,,,,,,,,,,,2019_Feb_14_1430,59.924282797021256,Cloud_Experiment_FR_REAL,001,20,
images/fcloud_D1.6_8.tif,1.6,0,,,,,,,,,,,,,0,57,57,33,,,,,,,,,,,3,space,4.76051757144,2,0.404,,,,,,,,,,,,,,,,,,2019_Feb_14_1430,59.924282797021256,Cloud_Experiment_FR_REAL,001,20,
images/fcloud65-35_D1.1_7.tif,1.1,1,,,,,,,,,,,,,0,58,58,60,,,,,,,,,,,4,space,5.40482317525,3,0.569,,,,,,,,,,,,,,,,,,2019_Feb_14_1430,59.924282797021256,Cloud_Experiment_FR_REAL,001,20,
images/fcloud_D0.9_9.tif,0.9,0,,,,,,,,,,,,,0,59,59,6,,,,,,,,,,,5,space,2.44468096699,4,1.867,,,,,,,,,,,,,,,,,,2019_Feb_14_1430,59.924282797021256,Cloud_Experiment_FR_REAL,001,20,
images/fcloud_D1.9_8.tif,1.9,0,,,,,,,,,,,,,0,60,60,45,,,,,,,,,,,1,None,,2,1.117,,,,,,,,,,,,,,,,,,2019_Feb_14_1430,59.924282797021256,Cloud_Experiment_FR_REAL,001,20,
images/fcloud65-35_D1.9_10.tif,1.9,1,,,,,,,,,,,,,0,61,61,95,,,,,,,,,,,1,space,5.93871946767,2,0.486,,,,,,,,,,,,,,,,,,2019_Feb_14_1430,59.924282797021256,Cloud_Experiment_FR_REAL,001,20,
images/fcloud_D1_10.tif,1.0,0,,,,,,,,,,,,,0,62,62,11,,,,,,,,,,,1,space,3.74036249125,2,1.118,,,,,,,,,,,,,,,,,,2019_Feb_14_1430,59.924282797021256,Cloud_Experiment_FR_REAL,001,20,
images/fcloud80-20_D1.2_9.tif,1.2,2,,,,,,,,,,,,,0,63,63,114,,,,,,,,,,,3,space,4.92731977734,3,2.218,,,,,,,,,,,,,,,,,,2019_Feb_14_1430,59.924282797021256,Cloud_Experiment_FR_REAL,001,20,
images/fcloud80-20_D1.4_7.tif,1.4,2,,,,,,,,,,,,,0,64,64,120,,,,,,,,,,,2,space,4.72799843314,3,0.419,,,,,,,,,,,,,,,,,,2019_Feb_14_1430,59.924282797021256,Cloud_Experiment_FR_REAL,001,20,
images/fcloud65-35_D1.4_9.tif,1.4,1,,,,,,,,,,,,,0,65,65,74,,,,,,,,,,,None,None,,None,9.926,,,,,,,,,,,,,,,,,,2019_Feb_14_1430,59.924282797021256,Cloud_Experiment_FR_REAL,001,20,
images/fcloud65-35_D1.2_9.tif,1.2,1,,,,,,,,,,,,,0,66,66,66,,,,,,,,,,,1,space,7.60733526072,2,2.368,,,,,,,,,,,,,,,,,,2019_Feb_14_1430,59.924282797021256,Cloud_Experiment_FR_REAL,001,20,
images/fcloud_D1.8_8.tif,1.8,0,,,,,,,,,,,,,0,67,67,41,,,,,,,,,,,1,space,7.19520427528,2,0.619,,,,,,,,,,,,,,,,,,2019_Feb_14_1430,59.924282797021256,Cloud_Experiment_FR_REAL,001,20,
images/fcloud_D1.2_7.tif,1.2,0,,,,,,,,,,,,,0,68,68,16,,,,,,,,,,,2,space,7.40973291744,2,0.57,,,,,,,,,,,,,,,,,,2019_Feb_14_1430,59.924282797021256,Cloud_Experiment_FR_REAL,001,20,
images/fcloud_D0.9_8.tif,0.9,0,,,,,,,,,,,,,0,69,69,5,,,,,,,,,,,3,space,6.15158565497,3,4.549,,,,,,,,,,,,,,,,,,2019_Feb_14_1430,59.924282797021256,Cloud_Experiment_FR_REAL,001,20,
images/fcloud65-35_D1.1_8.tif,1.1,1,,,,,,,,,,,,,0,70,70,61,,,,,,,,,,,3,space,3.34314116577,3,1.451,,,,,,,,,,,,,,,,,,2019_Feb_14_1430,59.924282797021256,Cloud_Experiment_FR_REAL,001,20,
images/fcloud_D1.7_10.tif,1.7,0,,,,,,,,,,,,,0,71,71,39,,,,,,,,,,,2,space,4.36643918007,2,0.569,,,,,,,,,,,,,,,,,,2019_Feb_14_1430,59.924282797021256,Cloud_Experiment_FR_REAL,001,20,
images/fcloud80-20_D1.4_8.tif,1.4,2,,,,,,,,,,,,,0,72,72,121,,,,,,,,,,,2,space,4.43779416816,2,0.635,,,,,,,,,,,,,,,,,,2019_Feb_14_1430,59.924282797021256,Cloud_Experiment_FR_REAL,001,20,
images/fcloud80-20_D1.3_9.tif,1.3,2,,,,,,,,,,,,,0,73,73,118,,,,,,,,,,,None,None,,None,9.875,,,,,,,,,,,,,,,,,,2019_Feb_14_1430,59.924282797021256,Cloud_Experiment_FR_REAL,001,20,
images/fcloud65-35_D1.7_10.tif,1.7,1,,,,,,,,,,,,,0,74,74,87,,,,,,,,,,,1,space,2.27270119608,3,0.87,,,,,,,,,,,,,,,,,,2019_Feb_14_1430,59.924282797021256,Cloud_Experiment_FR_REAL,001,20,
images/fcloud80-20_D1.7_10.tif,1.7,2,,,,,,,,,,,,,0,75,75,135,,,,,,,,,,,2,space,4.56350433556,3,1.402,,,,,,,,,,,,,,,,,,2019_Feb_14_1430,59.924282797021256,Cloud_Experiment_FR_REAL,001,20,
images/fcloud_D1.6_10.tif,1.6,0,,,,,,,,,,,,,0,76,76,35,,,,,,,,,,,2,space,2.4737497661,3,0.554,,,,,,,,,,,,,,,,,,2019_Feb_14_1430,59.924282797021256,Cloud_Experiment_FR_REAL,001,20,
images/fcloud_D0.9_10.tif,0.9,0,,,,,,,,,,,,,0,77,77,7,,,,,,,,,,,None,None,,None,10.027,,,,,,,,,,,,,,,,,,2019_Feb_14_1430,59.924282797021256,Cloud_Experiment_FR_REAL,001,20,
images/fcloud65-35_D1.9_9.tif,1.9,1,,,,,,,,,,,,,0,78,78,94,,,,,,,,,,,2,None,,1,0.752,,,,,,,,,,,,,,,,,,2019_Feb_14_1430,59.924282797021256,Cloud_Experiment_FR_REAL,001,20,
images/fcloud65-35_D0.8_7.tif,0.8,1,,,,,,,,,,,,,0,79,79,48,,,,,,,,,,,2,space,4.74333167463,1,1.052,,,,,,,,,,,,,,,,,,2019_Feb_14_1430,59.924282797021256,Cloud_Experiment_FR_REAL,001,20,
images/fcloud65-35_D1.4_10.tif,1.4,1,,,,,,,,,,,,,0,80,80,75,,,,,,,,,,,4,space,6.19508861285,2,0.786,,,,,,,,,,,,,,,,,,2019_Feb_14_1430,59.924282797021256,Cloud_Experiment_FR_REAL,001,20,
images/fcloud_D1.2_8.tif,1.2,0,,,,,,,,,,,,,0,81,81,17,,,,,,,,,,,4,space,3.49758445416,3,2.918,,,,,,,,,,,,,,,,,,2019_Feb_14_1430,59.924282797021256,Cloud_Experiment_FR_REAL,001,20,
images/fcloud_D0.8_8.tif,0.8,0,,,,,,,,,,,,,0,82,82,1,,,,,,,,,,,None,None,,None,12.376,,,,,,,,,,,,,,,,,,2019_Feb_14_1430,59.924282797021256,Cloud_Experiment_FR_REAL,001,20,
images/fcloud65-35_D0.9_10.tif,0.9,1,,,,,,,,,,,,,0,83,83,55,,,,,,,,,,,3,space,4.52536451662,3,2.183,,,,,,,,,,,,,,,,,,2019_Feb_14_1430,59.924282797021256,Cloud_Experiment_FR_REAL,001,20,
images/fcloud_D1.2_9.tif,1.2,0,,,,,,,,,,,,,0,84,84,18,,,,,,,,,,,None,None,,None,11.491,,,,,,,,,,,,,,,,,,2019_Feb_14_1430,59.924282797021256,Cloud_Experiment_FR_REAL,001,20,
images/fcloud80-20_D1.5_9.tif,1.5,2,,,,,,,,,,,,,0,85,85,126,,,,,,,,,,,None,None,,None,20.616,,,,,,,,,,,,,,,,,,2019_Feb_14_1430,59.924282797021256,Cloud_Experiment_FR_REAL,001,20,
images/fcloud_D1.3_8.tif,1.3,0,,,,,,,,,,,,,0,86,86,21,,,,,,,,,,,4,space,3.81489536917,3,2.634,,,,,,,,,,,,,,,,,,2019_Feb_14_1430,59.924282797021256,Cloud_Experiment_FR_REAL,001,20,
images/fcloud80-20_D1.7_7.tif,1.7,2,,,,,,,,,,,,,0,87,87,132,,,,,,,,,,,1,None,,1,1.151,,,,,,,,,,,,,,,,,,2019_Feb_14_1430,59.924282797021256,Cloud_Experiment_FR_REAL,001,20,
images/fcloud80-20_D0.8_10.tif,0.8,2,,,,,,,,,,,,,0,88,88,99,,,,,,,,,,,None,None,,None,11.559,,,,,,,,,,,,,,,,,,2019_Feb_14_1430,59.924282797021256,Cloud_Experiment_FR_REAL,001,20,
images/fcloud_D1.9_9.tif,1.9,0,,,,,,,,,,,,,0,89,89,46,,,,,,,,,,,1,None,,1,0.619,,,,,,,,,,,,,,,,,,2019_Feb_14_1430,59.924282797021256,Cloud_Experiment_FR_REAL,001,20,
images/fcloud80-20_D0.9_8.tif,0.9,2,,,,,,,,,,,,,0,90,90,101,,,,,,,,,,,2,space,2.138924987,3,0.52,,,,,,,,,,,,,,,,,,2019_Feb_14_1430,59.924282797021256,Cloud_Experiment_FR_REAL,001,20,
images/fcloud80-20_D0.9_10.tif,0.9,2,,,,,,,,,,,,,0,91,91,103,,,,,,,,,,,1,space,6.60563579388,2,0.685,,,,,,,,,,,,,,,,,,2019_Feb_14_1430,59.924282797021256,Cloud_Experiment_FR_REAL,001,20,
images/fcloud_D0.8_9.tif,0.8,0,,,,,,,,,,,,,0,92,92,2,,,,,,,,,,,1,space,7.0178495422,2,1.683,,,,,,,,,,,,,,,,,,2019_Feb_14_1430,59.924282797021256,Cloud_Experiment_FR_REAL,001,20,
images/fcloud_D1.7_8.tif,1.7,0,,,,,,,,,,,,,0,93,93,37,,,,,,,,,,,3,space,4.56747284246,3,0.769,,,,,,,,,,,,,,,,,,2019_Feb_14_1430,59.924282797021256,Cloud_Experiment_FR_REAL,001,20,
images/fcloud65-35_D1_7.tif,1.0,1,,,,,,,,,,,,,0,94,94,56,,,,,,,,,,,1,space,6.32326727381,2,3.033,,,,,,,,,,,,,,,,,,2019_Feb_14_1430,59.924282797021256,Cloud_Experiment_FR_REAL,001,20,
images/fcloud65-35_D1.7_8.tif,1.7,1,,,,,,,,,,,,,0,95,95,85,,,,,,,,,,,2,space,6.16897049116,3,3.615,,,,,,,,,,,,,,,,,,2019_Feb_14_1430,59.924282797021256,Cloud_Experiment_FR_REAL,001,20,
images/fcloud_D1.8_10.tif,1.8,0,,,,,,,,,,,,,0,96,96,43,,,,,,,,,,,2,space,5.75226646982,2,0.503,,,,,,,,,,,,,,,,,,2019_Feb_14_1430,59.924282797021256,Cloud_Experiment_FR_REAL,001,20,
images/fcloud80-20_D1.8_9.tif,1.8,2,,,,,,,,,,,,,0,97,97,138,,,,,,,,,,,1,space,4.36906034802,2,6.847,,,,,,,,,,,,,,,,,,2019_Feb_14_1430,59.924282797021256,Cloud_Experiment_FR_REAL,001,20,
images/fcloud65-35_D1.4_7.tif,1.4,1,,,,,,,,,,,,,0,98,98,72,,,,,,,,,,,1,None,,2,0.602,,,,,,,,,,,,,,,,,,2019_Feb_14_1430,59.924282797021256,Cloud_Experiment_FR_REAL,001,20,
images/fcloud_D1.3_7.tif,1.3,0,,,,,,,,,,,,,0,99,99,20,,,,,,,,,,,3,space,2.59569499246,3,0.486,,,,,,,,,,,,,,,,,,2019_Feb_14_1430,59.924282797021256,Cloud_Experiment_FR_REAL,001,20,
images/fcloud65-35_D1.1_10.tif,1.1,1,,,,,,,,,,,,,0,100,100,63,,,,,,,,,,,2,space,5.74682930691,3,0.52,,,,,,,,,,,,,,,,,,2019_Feb_14_1430,59.924282797021256,Cloud_Experiment_FR_REAL,001,20,
images/fcloud65-35_D1.2_10.tif,1.2,1,,,,,,,,,,,,,0,101,101,67,,,,,,,,,,,3,space,3.07317782819,4,2.1,,,,,,,,,,,,,,,,,,2019_Feb_14_1430,59.924282797021256,Cloud_Experiment_FR_REAL,001,20,
images/fcloud80-20_D0.9_7.tif,0.9,2,,,,,,,,,,,,,0,102,102,100,,,,,,,,,,,2,space,5.99462400968,3,3.117,,,,,,,,,,,,,,,,,,2019_Feb_14_1430,59.924282797021256,Cloud_Experiment_FR_REAL,001,20,
images/fcloud80-20_D1.8_8.tif,1.8,2,,,,,,,,,,,,,0,103,103,137,,,,,,,,,,,3,space,2.52598086893,2,3.765,,,,,,,,,,,,,,,,,,2019_Feb_14_1430,59.924282797021256,Cloud_Experiment_FR_REAL,001,20,
images/fcloud_D1.4_8.tif,1.4,0,,,,,,,,,,,,,0,104,104,25,,,,,,,,,,,4,space,3.34844261807,3,2.717,,,,,,,,,,,,,,,,,,2019_Feb_14_1430,59.924282797021256,Cloud_Experiment_FR_REAL,001,20,
images/fcloud65-35_D1.6_10.tif,1.6,1,,,,,,,,,,,,,0,105,105,83,,,,,,,,,,,4,space,3.47068651058,3,1.235,,,,,,,,,,,,,,,,,,2019_Feb_14_1430,59.924282797021256,Cloud_Experiment_FR_REAL,001,20,
images/fcloud80-20_D1.1_9.tif,1.1,2,,,,,,,,,,,,,0,106,106,110,,,,,,,,,,,2,space,3.30437060096,3,1.052,,,,,,,,,,,,,,,,,,2019_Feb_14_1430,59.924282797021256,Cloud_Experiment_FR_REAL,001,20,
images/fcloud80-20_D1.5_8.tif,1.5,2,,,,,,,,,,,,,0,107,107,125,,,,,,,,,,,1,None,,1,0.486,,,,,,,,,,,,,,,,,,2019_Feb_14_1430,59.924282797021256,Cloud_Experiment_FR_REAL,001,20,
images/fcloud_D1.3_9.tif,1.3,0,,,,,,,,,,,,,0,108,108,22,,,,,,,,,,,None,None,,None,10.342,,,,,,,,,,,,,,,,,,2019_Feb_14_1430,59.924282797021256,Cloud_Experiment_FR_REAL,001,20,
images/fcloud65-35_D1.6_8.tif,1.6,1,,,,,,,,,,,,,0,109,109,81,,,,,,,,,,,3,space,4.87224800495,2,1.586,,,,,,,,,,,,,,,,,,2019_Feb_14_1430,59.924282797021256,Cloud_Experiment_FR_REAL,001,20,
images/fcloud_D1.4_7.tif,1.4,0,,,,,,,,,,,,,0,110,110,24,,,,,,,,,,,3,space,3.54788065283,3,3.249,,,,,,,,,,,,,,,,,,2019_Feb_14_1430,59.924282797021256,Cloud_Experiment_FR_REAL,001,20,
images/fcloud80-20_D0.8_7.tif,0.8,2,,,,,,,,,,,,,0,111,111,96,,,,,,,,,,,1,space,6.85711987154,1,0.486,,,,,,,,,,,,,,,,,,2019_Feb_14_1430,59.924282797021256,Cloud_Experiment_FR_REAL,001,20,
images/fcloud65-35_D1.3_7.tif,1.3,1,,,,,,,,,,,,,0,112,112,68,,,,,,,,,,,1,space,3.60388697774,1,0.602,,,,,,,,,,,,,,,,,,2019_Feb_14_1430,59.924282797021256,Cloud_Experiment_FR_REAL,001,20,
images/fcloud_D1.1_9.tif,1.1,0,,,,,,,,,,,,,0,113,113,14,,,,,,,,,,,4,space,1.97780977486,4,5.73,,,,,,,,,,,,,,,,,,2019_Feb_14_1430,59.924282797021256,Cloud_Experiment_FR_REAL,001,20,
images/fcloud80-20_D1.2_10.tif,1.2,2,,,,,,,,,,,,,0,114,114,115,,,,,,,,,,,3,space,2.22629074144,3,2.967,,,,,,,,,,,,,,,,,,2019_Feb_14_1430,59.924282797021256,Cloud_Experiment_FR_REAL,001,20,
images/fcloud65-35_D1.3_8.tif,1.3,1,,,,,,,,,,,,,0,115,115,69,,,,,,,,,,,3,space,4.71767260437,3,3.498,,,,,,,,,,,,,,,,,,2019_Feb_14_1430,59.924282797021256,Cloud_Experiment_FR_REAL,001,20,
images/fcloud80-20_D1.4_9.tif,1.4,2,,,,,,,,,,,,,0,116,116,122,,,,,,,,,,,None,None,,None,13.289,,,,,,,,,,,,,,,,,,2019_Feb_14_1430,59.924282797021256,Cloud_Experiment_FR_REAL,001,20,
images/fcloud_D1.8_7.tif,1.8,0,,,,,,,,,,,,,0,117,117,40,,,,,,,,,,,1,space,2.14587038817,1,0.654,,,,,,,,,,,,,,,,,,2019_Feb_14_1430,59.924282797021256,Cloud_Experiment_FR_REAL,001,20,
images/fcloud_D1.5_10.tif,1.5,0,,,,,,,,,,,,,0,118,118,31,,,,,,,,,,,2,None,,3,1.619,,,,,,,,,,,,,,,,,,2019_Feb_14_1430,59.924282797021256,Cloud_Experiment_FR_REAL,001,20,
images/fcloud80-20_D1.9_9.tif,1.9,2,,,,,,,,,,,,,0,119,119,142,,,,,,,,,,,1,space,6.46358072414,1,0.651,,,,,,,,,,,,,,,,,,2019_Feb_14_1430,59.924282797021256,Cloud_Experiment_FR_REAL,001,20,
images/fcloud65-35_D1.2_8.tif,1.2,1,,,,,,,,,,,,,0,120,120,65,,,,,,,,,,,3,space,3.15149929372,2,1.686,,,,,,,,,,,,,,,,,,2019_Feb_14_1430,59.924282797021256,Cloud_Experiment_FR_REAL,001,20,
images/fcloud_D1.3_10.tif,1.3,0,,,,,,,,,,,,,0,121,121,23,,,,,,,,,,,None,None,,None,11.308,,,,,,,,,,,,,,,,,,2019_Feb_14_1430,59.924282797021256,Cloud_Experiment_FR_REAL,001,20,
images/fcloud80-20_D1_8.tif,1.0,2,,,,,,,,,,,,,0,122,122,105,,,,,,,,,,,1,space,4.54081804704,2,0.536,,,,,,,,,,,,,,,,,,2019_Feb_14_1430,59.924282797021256,Cloud_Experiment_FR_REAL,001,20,
images/fcloud80-20_D1.8_7.tif,1.8,2,,,,,,,,,,,,,0,123,123,136,,,,,,,,,,,1,space,5.81101887819,2,0.585,,,,,,,,,,,,,,,,,,2019_Feb_14_1430,59.924282797021256,Cloud_Experiment_FR_REAL,001,20,
images/fcloud_D0.8_10.tif,0.8,0,,,,,,,,,,,,,0,124,124,3,,,,,,,,,,,1,space,3.45005181676,2,0.553,,,,,,,,,,,,,,,,,,2019_Feb_14_1430,59.924282797021256,Cloud_Experiment_FR_REAL,001,20,
images/fcloud80-20_D1.2_8.tif,1.2,2,,,,,,,,,,,,,0,125,125,113,,,,,,,,,,,5,space,1.69322259212,3,3.25,,,,,,,,,,,,,,,,,,2019_Feb_14_1430,59.924282797021256,Cloud_Experiment_FR_REAL,001,20,
images/fcloud65-35_D1.5_9.tif,1.5,1,,,,,,,,,,,,,0,126,126,78,,,,,,,,,,,2,space,6.70742439787,2,0.535,,,,,,,,,,,,,,,,,,2019_Feb_14_1430,59.924282797021256,Cloud_Experiment_FR_REAL,001,20,
images/fcloud80-20_D1.6_9.tif,1.6,2,,,,,,,,,,,,,0,127,127,130,,,,,,,,,,,3,space,5.57715353189,3,0.437,,,,,,,,,,,,,,,,,,2019_Feb_14_1430,59.924282797021256,Cloud_Experiment_FR_REAL,001,20,
images/fcloud65-35_D1.6_7.tif,1.6,1,,,,,,,,,,,,,0,128,128,80,,,,,,,,,,,5,space,3.61215041668,3,1.984,,,,,,,,,,,,,,,,,,2019_Feb_14_1430,59.924282797021256,Cloud_Experiment_FR_REAL,001,20,
images/fcloud_D1_8.tif,1.0,0,,,,,,,,,,,,,0,129,129,9,,,,,,,,,,,3,space,5.2099391564,2,0.536,,,,,,,,,,,,,,,,,,2019_Feb_14_1430,59.924282797021256,Cloud_Experiment_FR_REAL,001,20,
images/fcloud80-20_D1.9_7.tif,1.9,2,,,,,,,,,,,,,0,130,130,140,,,,,,,,,,,None,None,,None,10.06,,,,,,,,,,,,,,,,,,2019_Feb_14_1430,59.924282797021256,Cloud_Experiment_FR_REAL,001,20,
images/fcloud_D1.6_9.tif,1.6,0,,,,,,,,,,,,,0,131,131,34,,,,,,,,,,,3,space,5.07905553648,2,1.485,,,,,,,,,,,,,,,,,,2019_Feb_14_1430,59.924282797021256,Cloud_Experiment_FR_REAL,001,20,
images/fcloud65-35_D1_8.tif,1.0,1,,,,,,,,,,,,,0,132,132,57,,,,,,,,,,,1,space,2.79508984656,5,1.802,,,,,,,,,,,,,,,,,,2019_Feb_14_1430,59.924282797021256,Cloud_Experiment_FR_REAL,001,20,
images/fcloud80-20_D1.7_8.tif,1.7,2,,,,,,,,,,,,,0,133,133,133,,,,,,,,,,,1,space,5.00601907351,2,1.121,,,,,,,,,,,,,,,,,,2019_Feb_14_1430,59.924282797021256,Cloud_Experiment_FR_REAL,001,20,
images/fcloud_D1.9_7.tif,1.9,0,,,,,,,,,,,,,0,134,134,44,,,,,,,,,,,2,space,6.53879112701,2,0.636,,,,,,,,,,,,,,,,,,2019_Feb_14_1430,59.924282797021256,Cloud_Experiment_FR_REAL,001,20,
images/fcloud65-35_D1.1_9.tif,1.1,1,,,,,,,,,,,,,0,135,135,62,,,,,,,,,,,3,space,4.39009806118,3,1.985,,,,,,,,,,,,,,,,,,2019_Feb_14_1430,59.924282797021256,Cloud_Experiment_FR_REAL,001,20,
images/fcloud_D1_9.tif,1.0,0,,,,,,,,,,,,,0,136,136,10,,,,,,,,,,,5,space,3.65663522019,4,3.733,,,,,,,,,,,,,,,,,,2019_Feb_14_1430,59.924282797021256,Cloud_Experiment_FR_REAL,001,20,
images/fcloud_D1.2_10.tif,1.2,0,,,,,,,,,,,,,0,137,137,19,,,,,,,,,,,4,space,3.45695403728,4,2.384,,,,,,,,,,,,,,,,,,2019_Feb_14_1430,59.924282797021256,Cloud_Experiment_FR_REAL,001,20,
images/fcloud80-20_D1.2_7.tif,1.2,2,,,,,,,,,,,,,0,138,138,112,,,,,,,,,,,1,space,5.94429542552,1,1.534,,,,,,,,,,,,,,,,,,2019_Feb_14_1430,59.924282797021256,Cloud_Experiment_FR_REAL,001,20,
images/fcloud_D0.9_7.tif,0.9,0,,,,,,,,,,,,,0,139,139,4,,,,,,,,,,,2,space,5.09663931208,2,1.034,,,,,,,,,,,,,,,,,,2019_Feb_14_1430,59.924282797021256,Cloud_Experiment_FR_REAL,001,20,
images/fcloud65-35_D0.8_9.tif,0.8,1,,,,,,,,,,,,,0,140,140,50,,,,,,,,,,,1,space,5.13886021604,2,1.685,,,,,,,,,,,,,,,,,,2019_Feb_14_1430,59.924282797021256,Cloud_Experiment_FR_REAL,001,20,
images/fcloud80-20_D1.6_10.tif,1.6,2,,,,,,,,,,,,,0,141,141,131,,,,,,,,,,,2,None,,1,0.652,,,,,,,,,,,,,,,,,,2019_Feb_14_1430,59.924282797021256,Cloud_Experiment_FR_REAL,001,20,
images/fcloud80-20_D1.5_7.tif,1.5,2,,,,,,,,,,,,,0,142,142,124,,,,,,,,,,,2,space,6.56042205996,1,0.571,,,,,,,,,,,,,,,,,,2019_Feb_14_1430,59.924282797021256,Cloud_Experiment_FR_REAL,001,20,
images/fcloud80-20_D1.5_10.tif,1.5,2,,,,,,,,,,,,,0,143,143,127,,,,,,,,,,,3,space,3.24488155139,3,4.231,,,,,,,,,,,,,,,,,,2019_Feb_14_1430,59.924282797021256,Cloud_Experiment_FR_REAL,001,20,
,,,,,,,,,,,,,,,,,,,,,,,,,6,26.438,,,,,,,,,,,,,,,,,,,,,,,,,2019_Feb_14_1430,59.924282797021256,Cloud_Experiment_FR_REAL,001,20,
,,,,,,,,,,,,,,,,,,,,,,,,,,,,,,,,,,7,,,,,,,,,,,,,,,,,2019_Feb_14_1430,59.924282797021256,Cloud_Experiment_FR_REAL,001,20,
,,,,,,,,,,,,,,,,,,,,,,,,,,,,,,,,,,,7,,,,,,,,,,,,,,,,2019_Feb_14_1430,59.924282797021256,Cloud_Experiment_FR_REAL,001,20,
,,,,,,,,,,,,,,,,,,,,,,,,,,,,,,,,,,,,7,,,,,,,,,,,,,,,2019_Feb_14_1430,59.924282797021256,Cloud_Experiment_FR_REAL,001,20,
,,,,,,,,,,,,,,,,,,,,,,,,,,,,,,,,,,,,,7,,,,,,,,,,,,,,2019_Feb_14_1430,59.924282797021256,Cloud_Experiment_FR_REAL,001,20,
,,,,,,,,,,,,,,,,,,,,,,,,,,,,,,,,,,,,,,7,,,,,,,,,,,,,2019_Feb_14_1430,59.924282797021256,Cloud_Experiment_FR_REAL,001,20,
,,,,,,,,,,,,,,,,,,,,,,,,,,,,,,,,,,,,,,,7,,,,,,,,,,,,2019_Feb_14_1430,59.924282797021256,Cloud_Experiment_FR_REAL,001,20,
,,,,,,,,,,,,,,,,,,,,,,,,,,,,,,,,,,,,,,,,7,,,,,,,,,,,2019_Feb_14_1430,59.924282797021256,Cloud_Experiment_FR_REAL,001,20,
,,,,,,,,,,,,,,,,,,,,,,,,,,,,,,,,,,,,,,,,,7,,,,,,,,,,2019_Feb_14_1430,59.924282797021256,Cloud_Experiment_FR_REAL,001,20,
,,,,,,,,,,,,,,,,,,,,,,,,,,,,,,,,,,,,,,,,,,5,,,,,,,,,2019_Feb_14_1430,59.924282797021256,Cloud_Experiment_FR_REAL,001,20,
,,,,,,,,,,,,,,,,,,,,,,,,,,,,,,,,,,,,,,,,,,,1,,,,,,,,2019_Feb_14_1430,59.924282797021256,Cloud_Experiment_FR_REAL,001,20,
,,,,,,,,,,,,,,,,,,,,,,,,,,,,,,,,,,,,,,,,,,,,,,,,,,4,2019_Feb_14_1430,59.924282797021256,Cloud_Experiment_FR_REAL,001,20,
