ImageFile,FD,Contrast,trials_4.thisRepN,trials_4.thisTrialN,trials_4.thisN,trials_4.thisIndex,trials.thisRepN,trials.thisTrialN,trials.thisN,trials.thisIndex,trials_2.thisRepN,trials_2.thisTrialN,trials_2.thisN,trials_2.thisIndex,trials_3.thisRepN,trials_3.thisTrialN,trials_3.thisN,trials_3.thisIndex,end_instructions.keys,end_instructions.rt,key_resp_4.keys,key_resp_4.rt,key_resp_6.keys,key_resp_6.rt,Fatigue.response,Fatigue.rt,key_resp_5.keys,key_resp_5.rt,n_objets.response,reaction_time.keys,reaction_time.rt,vividness.response,vividness.rt,Flow01.response,Flow02.response,Flow03.response,Flow04.response,Flow05.response,Flow06.response,Flow07.response,Flow08.response,Flow09.response,Flow10.response,key_resp_2.keys,key_resp_2.rt,key_resp_8.keys,key_resp_8.rt,key_resp_3.keys,key_resp_3.rt,Redondance_question.response,date,frameRate,expName,session,participant,
,,,,,,,,,,,,,,,,,,,space,14.9507612131,,,,,,,,,,,,,,,,,,,,,,,,,,,,,,,2019_Feb_15_1559,60.41035100383804,Cloud_Experiment_FR_REAL,001,21,
,,,,,,,,,,,,,,,,,,,,,space,32.0049241357,,,,,,,,,,,,,,,,,,,,,,,,,,,,,2019_Feb_15_1559,60.41035100383804,Cloud_Experiment_FR_REAL,001,21,
,,,,,,,,,,,,,,,,,,,,,,,space,15.572767098,,,,,,,,,,,,,,,,,,,,,,,,,,,2019_Feb_15_1559,60.41035100383804,Cloud_Experiment_FR_REAL,001,21,
,,,,,,,,,,,,,,,,,,,,,,,,,7,125.82,,,,,,,,,,,,,,,,,,,,,,,,,2019_Feb_15_1559,60.41035100383804,Cloud_Experiment_FR_REAL,001,21,
,,,,,,,,,,,,,,,,,,,,,,,,,,,space,3.01428302651,,,,,,,,,,,,,,,,,,,,,,,2019_Feb_15_1559,60.41035100383804,Cloud_Experiment_FR_REAL,001,21,
pratique/fcloud65-35_D1.2_30,1.2,1,0,0,0,3,,,,,,,,,,,,,,,,,,,,,,,1,space,5.92369517343,3,4.032,,,,,,,,,,,,,,,,,,2019_Feb_15_1559,60.41035100383804,Cloud_Experiment_FR_REAL,001,21,
pratique/fcloud80-20_D1_30,1.0,2,0,1,1,9,,,,,,,,,,,,,,,,,,,,,,,1,space,5.05104774752,2,3.216,,,,,,,,,,,,,,,,,,2019_Feb_15_1559,60.41035100383804,Cloud_Experiment_FR_REAL,001,21,
pratique/fcloud65-35_D1.3_30,1.3,1,0,2,2,6,,,,,,,,,,,,,,,,,,,,,,,None,None,,None,14.255,,,,,,,,,,,,,,,,,,2019_Feb_15_1559,60.41035100383804,Cloud_Experiment_FR_REAL,001,21,
pratique/fcloud_D0.8_30,0.8,0,0,3,3,0,,,,,,,,,,,,,,,,,,,,,,,1,space,6.51708617006,1,2.267,,,,,,,,,,,,,,,,,,2019_Feb_15_1559,60.41035100383804,Cloud_Experiment_FR_REAL,001,21,
pratique/fcloud80-20_D1.8_30,1.8,2,0,4,4,4,,,,,,,,,,,,,,,,,,,,,,,None,None,,None,12.24,,,,,,,,,,,,,,,,,,2019_Feb_15_1559,60.41035100383804,Cloud_Experiment_FR_REAL,001,21,
pratique/fcloud65-35_D1.6_30,1.6,1,0,5,5,2,,,,,,,,,,,,,,,,,,,,,,,1,None,,2,2.634,,,,,,,,,,,,,,,,,,2019_Feb_15_1559,60.41035100383804,Cloud_Experiment_FR_REAL,001,21,
pratique/fcloud_D1.4_30,1.4,0,0,6,6,1,,,,,,,,,,,,,,,,,,,,,,,1,space,2.69683742899,4,2.717,,,,,,,,,,,,,,,,,,2019_Feb_15_1559,60.41035100383804,Cloud_Experiment_FR_REAL,001,21,
pratique/fcloud65-35_D1.9_29,1.9,1,0,7,7,7,,,,,,,,,,,,,,,,,,,,,,,1,space,7.55599450166,3,2.334,,,,,,,,,,,,,,,,,,2019_Feb_15_1559,60.41035100383804,Cloud_Experiment_FR_REAL,001,21,
pratique/fcloud_D1.6_28,1.6,0,0,8,8,5,,,,,,,,,,,,,,,,,,,,,,,1,space,3.55965765973,3,1.936,,,,,,,,,,,,,,,,,,2019_Feb_15_1559,60.41035100383804,Cloud_Experiment_FR_REAL,001,21,
pratique/fcloud80-20_D1.5_30,1.5,2,0,9,9,8,,,,,,,,,,,,,,,,,,,,,,,1,space,1.85260800816,4,1.652,,,,,,,,,,,,,,,,,,2019_Feb_15_1559,60.41035100383804,Cloud_Experiment_FR_REAL,001,21,
,,,,,,,,,,,,,,,,,,,,,,,,,,,,,,,,,,6,,,,,,,,,,,,,,,,,2019_Feb_15_1559,60.41035100383804,Cloud_Experiment_FR_REAL,001,21,
,,,,,,,,,,,,,,,,,,,,,,,,,,,,,,,,,,,4,,,,,,,,,,,,,,,,2019_Feb_15_1559,60.41035100383804,Cloud_Experiment_FR_REAL,001,21,
,,,,,,,,,,,,,,,,,,,,,,,,,,,,,,,,,,,,7,,,,,,,,,,,,,,,2019_Feb_15_1559,60.41035100383804,Cloud_Experiment_FR_REAL,001,21,
,,,,,,,,,,,,,,,,,,,,,,,,,,,,,,,,,,,,,3,,,,,,,,,,,,,,2019_Feb_15_1559,60.41035100383804,Cloud_Experiment_FR_REAL,001,21,
,,,,,,,,,,,,,,,,,,,,,,,,,,,,,,,,,,,,,,3,,,,,,,,,,,,,2019_Feb_15_1559,60.41035100383804,Cloud_Experiment_FR_REAL,001,21,
,,,,,,,,,,,,,,,,,,,,,,,,,,,,,,,,,,,,,,,6,,,,,,,,,,,,2019_Feb_15_1559,60.41035100383804,Cloud_Experiment_FR_REAL,001,21,
,,,,,,,,,,,,,,,,,,,,,,,,,,,,,,,,,,,,,,,,5,,,,,,,,,,,2019_Feb_15_1559,60.41035100383804,Cloud_Experiment_FR_REAL,001,21,
,,,,,,,,,,,,,,,,,,,,,,,,,,,,,,,,,,,,,,,,,7,,,,,,,,,,2019_Feb_15_1559,60.41035100383804,Cloud_Experiment_FR_REAL,001,21,
,,,,,,,,,,,,,,,,,,,,,,,,,,,,,,,,,,,,,,,,,,5,,,,,,,,,2019_Feb_15_1559,60.41035100383804,Cloud_Experiment_FR_REAL,001,21,
,,,,,,,,,,,,,,,,,,,,,,,,,,,,,,,,,,,,,,,,,,,4,,,,,,,,2019_Feb_15_1559,60.41035100383804,Cloud_Experiment_FR_REAL,001,21,
,,,,,,,,,,,,,,,,,,,,,,,,,,,,,,,,,,,,,,,,,,,,space,1.75134579677,,,,,,2019_Feb_15_1559,60.41035100383804,Cloud_Experiment_FR_REAL,001,21,
images/fcloud_D1.5_3.tif,1.5,0,,,,,0,0,0,23,,,,,,,,,,,,,,,,,,,1,space,4.01695200161,2,2.068,,,,,,,,,,,,,,,,,,2019_Feb_15_1559,60.41035100383804,Cloud_Experiment_FR_REAL,001,21,
images/fcloud_D1.1_2.tif,1.1,0,,,,,0,1,1,10,,,,,,,,,,,,,,,,,,,2,space,2.6716543739,3,3.4,,,,,,,,,,,,,,,,,,2019_Feb_15_1559,60.41035100383804,Cloud_Experiment_FR_REAL,001,21,
images/fcloud_D1.8_2.tif,1.8,0,,,,,0,2,2,31,,,,,,,,,,,,,,,,,,,1,space,2.53168893899,3,2.185,,,,,,,,,,,,,,,,,,2019_Feb_15_1559,60.41035100383804,Cloud_Experiment_FR_REAL,001,21,
images/fcloud_D1.5_1.tif,1.5,0,,,,,0,3,3,21,,,,,,,,,,,,,,,,,,,1,space,5.86954870058,1,2.502,,,,,,,,,,,,,,,,,,2019_Feb_15_1559,60.41035100383804,Cloud_Experiment_FR_REAL,001,21,
images/fcloud65-35_D1.1_2.tif,1.1,1,,,,,0,4,4,46,,,,,,,,,,,,,,,,,,,None,None,,None,13.491,,,,,,,,,,,,,,,,,,2019_Feb_15_1559,60.41035100383804,Cloud_Experiment_FR_REAL,001,21,
images/fcloud65-35_D1.1_1.tif,1.1,1,,,,,0,5,5,45,,,,,,,,,,,,,,,,,,,1,space,7.19521352829,2,1.868,,,,,,,,,,,,,,,,,,2019_Feb_15_1559,60.41035100383804,Cloud_Experiment_FR_REAL,001,21,
images/fcloud65-35_D1_2.tif,1.0,1,,,,,0,6,6,43,,,,,,,,,,,,,,,,,,,1,space,3.05908448808,2,1.734,,,,,,,,,,,,,,,,,,2019_Feb_15_1559,60.41035100383804,Cloud_Experiment_FR_REAL,001,21,
images/fcloud_D1.6_2.tif,1.6,0,,,,,0,7,7,25,,,,,,,,,,,,,,,,,,,1,space,6.7872844309,3,2.119,,,,,,,,,,,,,,,,,,2019_Feb_15_1559,60.41035100383804,Cloud_Experiment_FR_REAL,001,21,
images/fcloud_D1.4_2.tif,1.4,0,,,,,0,8,8,19,,,,,,,,,,,,,,,,,,,None,None,,None,11.79,,,,,,,,,,,,,,,,,,2019_Feb_15_1559,60.41035100383804,Cloud_Experiment_FR_REAL,001,21,
images/fcloud_D1.7_2.tif,1.7,0,,,,,0,9,9,28,,,,,,,,,,,,,,,,,,,1,space,3.40315249554,2,2.467,,,,,,,,,,,,,,,,,,2019_Feb_15_1559,60.41035100383804,Cloud_Experiment_FR_REAL,001,21,
images/fcloud80-20_D0.8_3.tif,0.8,2,,,,,0,10,10,74,,,,,,,,,,,,,,,,,,,2,space,2.84782472358,4,3.731,,,,,,,,,,,,,,,,,,2019_Feb_15_1559,60.41035100383804,Cloud_Experiment_FR_REAL,001,21,
images/fcloud80-20_D1.1_3.tif,1.1,2,,,,,0,11,11,83,,,,,,,,,,,,,,,,,,,1,space,3.09997501693,3,1.566,,,,,,,,,,,,,,,,,,2019_Feb_15_1559,60.41035100383804,Cloud_Experiment_FR_REAL,001,21,
images/fcloud_D1.9_3.tif,1.9,0,,,,,0,12,12,35,,,,,,,,,,,,,,,,,,,None,None,,None,10.759,,,,,,,,,,,,,,,,,,2019_Feb_15_1559,60.41035100383804,Cloud_Experiment_FR_REAL,001,21,
images/fcloud65-35_D1.7_3.tif,1.7,1,,,,,0,13,13,65,,,,,,,,,,,,,,,,,,,3,space,5.04272005166,3,5.897,,,,,,,,,,,,,,,,,,2019_Feb_15_1559,60.41035100383804,Cloud_Experiment_FR_REAL,001,21,
images/fcloud65-35_D1.6_3.tif,1.6,1,,,,,0,14,14,62,,,,,,,,,,,,,,,,,,,1,space,3.95081056238,3,2.352,,,,,,,,,,,,,,,,,,2019_Feb_15_1559,60.41035100383804,Cloud_Experiment_FR_REAL,001,21,
images/fcloud65-35_D1.7_1.tif,1.7,1,,,,,0,15,15,63,,,,,,,,,,,,,,,,,,,1,space,10.9053146121,4,2.185,,,,,,,,,,,,,,,,,,2019_Feb_15_1559,60.41035100383804,Cloud_Experiment_FR_REAL,001,21,
images/fcloud80-20_D1.1_1.tif,1.1,2,,,,,0,16,16,81,,,,,,,,,,,,,,,,,,,1,space,3.11943817869,4,2.685,,,,,,,,,,,,,,,,,,2019_Feb_15_1559,60.41035100383804,Cloud_Experiment_FR_REAL,001,21,
images/fcloud65-35_D1.8_1.tif,1.8,1,,,,,0,17,17,66,,,,,,,,,,,,,,,,,,,1,space,3.65996321422,2,3.383,,,,,,,,,,,,,,,,,,2019_Feb_15_1559,60.41035100383804,Cloud_Experiment_FR_REAL,001,21,
images/fcloud80-20_D1.3_2.tif,1.3,2,,,,,0,18,18,88,,,,,,,,,,,,,,,,,,,1,space,6.65858503195,2,1.385,,,,,,,,,,,,,,,,,,2019_Feb_15_1559,60.41035100383804,Cloud_Experiment_FR_REAL,001,21,
images/fcloud80-20_D0.9_2.tif,0.9,2,,,,,0,19,19,76,,,,,,,,,,,,,,,,,,,None,None,,None,10.325,,,,,,,,,,,,,,,,,,2019_Feb_15_1559,60.41035100383804,Cloud_Experiment_FR_REAL,001,21,
images/fcloud_D0.8_2.tif,0.8,0,,,,,0,20,20,1,,,,,,,,,,,,,,,,,,,1,space,4.05633583438,2,3.216,,,,,,,,,,,,,,,,,,2019_Feb_15_1559,60.41035100383804,Cloud_Experiment_FR_REAL,001,21,
images/fcloud65-35_D1_1.tif,1.0,1,,,,,0,21,21,42,,,,,,,,,,,,,,,,,,,2,space,2.70878767254,3,2.567,,,,,,,,,,,,,,,,,,2019_Feb_15_1559,60.41035100383804,Cloud_Experiment_FR_REAL,001,21,
images/fcloud_D1_2.tif,1.0,0,,,,,0,22,22,7,,,,,,,,,,,,,,,,,,,2,space,2.18128828428,3,1.569,,,,,,,,,,,,,,,,,,2019_Feb_15_1559,60.41035100383804,Cloud_Experiment_FR_REAL,001,21,
images/fcloud80-20_D1.2_2.tif,1.2,2,,,,,0,23,23,85,,,,,,,,,,,,,,,,,,,1,space,2.4960726175,3,1.917,,,,,,,,,,,,,,,,,,2019_Feb_15_1559,60.41035100383804,Cloud_Experiment_FR_REAL,001,21,
images/fcloud65-35_D1.2_3.tif,1.2,1,,,,,0,24,24,50,,,,,,,,,,,,,,,,,,,2,space,3.78975086825,4,2.051,,,,,,,,,,,,,,,,,,2019_Feb_15_1559,60.41035100383804,Cloud_Experiment_FR_REAL,001,21,
images/fcloud80-20_D1.3_1.tif,1.3,2,,,,,0,25,25,87,,,,,,,,,,,,,,,,,,,1,None,,2,2.984,,,,,,,,,,,,,,,,,,2019_Feb_15_1559,60.41035100383804,Cloud_Experiment_FR_REAL,001,21,
images/fcloud80-20_D1.6_2.tif,1.6,2,,,,,0,26,26,97,,,,,,,,,,,,,,,,,,,1,space,2.76381883456,4,1.568,,,,,,,,,,,,,,,,,,2019_Feb_15_1559,60.41035100383804,Cloud_Experiment_FR_REAL,001,21,
images/fcloud_D1.7_1.tif,1.7,0,,,,,0,27,27,27,,,,,,,,,,,,,,,,,,,None,None,,None,10.693,,,,,,,,,,,,,,,,,,2019_Feb_15_1559,60.41035100383804,Cloud_Experiment_FR_REAL,001,21,
images/fcloud65-35_D1.8_2.tif,1.8,1,,,,,0,28,28,67,,,,,,,,,,,,,,,,,,,2,space,5.34229862911,3,1.469,,,,,,,,,,,,,,,,,,2019_Feb_15_1559,60.41035100383804,Cloud_Experiment_FR_REAL,001,21,
images/fcloud80-20_D1.6_1.tif,1.6,2,,,,,0,29,29,96,,,,,,,,,,,,,,,,,,,None,None,,None,11.61,,,,,,,,,,,,,,,,,,2019_Feb_15_1559,60.41035100383804,Cloud_Experiment_FR_REAL,001,21,
images/fcloud_D0.9_2.tif,0.9,0,,,,,0,30,30,4,,,,,,,,,,,,,,,,,,,1,space,4.95619991818,3,4.482,,,,,,,,,,,,,,,,,,2019_Feb_15_1559,60.41035100383804,Cloud_Experiment_FR_REAL,001,21,
images/fcloud_D1.2_3.tif,1.2,0,,,,,0,31,31,14,,,,,,,,,,,,,,,,,,,1,None,,3,1.435,,,,,,,,,,,,,,,,,,2019_Feb_15_1559,60.41035100383804,Cloud_Experiment_FR_REAL,001,21,
images/fcloud_D1_3.tif,1.0,0,,,,,0,32,32,8,,,,,,,,,,,,,,,,,,,1,space,3.3784793833,3,1.402,,,,,,,,,,,,,,,,,,2019_Feb_15_1559,60.41035100383804,Cloud_Experiment_FR_REAL,001,21,
images/fcloud_D0.8_3.tif,0.8,0,,,,,0,33,33,2,,,,,,,,,,,,,,,,,,,1,space,3.82756529015,4,1.953,,,,,,,,,,,,,,,,,,2019_Feb_15_1559,60.41035100383804,Cloud_Experiment_FR_REAL,001,21,
images/fcloud_D1.4_3.tif,1.4,0,,,,,0,34,34,20,,,,,,,,,,,,,,,,,,,1,space,4.65251763724,2,1.435,,,,,,,,,,,,,,,,,,2019_Feb_15_1559,60.41035100383804,Cloud_Experiment_FR_REAL,001,21,
images/fcloud65-35_D0.8_3.tif,0.8,1,,,,,0,35,35,38,,,,,,,,,,,,,,,,,,,None,None,,None,10.908,,,,,,,,,,,,,,,,,,2019_Feb_15_1559,60.41035100383804,Cloud_Experiment_FR_REAL,001,21,
images/fcloud65-35_D0.9_1.tif,0.9,1,,,,,0,36,36,39,,,,,,,,,,,,,,,,,,,None,None,,None,20.0,,,,,,,,,,,,,,,,,,2019_Feb_15_1559,60.41035100383804,Cloud_Experiment_FR_REAL,001,21,
images/fcloud_D1.3_3.tif,1.3,0,,,,,0,37,37,17,,,,,,,,,,,,,,,,,,,1,space,6.9923811864,3,1.45,,,,,,,,,,,,,,,,,,2019_Feb_15_1559,60.41035100383804,Cloud_Experiment_FR_REAL,001,21,
images/fcloud80-20_D1.8_2.tif,1.8,2,,,,,0,38,38,103,,,,,,,,,,,,,,,,,,,None,None,,None,10.641,,,,,,,,,,,,,,,,,,2019_Feb_15_1559,60.41035100383804,Cloud_Experiment_FR_REAL,001,21,
images/fcloud80-20_D1.4_3.tif,1.4,2,,,,,0,39,39,92,,,,,,,,,,,,,,,,,,,1,space,4.69080293382,1,1.419,,,,,,,,,,,,,,,,,,2019_Feb_15_1559,60.41035100383804,Cloud_Experiment_FR_REAL,001,21,
images/fcloud80-20_D1.8_3.tif,1.8,2,,,,,0,40,40,104,,,,,,,,,,,,,,,,,,,1,space,4.42498956469,2,1.052,,,,,,,,,,,,,,,,,,2019_Feb_15_1559,60.41035100383804,Cloud_Experiment_FR_REAL,001,21,
images/fcloud80-20_D1.4_2.tif,1.4,2,,,,,0,41,41,91,,,,,,,,,,,,,,,,,,,None,None,,None,10.727,,,,,,,,,,,,,,,,,,2019_Feb_15_1559,60.41035100383804,Cloud_Experiment_FR_REAL,001,21,
images/fcloud_D1.8_3.tif,1.8,0,,,,,0,42,42,32,,,,,,,,,,,,,,,,,,,2,space,2.51374635278,3,4.584,,,,,,,,,,,,,,,,,,2019_Feb_15_1559,60.41035100383804,Cloud_Experiment_FR_REAL,001,21,
images/fcloud65-35_D0.8_2.tif,0.8,1,,,,,0,43,43,37,,,,,,,,,,,,,,,,,,,1,space,3.9156306739,1,2.101,,,,,,,,,,,,,,,,,,2019_Feb_15_1559,60.41035100383804,Cloud_Experiment_FR_REAL,001,21,
images/fcloud65-35_D0.9_2.tif,0.9,1,,,,,0,44,44,40,,,,,,,,,,,,,,,,,,,1,space,3.20436165639,2,0.819,,,,,,,,,,,,,,,,,,2019_Feb_15_1559,60.41035100383804,Cloud_Experiment_FR_REAL,001,21,
images/fcloud_D0.9_3.tif,0.9,0,,,,,0,45,45,5,,,,,,,,,,,,,,,,,,,None,None,,None,10.142,,,,,,,,,,,,,,,,,,2019_Feb_15_1559,60.41035100383804,Cloud_Experiment_FR_REAL,001,21,
images/fcloud80-20_D1.9_2.tif,1.9,2,,,,,0,46,46,106,,,,,,,,,,,,,,,,,,,1,space,5.40304351581,1,1.802,,,,,,,,,,,,,,,,,,2019_Feb_15_1559,60.41035100383804,Cloud_Experiment_FR_REAL,001,21,
images/fcloud_D1.1_1.tif,1.1,0,,,,,0,47,47,9,,,,,,,,,,,,,,,,,,,None,None,,None,11.028,,,,,,,,,,,,,,,,,,2019_Feb_15_1559,60.41035100383804,Cloud_Experiment_FR_REAL,001,21,
images/fcloud80-20_D0.8_1.tif,0.8,2,,,,,0,48,48,72,,,,,,,,,,,,,,,,,,,1,space,6.31945349753,2,1.302,,,,,,,,,,,,,,,,,,2019_Feb_15_1559,60.41035100383804,Cloud_Experiment_FR_REAL,001,21,
images/fcloud80-20_D1_3.tif,1.0,2,,,,,0,49,49,80,,,,,,,,,,,,,,,,,,,None,None,,None,10.659,,,,,,,,,,,,,,,,,,2019_Feb_15_1559,60.41035100383804,Cloud_Experiment_FR_REAL,001,21,
images/fcloud80-20_D1.8_1.tif,1.8,2,,,,,0,50,50,102,,,,,,,,,,,,,,,,,,,1,space,2.44689448911,2,1.085,,,,,,,,,,,,,,,,,,2019_Feb_15_1559,60.41035100383804,Cloud_Experiment_FR_REAL,001,21,
images/fcloud_D1.5_2.tif,1.5,0,,,,,0,51,51,22,,,,,,,,,,,,,,,,,,,1,space,4.93543002781,2,0.985,,,,,,,,,,,,,,,,,,2019_Feb_15_1559,60.41035100383804,Cloud_Experiment_FR_REAL,001,21,
images/fcloud_D0.8_1.tif,0.8,0,,,,,0,52,52,0,,,,,,,,,,,,,,,,,,,1,space,4.1927306412,2,2.682,,,,,,,,,,,,,,,,,,2019_Feb_15_1559,60.41035100383804,Cloud_Experiment_FR_REAL,001,21,
images/fcloud65-35_D0.8_1.tif,0.8,1,,,,,0,53,53,36,,,,,,,,,,,,,,,,,,,2,space,2.8026557125,3,1.085,,,,,,,,,,,,,,,,,,2019_Feb_15_1559,60.41035100383804,Cloud_Experiment_FR_REAL,001,21,
images/fcloud80-20_D1.4_1.tif,1.4,2,,,,,0,54,54,90,,,,,,,,,,,,,,,,,,,None,None,,None,10.012,,,,,,,,,,,,,,,,,,2019_Feb_15_1559,60.41035100383804,Cloud_Experiment_FR_REAL,001,21,
images/fcloud65-35_D1.5_2.tif,1.5,1,,,,,0,55,55,58,,,,,,,,,,,,,,,,,,,1,space,6.75318354447,3,1.169,,,,,,,,,,,,,,,,,,2019_Feb_15_1559,60.41035100383804,Cloud_Experiment_FR_REAL,001,21,
images/fcloud80-20_D1.7_1.tif,1.7,2,,,,,0,56,56,99,,,,,,,,,,,,,,,,,,,1,space,3.0826235943,4,2.069,,,,,,,,,,,,,,,,,,2019_Feb_15_1559,60.41035100383804,Cloud_Experiment_FR_REAL,001,21,
images/fcloud80-20_D1.2_1.tif,1.2,2,,,,,0,57,57,84,,,,,,,,,,,,,,,,,,,1,space,7.51306522952,2,0.786,,,,,,,,,,,,,,,,,,2019_Feb_15_1559,60.41035100383804,Cloud_Experiment_FR_REAL,001,21,
images/fcloud65-35_D1.5_1.tif,1.5,1,,,,,0,58,58,57,,,,,,,,,,,,,,,,,,,1,space,3.86641039295,2,1.604,,,,,,,,,,,,,,,,,,2019_Feb_15_1559,60.41035100383804,Cloud_Experiment_FR_REAL,001,21,
images/fcloud80-20_D0.9_3.tif,0.9,2,,,,,0,59,59,77,,,,,,,,,,,,,,,,,,,1,space,3.04565016687,2,1.152,,,,,,,,,,,,,,,,,,2019_Feb_15_1559,60.41035100383804,Cloud_Experiment_FR_REAL,001,21,
images/fcloud65-35_D1.9_3.tif,1.9,1,,,,,0,60,60,71,,,,,,,,,,,,,,,,,,,1,space,4.01863707491,3,1.169,,,,,,,,,,,,,,,,,,2019_Feb_15_1559,60.41035100383804,Cloud_Experiment_FR_REAL,001,21,
images/fcloud65-35_D1.2_2.tif,1.2,1,,,,,0,61,61,49,,,,,,,,,,,,,,,,,,,1,space,5.84366653027,3,0.819,,,,,,,,,,,,,,,,,,2019_Feb_15_1559,60.41035100383804,Cloud_Experiment_FR_REAL,001,21,
images/fcloud65-35_D1.1_3.tif,1.1,1,,,,,0,62,62,47,,,,,,,,,,,,,,,,,,,2,space,3.36486103031,3,1.719,,,,,,,,,,,,,,,,,,2019_Feb_15_1559,60.41035100383804,Cloud_Experiment_FR_REAL,001,21,
images/fcloud80-20_D1.5_1.tif,1.5,2,,,,,0,63,63,93,,,,,,,,,,,,,,,,,,,1,space,5.97101961842,4,2.101,,,,,,,,,,,,,,,,,,2019_Feb_15_1559,60.41035100383804,Cloud_Experiment_FR_REAL,001,21,
images/fcloud65-35_D1.4_3.tif,1.4,1,,,,,0,64,64,56,,,,,,,,,,,,,,,,,,,1,space,2.07391241321,3,1.302,,,,,,,,,,,,,,,,,,2019_Feb_15_1559,60.41035100383804,Cloud_Experiment_FR_REAL,001,21,
images/fcloud65-35_D1.3_3.tif,1.3,1,,,,,0,65,65,53,,,,,,,,,,,,,,,,,,,None,None,,None,10.894,,,,,,,,,,,,,,,,,,2019_Feb_15_1559,60.41035100383804,Cloud_Experiment_FR_REAL,001,21,
images/fcloud_D1.1_3.tif,1.1,0,,,,,0,66,66,11,,,,,,,,,,,,,,,,,,,None,None,,None,20.068,,,,,,,,,,,,,,,,,,2019_Feb_15_1559,60.41035100383804,Cloud_Experiment_FR_REAL,001,21,
images/fcloud_D1.3_2.tif,1.3,0,,,,,0,67,67,16,,,,,,,,,,,,,,,,,,,1,space,4.3656372538,5,1.651,,,,,,,,,,,,,,,,,,2019_Feb_15_1559,60.41035100383804,Cloud_Experiment_FR_REAL,001,21,
images/fcloud_D1.6_1.tif,1.6,0,,,,,0,68,68,24,,,,,,,,,,,,,,,,,,,None,None,,None,10.975,,,,,,,,,,,,,,,,,,2019_Feb_15_1559,60.41035100383804,Cloud_Experiment_FR_REAL,001,21,
images/fcloud_D0.9_1.tif,0.9,0,,,,,0,69,69,3,,,,,,,,,,,,,,,,,,,None,None,,None,20.087,,,,,,,,,,,,,,,,,,2019_Feb_15_1559,60.41035100383804,Cloud_Experiment_FR_REAL,001,21,
images/fcloud80-20_D0.8_2.tif,0.8,2,,,,,0,70,70,73,,,,,,,,,,,,,,,,,,,1,space,6.86404265426,1,3.3,,,,,,,,,,,,,,,,,,2019_Feb_15_1559,60.41035100383804,Cloud_Experiment_FR_REAL,001,21,
images/fcloud65-35_D1.4_2.tif,1.4,1,,,,,0,71,71,55,,,,,,,,,,,,,,,,,,,None,None,,None,12.376,,,,,,,,,,,,,,,,,,2019_Feb_15_1559,60.41035100383804,Cloud_Experiment_FR_REAL,001,21,
images/fcloud80-20_D1.3_3.tif,1.3,2,,,,,0,72,72,89,,,,,,,,,,,,,,,,,,,1,space,4.95663943546,3,0.754,,,,,,,,,,,,,,,,,,2019_Feb_15_1559,60.41035100383804,Cloud_Experiment_FR_REAL,001,21,
images/fcloud_D1.3_1.tif,1.3,0,,,,,0,73,73,15,,,,,,,,,,,,,,,,,,,1,space,4.75198682374,3,1.518,,,,,,,,,,,,,,,,,,2019_Feb_15_1559,60.41035100383804,Cloud_Experiment_FR_REAL,001,21,
images/fcloud_D1.8_1.tif,1.8,0,,,,,0,74,74,30,,,,,,,,,,,,,,,,,,,None,None,,None,11.44,,,,,,,,,,,,,,,,,,2019_Feb_15_1559,60.41035100383804,Cloud_Experiment_FR_REAL,001,21,
images/fcloud80-20_D1.5_2.tif,1.5,2,,,,,0,75,75,94,,,,,,,,,,,,,,,,,,,1,space,6.85216849088,1,0.684,,,,,,,,,,,,,,,,,,2019_Feb_15_1559,60.41035100383804,Cloud_Experiment_FR_REAL,001,21,
images/fcloud_D1.9_2.tif,1.9,0,,,,,0,76,76,34,,,,,,,,,,,,,,,,,,,1,space,7.30636050901,2,1.235,,,,,,,,,,,,,,,,,,2019_Feb_15_1559,60.41035100383804,Cloud_Experiment_FR_REAL,001,21,
images/fcloud80-20_D1.7_3.tif,1.7,2,,,,,0,77,77,101,,,,,,,,,,,,,,,,,,,1,space,2.21262560939,2,1.184,,,,,,,,,,,,,,,,,,2019_Feb_15_1559,60.41035100383804,Cloud_Experiment_FR_REAL,001,21,
images/fcloud65-35_D1.2_1.tif,1.2,1,,,,,0,78,78,48,,,,,,,,,,,,,,,,,,,4,space,2.1073547948,4,3.8,,,,,,,,,,,,,,,,,,2019_Feb_15_1559,60.41035100383804,Cloud_Experiment_FR_REAL,001,21,
images/fcloud65-35_D1.9_1.tif,1.9,1,,,,,0,79,79,69,,,,,,,,,,,,,,,,,,,None,None,,None,14.239,,,,,,,,,,,,,,,,,,2019_Feb_15_1559,60.41035100383804,Cloud_Experiment_FR_REAL,001,21,
images/fcloud80-20_D1.1_2.tif,1.1,2,,,,,0,80,80,82,,,,,,,,,,,,,,,,,,,1,space,7.57609869039,2,1.833,,,,,,,,,,,,,,,,,,2019_Feb_15_1559,60.41035100383804,Cloud_Experiment_FR_REAL,001,21,
images/fcloud_D1.9_1.tif,1.9,0,,,,,0,81,81,33,,,,,,,,,,,,,,,,,,,1,space,7.42840906055,2,1.669,,,,,,,,,,,,,,,,,,2019_Feb_15_1559,60.41035100383804,Cloud_Experiment_FR_REAL,001,21,
images/fcloud65-35_D1.5_3.tif,1.5,1,,,,,0,82,82,59,,,,,,,,,,,,,,,,,,,None,None,,None,11.293,,,,,,,,,,,,,,,,,,2019_Feb_15_1559,60.41035100383804,Cloud_Experiment_FR_REAL,001,21,
images/fcloud_D1.2_2.tif,1.2,0,,,,,0,83,83,13,,,,,,,,,,,,,,,,,,,2,space,3.25931159771,2,1.951,,,,,,,,,,,,,,,,,,2019_Feb_15_1559,60.41035100383804,Cloud_Experiment_FR_REAL,001,21,
images/fcloud_D1.7_3.tif,1.7,0,,,,,0,84,84,29,,,,,,,,,,,,,,,,,,,1,space,4.28489818622,2,0.851,,,,,,,,,,,,,,,,,,2019_Feb_15_1559,60.41035100383804,Cloud_Experiment_FR_REAL,001,21,
images/fcloud_D1_1.tif,1.0,0,,,,,0,85,85,6,,,,,,,,,,,,,,,,,,,1,space,2.46768031517,4,1.335,,,,,,,,,,,,,,,,,,2019_Feb_15_1559,60.41035100383804,Cloud_Experiment_FR_REAL,001,21,
images/fcloud80-20_D1_2.tif,1.0,2,,,,,0,86,86,79,,,,,,,,,,,,,,,,,,,1,space,3.33268990746,1,0.736,,,,,,,,,,,,,,,,,,2019_Feb_15_1559,60.41035100383804,Cloud_Experiment_FR_REAL,001,21,
images/fcloud65-35_D1.8_3.tif,1.8,1,,,,,0,87,87,68,,,,,,,,,,,,,,,,,,,None,None,,None,10.061,,,,,,,,,,,,,,,,,,2019_Feb_15_1559,60.41035100383804,Cloud_Experiment_FR_REAL,001,21,
images/fcloud80-20_D1.6_3.tif,1.6,2,,,,,0,88,88,98,,,,,,,,,,,,,,,,,,,1,space,4.39859488123,3,1.535,,,,,,,,,,,,,,,,,,2019_Feb_15_1559,60.41035100383804,Cloud_Experiment_FR_REAL,001,21,
images/fcloud65-35_D0.9_3.tif,0.9,1,,,,,0,89,89,41,,,,,,,,,,,,,,,,,,,1,space,5.58334224363,3,1.686,,,,,,,,,,,,,,,,,,2019_Feb_15_1559,60.41035100383804,Cloud_Experiment_FR_REAL,001,21,
images/fcloud_D1.2_1.tif,1.2,0,,,,,0,90,90,12,,,,,,,,,,,,,,,,,,,1,space,2.85848263212,3,1.301,,,,,,,,,,,,,,,,,,2019_Feb_15_1559,60.41035100383804,Cloud_Experiment_FR_REAL,001,21,
images/fcloud80-20_D0.9_1.tif,0.9,2,,,,,0,91,91,75,,,,,,,,,,,,,,,,,,,None,None,,None,10.993,,,,,,,,,,,,,,,,,,2019_Feb_15_1559,60.41035100383804,Cloud_Experiment_FR_REAL,001,21,
images/fcloud_D1.6_3.tif,1.6,0,,,,,0,92,92,26,,,,,,,,,,,,,,,,,,,2,space,6.62638203768,3,1.419,,,,,,,,,,,,,,,,,,2019_Feb_15_1559,60.41035100383804,Cloud_Experiment_FR_REAL,001,21,
images/fcloud65-35_D1.3_1.tif,1.3,1,,,,,0,93,93,51,,,,,,,,,,,,,,,,,,,1,space,5.98248922025,3,0.919,,,,,,,,,,,,,,,,,,2019_Feb_15_1559,60.41035100383804,Cloud_Experiment_FR_REAL,001,21,
images/fcloud65-35_D1.7_2.tif,1.7,1,,,,,0,94,94,64,,,,,,,,,,,,,,,,,,,1,space,3.21277211516,3,1.253,,,,,,,,,,,,,,,,,,2019_Feb_15_1559,60.41035100383804,Cloud_Experiment_FR_REAL,001,21,
images/fcloud80-20_D1.9_1.tif,1.9,2,,,,,0,95,95,105,,,,,,,,,,,,,,,,,,,None,None,,None,10.228,,,,,,,,,,,,,,,,,,2019_Feb_15_1559,60.41035100383804,Cloud_Experiment_FR_REAL,001,21,
images/fcloud80-20_D1.5_3.tif,1.5,2,,,,,0,96,96,95,,,,,,,,,,,,,,,,,,,2,space,5.79762670948,2,1.802,,,,,,,,,,,,,,,,,,2019_Feb_15_1559,60.41035100383804,Cloud_Experiment_FR_REAL,001,21,
images/fcloud80-20_D1.7_2.tif,1.7,2,,,,,0,97,97,100,,,,,,,,,,,,,,,,,,,1,space,5.29528570164,2,0.968,,,,,,,,,,,,,,,,,,2019_Feb_15_1559,60.41035100383804,Cloud_Experiment_FR_REAL,001,21,
images/fcloud65-35_D1_3.tif,1.0,1,,,,,0,98,98,44,,,,,,,,,,,,,,,,,,,1,space,5.73456189124,3,1.218,,,,,,,,,,,,,,,,,,2019_Feb_15_1559,60.41035100383804,Cloud_Experiment_FR_REAL,001,21,
images/fcloud65-35_D1.9_2.tif,1.9,1,,,,,0,99,99,70,,,,,,,,,,,,,,,,,,,None,None,,None,10.459,,,,,,,,,,,,,,,,,,2019_Feb_15_1559,60.41035100383804,Cloud_Experiment_FR_REAL,001,21,
images/fcloud80-20_D1.2_3.tif,1.2,2,,,,,0,100,100,86,,,,,,,,,,,,,,,,,,,1,space,5.73477316796,1,1.169,,,,,,,,,,,,,,,,,,2019_Feb_15_1559,60.41035100383804,Cloud_Experiment_FR_REAL,001,21,
images/fcloud65-35_D1.4_1.tif,1.4,1,,,,,0,101,101,54,,,,,,,,,,,,,,,,,,,1,space,5.5347316323,2,1.485,,,,,,,,,,,,,,,,,,2019_Feb_15_1559,60.41035100383804,Cloud_Experiment_FR_REAL,001,21,
images/fcloud65-35_D1.6_2.tif,1.6,1,,,,,0,102,102,61,,,,,,,,,,,,,,,,,,,1,space,6.57361271896,2,0.87,,,,,,,,,,,,,,,,,,2019_Feb_15_1559,60.41035100383804,Cloud_Experiment_FR_REAL,001,21,
images/fcloud80-20_D1_1.tif,1.0,2,,,,,0,103,103,78,,,,,,,,,,,,,,,,,,,1,space,5.55374036919,1,1.668,,,,,,,,,,,,,,,,,,2019_Feb_15_1559,60.41035100383804,Cloud_Experiment_FR_REAL,001,21,
images/fcloud80-20_D1.9_3.tif,1.9,2,,,,,0,104,104,107,,,,,,,,,,,,,,,,,,,2,space,2.94154574373,2,1.469,,,,,,,,,,,,,,,,,,2019_Feb_15_1559,60.41035100383804,Cloud_Experiment_FR_REAL,001,21,
images/fcloud65-35_D1.6_1.tif,1.6,1,,,,,0,105,105,60,,,,,,,,,,,,,,,,,,,1,space,4.48556018664,2,0.919,,,,,,,,,,,,,,,,,,2019_Feb_15_1559,60.41035100383804,Cloud_Experiment_FR_REAL,001,21,
images/fcloud65-35_D1.3_2.tif,1.3,1,,,,,0,106,106,52,,,,,,,,,,,,,,,,,,,1,space,3.84564769937,2,1.618,,,,,,,,,,,,,,,,,,2019_Feb_15_1559,60.41035100383804,Cloud_Experiment_FR_REAL,001,21,
images/fcloud_D1.4_1.tif,1.4,0,,,,,0,107,107,18,,,,,,,,,,,,,,,,,,,1,space,2.51036592512,3,1.653,,,,,,,,,,,,,,,,,,2019_Feb_15_1559,60.41035100383804,Cloud_Experiment_FR_REAL,001,21,
,,,,,,,,,,,,,,,,,,,,,,,,,,,,,,,,,,,,,,,,,,,,,,space,3.24913844332,,,,2019_Feb_15_1559,60.41035100383804,Cloud_Experiment_FR_REAL,001,21,
,,,,,,,,,,,,,,,,,,,,,,,,,5,6.654,,,,,,,,,,,,,,,,,,,,,,,,,2019_Feb_15_1559,60.41035100383804,Cloud_Experiment_FR_REAL,001,21,
,,,,,,,,,,,,,,,,,,,,,,,,,,,,,,,,,,5,,,,,,,,,,,,,,,,,2019_Feb_15_1559,60.41035100383804,Cloud_Experiment_FR_REAL,001,21,
,,,,,,,,,,,,,,,,,,,,,,,,,,,,,,,,,,,4,,,,,,,,,,,,,,,,2019_Feb_15_1559,60.41035100383804,Cloud_Experiment_FR_REAL,001,21,
,,,,,,,,,,,,,,,,,,,,,,,,,,,,,,,,,,,,7,,,,,,,,,,,,,,,2019_Feb_15_1559,60.41035100383804,Cloud_Experiment_FR_REAL,001,21,
,,,,,,,,,,,,,,,,,,,,,,,,,,,,,,,,,,,,,3,,,,,,,,,,,,,,2019_Feb_15_1559,60.41035100383804,Cloud_Experiment_FR_REAL,001,21,
,,,,,,,,,,,,,,,,,,,,,,,,,,,,,,,,,,,,,,3,,,,,,,,,,,,,2019_Feb_15_1559,60.41035100383804,Cloud_Experiment_FR_REAL,001,21,
,,,,,,,,,,,,,,,,,,,,,,,,,,,,,,,,,,,,,,,5,,,,,,,,,,,,2019_Feb_15_1559,60.41035100383804,Cloud_Experiment_FR_REAL,001,21,
,,,,,,,,,,,,,,,,,,,,,,,,,,,,,,,,,,,,,,,,4,,,,,,,,,,,2019_Feb_15_1559,60.41035100383804,Cloud_Experiment_FR_REAL,001,21,
,,,,,,,,,,,,,,,,,,,,,,,,,,,,,,,,,,,,,,,,,7,,,,,,,,,,2019_Feb_15_1559,60.41035100383804,Cloud_Experiment_FR_REAL,001,21,
,,,,,,,,,,,,,,,,,,,,,,,,,,,,,,,,,,,,,,,,,,4,,,,,,,,,2019_Feb_15_1559,60.41035100383804,Cloud_Experiment_FR_REAL,001,21,
,,,,,,,,,,,,,,,,,,,,,,,,,,,,,,,,,,,,,,,,,,,4,,,,,,,,2019_Feb_15_1559,60.41035100383804,Cloud_Experiment_FR_REAL,001,21,
,,,,,,,,,,,,,,,,,,,,,,,,,,,,,,,,,,,,,,,,,,,,,,,,space,1.43595385016,,2019_Feb_15_1559,60.41035100383804,Cloud_Experiment_FR_REAL,001,21,
images/fcloud65-35_D1.6_6.tif,1.6,1,,,,,,,,,0,0,0,62,,,,,,,,,,,,,,,None,None,,None,278.277,,,,,,,,,,,,,,,,,,2019_Feb_15_1559,60.41035100383804,Cloud_Experiment_FR_REAL,001,21,
images/fcloud65-35_D1.6_5.tif,1.6,1,,,,,,,,,0,1,1,61,,,,,,,,,,,,,,,1,space,6.49502497283,2,1.236,,,,,,,,,,,,,,,,,,2019_Feb_15_1559,60.41035100383804,Cloud_Experiment_FR_REAL,001,21,
images/fcloud_D1.2_5.tif,1.2,0,,,,,,,,,0,2,2,13,,,,,,,,,,,,,,,1,space,4.55591019659,3,0.986,,,,,,,,,,,,,,,,,,2019_Feb_15_1559,60.41035100383804,Cloud_Experiment_FR_REAL,001,21,
images/fcloud65-35_D1.3_6.tif,1.3,1,,,,,,,,,0,3,3,53,,,,,,,,,,,,,,,None,None,,None,10.86,,,,,,,,,,,,,,,,,,2019_Feb_15_1559,60.41035100383804,Cloud_Experiment_FR_REAL,001,21,
images/fcloud80-20_D1.7_6.tif,1.7,2,,,,,,,,,0,4,4,101,,,,,,,,,,,,,,,1,space,5.47670352785,1,0.952,,,,,,,,,,,,,,,,,,2019_Feb_15_1559,60.41035100383804,Cloud_Experiment_FR_REAL,001,21,
images/fcloud80-20_D1.3_4.tif,1.3,2,,,,,,,,,0,5,5,87,,,,,,,,,,,,,,,1,space,4.4311602845,3,1.519,,,,,,,,,,,,,,,,,,2019_Feb_15_1559,60.41035100383804,Cloud_Experiment_FR_REAL,001,21,
images/fcloud80-20_D1.6_5.tif,1.6,2,,,,,,,,,0,6,6,97,,,,,,,,,,,,,,,None,None,,None,11.891,,,,,,,,,,,,,,,,,,2019_Feb_15_1559,60.41035100383804,Cloud_Experiment_FR_REAL,001,21,
images/fcloud80-20_D1.7_5.tif,1.7,2,,,,,,,,,0,7,7,100,,,,,,,,,,,,,,,1,space,4.54930150165,2,1.602,,,,,,,,,,,,,,,,,,2019_Feb_15_1559,60.41035100383804,Cloud_Experiment_FR_REAL,001,21,
images/fcloud80-20_D0.8_5.tif,0.8,2,,,,,,,,,0,8,8,73,,,,,,,,,,,,,,,1,space,7.39159807455,4,1.585,,,,,,,,,,,,,,,,,,2019_Feb_15_1559,60.41035100383804,Cloud_Experiment_FR_REAL,001,21,
images/fcloud65-35_D1.5_6.tif,1.5,1,,,,,,,,,0,9,9,59,,,,,,,,,,,,,,,None,None,,None,11.16,,,,,,,,,,,,,,,,,,2019_Feb_15_1559,60.41035100383804,Cloud_Experiment_FR_REAL,001,21,
images/fcloud80-20_D1.7_4.tif,1.7,2,,,,,,,,,0,10,10,99,,,,,,,,,,,,,,,None,None,,None,20.534,,,,,,,,,,,,,,,,,,2019_Feb_15_1559,60.41035100383804,Cloud_Experiment_FR_REAL,001,21,
images/fcloud_D1.2_6.tif,1.2,0,,,,,,,,,0,11,11,14,,,,,,,,,,,,,,,1,space,5.7486567735,4,4.715,,,,,,,,,,,,,,,,,,2019_Feb_15_1559,60.41035100383804,Cloud_Experiment_FR_REAL,001,21,
images/fcloud65-35_D1_5.tif,1.0,1,,,,,,,,,0,12,12,43,,,,,,,,,,,,,,,1,space,4.09328664342,3,1.9,,,,,,,,,,,,,,,,,,2019_Feb_15_1559,60.41035100383804,Cloud_Experiment_FR_REAL,001,21,
images/fcloud_D1.3_5.tif,1.3,0,,,,,,,,,0,13,13,16,,,,,,,,,,,,,,,1,space,6.95998130896,4,1.019,,,,,,,,,,,,,,,,,,2019_Feb_15_1559,60.41035100383804,Cloud_Experiment_FR_REAL,001,21,
images/fcloud_D1.9_5.tif,1.9,0,,,,,,,,,0,14,14,34,,,,,,,,,,,,,,,1,space,5.25397724585,3,2.101,,,,,,,,,,,,,,,,,,2019_Feb_15_1559,60.41035100383804,Cloud_Experiment_FR_REAL,001,21,
images/fcloud65-35_D1.1_4.tif,1.1,1,,,,,,,,,0,15,15,45,,,,,,,,,,,,,,,None,None,,None,11.642,,,,,,,,,,,,,,,,,,2019_Feb_15_1559,60.41035100383804,Cloud_Experiment_FR_REAL,001,21,
images/fcloud65-35_D1.7_5.tif,1.7,1,,,,,,,,,0,16,16,64,,,,,,,,,,,,,,,1,space,5.97508116934,3,1.535,,,,,,,,,,,,,,,,,,2019_Feb_15_1559,60.41035100383804,Cloud_Experiment_FR_REAL,001,21,
images/fcloud80-20_D1.6_4.tif,1.6,2,,,,,,,,,0,17,17,96,,,,,,,,,,,,,,,None,None,,None,11.459,,,,,,,,,,,,,,,,,,2019_Feb_15_1559,60.41035100383804,Cloud_Experiment_FR_REAL,001,21,
images/fcloud65-35_D1.3_4.tif,1.3,1,,,,,,,,,0,18,18,51,,,,,,,,,,,,,,,1,space,5.6590960029,2,1.252,,,,,,,,,,,,,,,,,,2019_Feb_15_1559,60.41035100383804,Cloud_Experiment_FR_REAL,001,21,
images/fcloud65-35_D1.8_6.tif,1.8,1,,,,,,,,,0,19,19,68,,,,,,,,,,,,,,,None,None,,None,10.377,,,,,,,,,,,,,,,,,,2019_Feb_15_1559,60.41035100383804,Cloud_Experiment_FR_REAL,001,21,
images/fcloud65-35_D1.5_4.tif,1.5,1,,,,,,,,,0,20,20,57,,,,,,,,,,,,,,,None,None,,None,19.351,,,,,,,,,,,,,,,,,,2019_Feb_15_1559,60.41035100383804,Cloud_Experiment_FR_REAL,001,21,
images/fcloud80-20_D1.9_4.tif,1.9,2,,,,,,,,,0,21,21,105,,,,,,,,,,,,,,,1,space,3.1747536133,4,3.317,,,,,,,,,,,,,,,,,,2019_Feb_15_1559,60.41035100383804,Cloud_Experiment_FR_REAL,001,21,
images/fcloud_D1.7_4.tif,1.7,0,,,,,,,,,0,22,22,27,,,,,,,,,,,,,,,2,space,6.07372581112,2,2.168,,,,,,,,,,,,,,,,,,2019_Feb_15_1559,60.41035100383804,Cloud_Experiment_FR_REAL,001,21,
images/fcloud_D1.4_5.tif,1.4,0,,,,,,,,,0,23,23,19,,,,,,,,,,,,,,,None,None,,None,11.128,,,,,,,,,,,,,,,,,,2019_Feb_15_1559,60.41035100383804,Cloud_Experiment_FR_REAL,001,21,
images/fcloud65-35_D1.9_5.tif,1.9,1,,,,,,,,,0,24,24,70,,,,,,,,,,,,,,,2,space,3.42949423127,3,1.485,,,,,,,,,,,,,,,,,,2019_Feb_15_1559,60.41035100383804,Cloud_Experiment_FR_REAL,001,21,
images/fcloud_D1.5_6.tif,1.5,0,,,,,,,,,0,25,25,23,,,,,,,,,,,,,,,None,None,,None,10.993,,,,,,,,,,,,,,,,,,2019_Feb_15_1559,60.41035100383804,Cloud_Experiment_FR_REAL,001,21,
images/fcloud80-20_D1.4_4.tif,1.4,2,,,,,,,,,0,26,26,90,,,,,,,,,,,,,,,1,space,4.79499731664,1,1.4,,,,,,,,,,,,,,,,,,2019_Feb_15_1559,60.41035100383804,Cloud_Experiment_FR_REAL,001,21,
images/fcloud_D1.9_6.tif,1.9,0,,,,,,,,,0,27,27,35,,,,,,,,,,,,,,,None,None,,None,11.291,,,,,,,,,,,,,,,,,,2019_Feb_15_1559,60.41035100383804,Cloud_Experiment_FR_REAL,001,21,
images/fcloud65-35_D1.3_5.tif,1.3,1,,,,,,,,,0,28,28,52,,,,,,,,,,,,,,,2,space,3.44349709764,3,2.352,,,,,,,,,,,,,,,,,,2019_Feb_15_1559,60.41035100383804,Cloud_Experiment_FR_REAL,001,21,
images/fcloud80-20_D1.1_5.tif,1.1,2,,,,,,,,,0,29,29,82,,,,,,,,,,,,,,,1,space,5.29419024981,2,1.536,,,,,,,,,,,,,,,,,,2019_Feb_15_1559,60.41035100383804,Cloud_Experiment_FR_REAL,001,21,
images/fcloud80-20_D0.8_6.tif,0.8,2,,,,,,,,,0,30,30,74,,,,,,,,,,,,,,,None,None,,None,10.96,,,,,,,,,,,,,,,,,,2019_Feb_15_1559,60.41035100383804,Cloud_Experiment_FR_REAL,001,21,
images/fcloud_D1.6_6.tif,1.6,0,,,,,,,,,0,31,31,26,,,,,,,,,,,,,,,2,space,4.40139802481,2,0.785,,,,,,,,,,,,,,,,,,2019_Feb_15_1559,60.41035100383804,Cloud_Experiment_FR_REAL,001,21,
images/fcloud65-35_D1.6_4.tif,1.6,1,,,,,,,,,0,32,32,60,,,,,,,,,,,,,,,1,space,7.15970515844,3,1.917,,,,,,,,,,,,,,,,,,2019_Feb_15_1559,60.41035100383804,Cloud_Experiment_FR_REAL,001,21,
images/fcloud65-35_D0.9_6.tif,0.9,1,,,,,,,,,0,33,33,41,,,,,,,,,,,,,,,1,space,2.83242516898,2,0.919,,,,,,,,,,,,,,,,,,2019_Feb_15_1559,60.41035100383804,Cloud_Experiment_FR_REAL,001,21,
images/fcloud65-35_D1.8_4.tif,1.8,1,,,,,,,,,0,34,34,66,,,,,,,,,,,,,,,None,None,,None,11.293,,,,,,,,,,,,,,,,,,2019_Feb_15_1559,60.41035100383804,Cloud_Experiment_FR_REAL,001,21,
images/fcloud80-20_D1.9_5.tif,1.9,2,,,,,,,,,0,35,35,106,,,,,,,,,,,,,,,1,space,4.1057252395,2,0.769,,,,,,,,,,,,,,,,,,2019_Feb_15_1559,60.41035100383804,Cloud_Experiment_FR_REAL,001,21,
images/fcloud80-20_D1.4_6.tif,1.4,2,,,,,,,,,0,36,36,92,,,,,,,,,,,,,,,1,space,2.18019386052,2,0.835,,,,,,,,,,,,,,,,,,2019_Feb_15_1559,60.41035100383804,Cloud_Experiment_FR_REAL,001,21,
images/fcloud_D1.3_4.tif,1.3,0,,,,,,,,,0,37,37,15,,,,,,,,,,,,,,,1,space,4.80229998622,3,0.936,,,,,,,,,,,,,,,,,,2019_Feb_15_1559,60.41035100383804,Cloud_Experiment_FR_REAL,001,21,
images/fcloud80-20_D0.8_4.tif,0.8,2,,,,,,,,,0,38,38,72,,,,,,,,,,,,,,,2,space,1.56355779729,3,1.585,,,,,,,,,,,,,,,,,,2019_Feb_15_1559,60.41035100383804,Cloud_Experiment_FR_REAL,001,21,
images/fcloud65-35_D1_4.tif,1.0,1,,,,,,,,,0,39,39,42,,,,,,,,,,,,,,,1,space,4.11037075723,2,1.967,,,,,,,,,,,,,,,,,,2019_Feb_15_1559,60.41035100383804,Cloud_Experiment_FR_REAL,001,21,
images/fcloud_D1.3_6.tif,1.3,0,,,,,,,,,0,40,40,17,,,,,,,,,,,,,,,1,space,3.60324903511,4,3.149,,,,,,,,,,,,,,,,,,2019_Feb_15_1559,60.41035100383804,Cloud_Experiment_FR_REAL,001,21,
images/fcloud65-35_D0.9_5.tif,0.9,1,,,,,,,,,0,41,41,40,,,,,,,,,,,,,,,1,space,5.09759134249,2,1.468,,,,,,,,,,,,,,,,,,2019_Feb_15_1559,60.41035100383804,Cloud_Experiment_FR_REAL,001,21,
images/fcloud65-35_D1.4_4.tif,1.4,1,,,,,,,,,0,42,42,54,,,,,,,,,,,,,,,1,None,,3,1.819,,,,,,,,,,,,,,,,,,2019_Feb_15_1559,60.41035100383804,Cloud_Experiment_FR_REAL,001,21,
images/fcloud80-20_D0.9_5.tif,0.9,2,,,,,,,,,0,43,43,76,,,,,,,,,,,,,,,1,space,2.6644149331,4,2.119,,,,,,,,,,,,,,,,,,2019_Feb_15_1559,60.41035100383804,Cloud_Experiment_FR_REAL,001,21,
images/fcloud80-20_D0.9_4.tif,0.9,2,,,,,,,,,0,44,44,75,,,,,,,,,,,,,,,None,None,,None,11.392,,,,,,,,,,,,,,,,,,2019_Feb_15_1559,60.41035100383804,Cloud_Experiment_FR_REAL,001,21,
images/fcloud_D1.4_4.tif,1.4,0,,,,,,,,,0,45,45,18,,,,,,,,,,,,,,,None,None,,None,20.734,,,,,,,,,,,,,,,,,,2019_Feb_15_1559,60.41035100383804,Cloud_Experiment_FR_REAL,001,21,
images/fcloud_D1.1_5.tif,1.1,0,,,,,,,,,0,46,46,10,,,,,,,,,,,,,,,None,None,,None,29.993,,,,,,,,,,,,,,,,,,2019_Feb_15_1559,60.41035100383804,Cloud_Experiment_FR_REAL,001,21,
images/fcloud65-35_D1.5_5.tif,1.5,1,,,,,,,,,0,47,47,58,,,,,,,,,,,,,,,1,space,5.14492144209,2,2.75,,,,,,,,,,,,,,,,,,2019_Feb_15_1559,60.41035100383804,Cloud_Experiment_FR_REAL,001,21,
images/fcloud_D1.4_6.tif,1.4,0,,,,,,,,,0,48,48,20,,,,,,,,,,,,,,,1,space,3.32482023485,4,1.785,,,,,,,,,,,,,,,,,,2019_Feb_15_1559,60.41035100383804,Cloud_Experiment_FR_REAL,001,21,
images/fcloud_D1.2_4.tif,1.2,0,,,,,,,,,0,49,49,12,,,,,,,,,,,,,,,1,space,2.97490998893,3,1.052,,,,,,,,,,,,,,,,,,2019_Feb_15_1559,60.41035100383804,Cloud_Experiment_FR_REAL,001,21,
images/fcloud_D1.9_4.tif,1.9,0,,,,,,,,,0,50,50,33,,,,,,,,,,,,,,,1,None,,2,1.751,,,,,,,,,,,,,,,,,,2019_Feb_15_1559,60.41035100383804,Cloud_Experiment_FR_REAL,001,21,
images/fcloud_D1.8_5.tif,1.8,0,,,,,,,,,0,51,51,31,,,,,,,,,,,,,,,None,None,,None,11.311,,,,,,,,,,,,,,,,,,2019_Feb_15_1559,60.41035100383804,Cloud_Experiment_FR_REAL,001,21,
images/fcloud_D1.8_4.tif,1.8,0,,,,,,,,,0,52,52,30,,,,,,,,,,,,,,,None,None,,None,20.6,,,,,,,,,,,,,,,,,,2019_Feb_15_1559,60.41035100383804,Cloud_Experiment_FR_REAL,001,21,
images/fcloud80-20_D1.2_6.tif,1.2,2,,,,,,,,,0,53,53,86,,,,,,,,,,,,,,,2,space,4.05685708646,2,3.683,,,,,,,,,,,,,,,,,,2019_Feb_15_1559,60.41035100383804,Cloud_Experiment_FR_REAL,001,21,
images/fcloud80-20_D1.8_5.tif,1.8,2,,,,,,,,,0,54,54,103,,,,,,,,,,,,,,,None,None,,None,13.357,,,,,,,,,,,,,,,,,,2019_Feb_15_1559,60.41035100383804,Cloud_Experiment_FR_REAL,001,21,
images/fcloud_D1.5_4.tif,1.5,0,,,,,,,,,0,55,55,21,,,,,,,,,,,,,,,None,None,,None,22.585,,,,,,,,,,,,,,,,,,2019_Feb_15_1559,60.41035100383804,Cloud_Experiment_FR_REAL,001,21,
images/fcloud80-20_D1.8_6.tif,1.8,2,,,,,,,,,0,56,56,104,,,,,,,,,,,,,,,1,space,4.5629399028,3,3.1,,,,,,,,,,,,,,,,,,2019_Feb_15_1559,60.41035100383804,Cloud_Experiment_FR_REAL,001,21,
images/fcloud80-20_D1.4_5.tif,1.4,2,,,,,,,,,0,57,57,91,,,,,,,,,,,,,,,None,None,,None,12.624,,,,,,,,,,,,,,,,,,2019_Feb_15_1559,60.41035100383804,Cloud_Experiment_FR_REAL,001,21,
images/fcloud_D1.1_6.tif,1.1,0,,,,,,,,,0,58,58,11,,,,,,,,,,,,,,,2,space,3.72190584976,4,1.951,,,,,,,,,,,,,,,,,,2019_Feb_15_1559,60.41035100383804,Cloud_Experiment_FR_REAL,001,21,
images/fcloud_D1_4.tif,1.0,0,,,,,,,,,0,59,59,6,,,,,,,,,,,,,,,1,space,5.30951166805,3,1.935,,,,,,,,,,,,,,,,,,2019_Feb_15_1559,60.41035100383804,Cloud_Experiment_FR_REAL,001,21,
images/fcloud65-35_D1_6.tif,1.0,1,,,,,,,,,0,60,60,44,,,,,,,,,,,,,,,2,space,4.50429184773,3,6.465,,,,,,,,,,,,,,,,,,2019_Feb_15_1559,60.41035100383804,Cloud_Experiment_FR_REAL,001,21,
images/fcloud_D1.7_6.tif,1.7,0,,,,,,,,,0,61,61,29,,,,,,,,,,,,,,,None,None,,None,16.874,,,,,,,,,,,,,,,,,,2019_Feb_15_1559,60.41035100383804,Cloud_Experiment_FR_REAL,001,21,
images/fcloud65-35_D1.9_6.tif,1.9,1,,,,,,,,,0,62,62,71,,,,,,,,,,,,,,,1,space,5.71358689285,3,1.335,,,,,,,,,,,,,,,,,,2019_Feb_15_1559,60.41035100383804,Cloud_Experiment_FR_REAL,001,21,
images/fcloud_D0.9_6.tif,0.9,0,,,,,,,,,0,63,63,5,,,,,,,,,,,,,,,1,None,,2,1.901,,,,,,,,,,,,,,,,,,2019_Feb_15_1559,60.41035100383804,Cloud_Experiment_FR_REAL,001,21,
images/fcloud65-35_D1.4_6.tif,1.4,1,,,,,,,,,0,64,64,56,,,,,,,,,,,,,,,None,None,,None,11.774,,,,,,,,,,,,,,,,,,2019_Feb_15_1559,60.41035100383804,Cloud_Experiment_FR_REAL,001,21,
images/fcloud80-20_D1.1_4.tif,1.1,2,,,,,,,,,0,65,65,81,,,,,,,,,,,,,,,1,space,4.53353234127,4,4.199,,,,,,,,,,,,,,,,,,2019_Feb_15_1559,60.41035100383804,Cloud_Experiment_FR_REAL,001,21,
images/fcloud_D1.8_6.tif,1.8,0,,,,,,,,,0,66,66,32,,,,,,,,,,,,,,,None,None,,None,13.69,,,,,,,,,,,,,,,,,,2019_Feb_15_1559,60.41035100383804,Cloud_Experiment_FR_REAL,001,21,
images/fcloud_D1_5.tif,1.0,0,,,,,,,,,0,67,67,7,,,,,,,,,,,,,,,None,space,4.89634486119,None,23.149,,,,,,,,,,,,,,,,,,2019_Feb_15_1559,60.41035100383804,Cloud_Experiment_FR_REAL,001,21,
images/fcloud_D1.7_5.tif,1.7,0,,,,,,,,,0,68,68,28,,,,,,,,,,,,,,,None,None,,None,32.724,,,,,,,,,,,,,,,,,,2019_Feb_15_1559,60.41035100383804,Cloud_Experiment_FR_REAL,001,21,
images/fcloud65-35_D1.1_6.tif,1.1,1,,,,,,,,,0,69,69,47,,,,,,,,,,,,,,,2,space,3.51087432582,3,1.301,,,,,,,,,,,,,,,,,,2019_Feb_15_1559,60.41035100383804,Cloud_Experiment_FR_REAL,001,21,
images/fcloud_D0.9_4.tif,0.9,0,,,,,,,,,0,70,70,3,,,,,,,,,,,,,,,1,space,2.11193297131,5,2.418,,,,,,,,,,,,,,,,,,2019_Feb_15_1559,60.41035100383804,Cloud_Experiment_FR_REAL,001,21,
images/fcloud80-20_D1_5.tif,1.0,2,,,,,,,,,0,71,71,79,,,,,,,,,,,,,,,None,None,,None,11.608,,,,,,,,,,,,,,,,,,2019_Feb_15_1559,60.41035100383804,Cloud_Experiment_FR_REAL,001,21,
images/fcloud80-20_D1.5_6.tif,1.5,2,,,,,,,,,0,72,72,95,,,,,,,,,,,,,,,1,space,2.07079312563,1,2.701,,,,,,,,,,,,,,,,,,2019_Feb_15_1559,60.41035100383804,Cloud_Experiment_FR_REAL,001,21,
images/fcloud_D1.1_4.tif,1.1,0,,,,,,,,,0,73,73,9,,,,,,,,,,,,,,,1,space,5.47065155482,2,1.751,,,,,,,,,,,,,,,,,,2019_Feb_15_1559,60.41035100383804,Cloud_Experiment_FR_REAL,001,21,
images/fcloud80-20_D1.1_6.tif,1.1,2,,,,,,,,,0,74,74,83,,,,,,,,,,,,,,,1,space,4.41625782134,3,3.264,,,,,,,,,,,,,,,,,,2019_Feb_15_1559,60.41035100383804,Cloud_Experiment_FR_REAL,001,21,
images/fcloud65-35_D1.7_6.tif,1.7,1,,,,,,,,,0,75,75,65,,,,,,,,,,,,,,,None,None,,None,12.624,,,,,,,,,,,,,,,,,,2019_Feb_15_1559,60.41035100383804,Cloud_Experiment_FR_REAL,001,21,
images/fcloud_D0.9_5.tif,0.9,0,,,,,,,,,0,76,76,4,,,,,,,,,,,,,,,1,space,3.34689376946,4,2.867,,,,,,,,,,,,,,,,,,2019_Feb_15_1559,60.41035100383804,Cloud_Experiment_FR_REAL,001,21,
images/fcloud80-20_D1_6.tif,1.0,2,,,,,,,,,0,77,77,80,,,,,,,,,,,,,,,1,space,7.2548562804,2,1.618,,,,,,,,,,,,,,,,,,2019_Feb_15_1559,60.41035100383804,Cloud_Experiment_FR_REAL,001,21,
images/fcloud_D1.6_5.tif,1.6,0,,,,,,,,,0,78,78,25,,,,,,,,,,,,,,,1,space,7.68382514716,2,1.051,,,,,,,,,,,,,,,,,,2019_Feb_15_1559,60.41035100383804,Cloud_Experiment_FR_REAL,001,21,
images/fcloud_D0.8_4.tif,0.8,0,,,,,,,,,0,79,79,0,,,,,,,,,,,,,,,1,space,5.24644582166,2,2.033,,,,,,,,,,,,,,,,,,2019_Feb_15_1559,60.41035100383804,Cloud_Experiment_FR_REAL,001,21,
images/fcloud65-35_D1.2_6.tif,1.2,1,,,,,,,,,0,80,80,50,,,,,,,,,,,,,,,1,space,5.21037918775,3,1.019,,,,,,,,,,,,,,,,,,2019_Feb_15_1559,60.41035100383804,Cloud_Experiment_FR_REAL,001,21,
images/fcloud65-35_D1.7_4.tif,1.7,1,,,,,,,,,0,81,81,63,,,,,,,,,,,,,,,None,None,,None,11.657,,,,,,,,,,,,,,,,,,2019_Feb_15_1559,60.41035100383804,Cloud_Experiment_FR_REAL,001,21,
images/fcloud_D1.5_5.tif,1.5,0,,,,,,,,,0,82,82,22,,,,,,,,,,,,,,,1,space,5.25801926269,3,2.317,,,,,,,,,,,,,,,,,,2019_Feb_15_1559,60.41035100383804,Cloud_Experiment_FR_REAL,001,21,
images/fcloud80-20_D1.3_6.tif,1.3,2,,,,,,,,,0,83,83,89,,,,,,,,,,,,,,,None,None,,None,11.957,,,,,,,,,,,,,,,,,,2019_Feb_15_1559,60.41035100383804,Cloud_Experiment_FR_REAL,001,21,
images/fcloud80-20_D1_4.tif,1.0,2,,,,,,,,,0,84,84,78,,,,,,,,,,,,,,,1,space,7.83423361549,2,1.735,,,,,,,,,,,,,,,,,,2019_Feb_15_1559,60.41035100383804,Cloud_Experiment_FR_REAL,001,21,
images/fcloud_D1_6.tif,1.0,0,,,,,,,,,0,85,85,8,,,,,,,,,,,,,,,1,None,,3,6.296,,,,,,,,,,,,,,,,,,2019_Feb_15_1559,60.41035100383804,Cloud_Experiment_FR_REAL,001,21,
images/fcloud65-35_D0.8_5.tif,0.8,1,,,,,,,,,0,86,86,37,,,,,,,,,,,,,,,2,space,3.29793565674,2,1.516,,,,,,,,,,,,,,,,,,2019_Feb_15_1559,60.41035100383804,Cloud_Experiment_FR_REAL,001,21,
images/fcloud80-20_D1.6_6.tif,1.6,2,,,,,,,,,0,87,87,98,,,,,,,,,,,,,,,None,None,,None,11.291,,,,,,,,,,,,,,,,,,2019_Feb_15_1559,60.41035100383804,Cloud_Experiment_FR_REAL,001,21,
images/fcloud80-20_D1.5_5.tif,1.5,2,,,,,,,,,0,88,88,94,,,,,,,,,,,,,,,None,None,,None,21.499,,,,,,,,,,,,,,,,,,2019_Feb_15_1559,60.41035100383804,Cloud_Experiment_FR_REAL,001,21,
images/fcloud65-35_D1.9_4.tif,1.9,1,,,,,,,,,0,89,89,69,,,,,,,,,,,,,,,None,None,,None,31.989,,,,,,,,,,,,,,,,,,2019_Feb_15_1559,60.41035100383804,Cloud_Experiment_FR_REAL,001,21,
images/fcloud65-35_D1.2_5.tif,1.2,1,,,,,,,,,0,90,90,49,,,,,,,,,,,,,,,1,space,4.27445720902,3,1.918,,,,,,,,,,,,,,,,,,2019_Feb_15_1559,60.41035100383804,Cloud_Experiment_FR_REAL,001,21,
images/fcloud65-35_D0.8_6.tif,0.8,1,,,,,,,,,0,91,91,38,,,,,,,,,,,,,,,1,space,4.92684941675,2,1.618,,,,,,,,,,,,,,,,,,2019_Feb_15_1559,60.41035100383804,Cloud_Experiment_FR_REAL,001,21,
images/fcloud65-35_D1.1_5.tif,1.1,1,,,,,,,,,0,92,92,46,,,,,,,,,,,,,,,1,space,3.79192583621,3,0.685,,,,,,,,,,,,,,,,,,2019_Feb_15_1559,60.41035100383804,Cloud_Experiment_FR_REAL,001,21,
images/fcloud_D1.6_4.tif,1.6,0,,,,,,,,,0,93,93,24,,,,,,,,,,,,,,,1,space,3.39726450611,3,1.217,,,,,,,,,,,,,,,,,,2019_Feb_15_1559,60.41035100383804,Cloud_Experiment_FR_REAL,001,21,
images/fcloud80-20_D1.8_4.tif,1.8,2,,,,,,,,,0,94,94,102,,,,,,,,,,,,,,,None,None,,None,10.694,,,,,,,,,,,,,,,,,,2019_Feb_15_1559,60.41035100383804,Cloud_Experiment_FR_REAL,001,21,
images/fcloud65-35_D0.8_4.tif,0.8,1,,,,,,,,,0,95,95,36,,,,,,,,,,,,,,,1,space,4.69312903404,4,1.201,,,,,,,,,,,,,,,,,,2019_Feb_15_1559,60.41035100383804,Cloud_Experiment_FR_REAL,001,21,
images/fcloud80-20_D1.5_4.tif,1.5,2,,,,,,,,,0,96,96,93,,,,,,,,,,,,,,,1,space,1.87798126371,2,1.101,,,,,,,,,,,,,,,,,,2019_Feb_15_1559,60.41035100383804,Cloud_Experiment_FR_REAL,001,21,
images/fcloud_D0.8_6.tif,0.8,0,,,,,,,,,0,97,97,2,,,,,,,,,,,,,,,1,space,2.3218160957,4,1.07,,,,,,,,,,,,,,,,,,2019_Feb_15_1559,60.41035100383804,Cloud_Experiment_FR_REAL,001,21,
images/fcloud80-20_D1.9_6.tif,1.9,2,,,,,,,,,0,98,98,107,,,,,,,,,,,,,,,None,None,,None,10.775,,,,,,,,,,,,,,,,,,2019_Feb_15_1559,60.41035100383804,Cloud_Experiment_FR_REAL,001,21,
images/fcloud65-35_D1.2_4.tif,1.2,1,,,,,,,,,0,99,99,48,,,,,,,,,,,,,,,1,space,6.80778804061,3,1.535,,,,,,,,,,,,,,,,,,2019_Feb_15_1559,60.41035100383804,Cloud_Experiment_FR_REAL,001,21,
images/fcloud65-35_D1.4_5.tif,1.4,1,,,,,,,,,0,100,100,55,,,,,,,,,,,,,,,1,None,,2,0.836,,,,,,,,,,,,,,,,,,2019_Feb_15_1559,60.41035100383804,Cloud_Experiment_FR_REAL,001,21,
images/fcloud80-20_D1.2_4.tif,1.2,2,,,,,,,,,0,101,101,84,,,,,,,,,,,,,,,1,space,5.31782240007,2,0.869,,,,,,,,,,,,,,,,,,2019_Feb_15_1559,60.41035100383804,Cloud_Experiment_FR_REAL,001,21,
images/fcloud_D0.8_5.tif,0.8,0,,,,,,,,,0,102,102,1,,,,,,,,,,,,,,,2,space,4.82011508671,3,3.8,,,,,,,,,,,,,,,,,,2019_Feb_15_1559,60.41035100383804,Cloud_Experiment_FR_REAL,001,21,
images/fcloud80-20_D1.2_5.tif,1.2,2,,,,,,,,,0,103,103,85,,,,,,,,,,,,,,,1,space,4.20242778037,4,1.235,,,,,,,,,,,,,,,,,,2019_Feb_15_1559,60.41035100383804,Cloud_Experiment_FR_REAL,001,21,
images/fcloud80-20_D1.3_5.tif,1.3,2,,,,,,,,,0,104,104,88,,,,,,,,,,,,,,,2,space,4.43806867368,3,1.101,,,,,,,,,,,,,,,,,,2019_Feb_15_1559,60.41035100383804,Cloud_Experiment_FR_REAL,001,21,
images/fcloud80-20_D0.9_6.tif,0.9,2,,,,,,,,,0,105,105,77,,,,,,,,,,,,,,,1,space,3.1592779785,3,1.501,,,,,,,,,,,,,,,,,,2019_Feb_15_1559,60.41035100383804,Cloud_Experiment_FR_REAL,001,21,
images/fcloud65-35_D1.8_5.tif,1.8,1,,,,,,,,,0,106,106,67,,,,,,,,,,,,,,,1,space,3.49027870022,4,1.302,,,,,,,,,,,,,,,,,,2019_Feb_15_1559,60.41035100383804,Cloud_Experiment_FR_REAL,001,21,
images/fcloud65-35_D0.9_4.tif,0.9,1,,,,,,,,,0,107,107,39,,,,,,,,,,,,,,,None,None,,None,10.776,,,,,,,,,,,,,,,,,,2019_Feb_15_1559,60.41035100383804,Cloud_Experiment_FR_REAL,001,21,
,,,,,,,,,,,,,,,,,,,,,,,,,,,,,,,,,,,,,,,,,,,,,,space,3.46463093915,,,,2019_Feb_15_1559,60.41035100383804,Cloud_Experiment_FR_REAL,001,21,
,,,,,,,,,,,,,,,,,,,,,,,,,4,6.441,,,,,,,,,,,,,,,,,,,,,,,,,2019_Feb_15_1559,60.41035100383804,Cloud_Experiment_FR_REAL,001,21,
,,,,,,,,,,,,,,,,,,,,,,,,,,,,,,,,,,5,,,,,,,,,,,,,,,,,2019_Feb_15_1559,60.41035100383804,Cloud_Experiment_FR_REAL,001,21,
,,,,,,,,,,,,,,,,,,,,,,,,,,,,,,,,,,,4,,,,,,,,,,,,,,,,2019_Feb_15_1559,60.41035100383804,Cloud_Experiment_FR_REAL,001,21,
,,,,,,,,,,,,,,,,,,,,,,,,,,,,,,,,,,,,6,,,,,,,,,,,,,,,2019_Feb_15_1559,60.41035100383804,Cloud_Experiment_FR_REAL,001,21,
,,,,,,,,,,,,,,,,,,,,,,,,,,,,,,,,,,,,,3,,,,,,,,,,,,,,2019_Feb_15_1559,60.41035100383804,Cloud_Experiment_FR_REAL,001,21,
,,,,,,,,,,,,,,,,,,,,,,,,,,,,,,,,,,,,,,3,,,,,,,,,,,,,2019_Feb_15_1559,60.41035100383804,Cloud_Experiment_FR_REAL,001,21,
,,,,,,,,,,,,,,,,,,,,,,,,,,,,,,,,,,,,,,,4,,,,,,,,,,,,2019_Feb_15_1559,60.41035100383804,Cloud_Experiment_FR_REAL,001,21,
,,,,,,,,,,,,,,,,,,,,,,,,,,,,,,,,,,,,,,,,4,,,,,,,,,,,2019_Feb_15_1559,60.41035100383804,Cloud_Experiment_FR_REAL,001,21,
,,,,,,,,,,,,,,,,,,,,,,,,,,,,,,,,,,,,,,,,,7,,,,,,,,,,2019_Feb_15_1559,60.41035100383804,Cloud_Experiment_FR_REAL,001,21,
,,,,,,,,,,,,,,,,,,,,,,,,,,,,,,,,,,,,,,,,,,6,,,,,,,,,2019_Feb_15_1559,60.41035100383804,Cloud_Experiment_FR_REAL,001,21,
,,,,,,,,,,,,,,,,,,,,,,,,,,,,,,,,,,,,,,,,,,,4,,,,,,,,2019_Feb_15_1559,60.41035100383804,Cloud_Experiment_FR_REAL,001,21,
,,,,,,,,,,,,,,,,,,,,,,,,,,,,,,,,,,,,,,,,,,,,,,,,space,199.161690954,,2019_Feb_15_1559,60.41035100383804,Cloud_Experiment_FR_REAL,001,21,
images/fcloud80-20_D1.7_9.tif,1.7,2,,,,,,,,,,,,,0,0,0,134,,,,,,,,,,,1,space,4.54022431315,3,1.287,,,,,,,,,,,,,,,,,,2019_Feb_15_1559,60.41035100383804,Cloud_Experiment_FR_REAL,001,21,
images/fcloud_D1.3_8.tif,1.3,0,,,,,,,,,,,,,0,1,1,21,,,,,,,,,,,1,space,5.71624455875,1,1.852,,,,,,,,,,,,,,,,,,2019_Feb_15_1559,60.41035100383804,Cloud_Experiment_FR_REAL,001,21,
images/fcloud65-35_D0.8_8.tif,0.8,1,,,,,,,,,,,,,0,2,2,49,,,,,,,,,,,None,None,,None,11.741,,,,,,,,,,,,,,,,,,2019_Feb_15_1559,60.41035100383804,Cloud_Experiment_FR_REAL,001,21,
images/fcloud80-20_D1.8_10.tif,1.8,2,,,,,,,,,,,,,0,3,3,139,,,,,,,,,,,None,None,,None,21.801,,,,,,,,,,,,,,,,,,2019_Feb_15_1559,60.41035100383804,Cloud_Experiment_FR_REAL,001,21,
images/fcloud80-20_D1.9_8.tif,1.9,2,,,,,,,,,,,,,0,4,4,141,,,,,,,,,,,1,space,6.11690697036,2,1.918,,,,,,,,,,,,,,,,,,2019_Feb_15_1559,60.41035100383804,Cloud_Experiment_FR_REAL,001,21,
images/fcloud65-35_D1.8_10.tif,1.8,1,,,,,,,,,,,,,0,5,5,91,,,,,,,,,,,2,space,3.71434255413,3,1.119,,,,,,,,,,,,,,,,,,2019_Feb_15_1559,60.41035100383804,Cloud_Experiment_FR_REAL,001,21,
images/fcloud80-20_D1.2_7.tif,1.2,2,,,,,,,,,,,,,0,6,6,112,,,,,,,,,,,None,None,,None,10.808,,,,,,,,,,,,,,,,,,2019_Feb_15_1559,60.41035100383804,Cloud_Experiment_FR_REAL,001,21,
images/fcloud_D1.8_8.tif,1.8,0,,,,,,,,,,,,,0,7,7,41,,,,,,,,,,,None,None,,None,19.95,,,,,,,,,,,,,,,,,,2019_Feb_15_1559,60.41035100383804,Cloud_Experiment_FR_REAL,001,21,
images/fcloud80-20_D0.9_7.tif,0.9,2,,,,,,,,,,,,,0,8,8,100,,,,,,,,,,,2,space,4.73937858938,2,0.902,,,,,,,,,,,,,,,,,,2019_Feb_15_1559,60.41035100383804,Cloud_Experiment_FR_REAL,001,21,
images/fcloud_D1.5_10.tif,1.5,0,,,,,,,,,,,,,0,9,9,31,,,,,,,,,,,None,None,,None,11.091,,,,,,,,,,,,,,,,,,2019_Feb_15_1559,60.41035100383804,Cloud_Experiment_FR_REAL,001,21,
images/fcloud80-20_D0.8_10.tif,0.8,2,,,,,,,,,,,,,0,10,10,99,,,,,,,,,,,None,None,,None,22.082,,,,,,,,,,,,,,,,,,2019_Feb_15_1559,60.41035100383804,Cloud_Experiment_FR_REAL,001,21,
images/fcloud_D0.9_10.tif,0.9,0,,,,,,,,,,,,,0,11,11,7,,,,,,,,,,,None,None,,None,31.307,,,,,,,,,,,,,,,,,,2019_Feb_15_1559,60.41035100383804,Cloud_Experiment_FR_REAL,001,21,
images/fcloud65-35_D0.8_9.tif,0.8,1,,,,,,,,,,,,,0,12,12,50,,,,,,,,,,,1,space,5.9582869827,3,1.352,,,,,,,,,,,,,,,,,,2019_Feb_15_1559,60.41035100383804,Cloud_Experiment_FR_REAL,001,21,
images/fcloud65-35_D1.1_10.tif,1.1,1,,,,,,,,,,,,,0,13,13,63,,,,,,,,,,,None,None,,None,10.393,,,,,,,,,,,,,,,,,,2019_Feb_15_1559,60.41035100383804,Cloud_Experiment_FR_REAL,001,21,
images/fcloud80-20_D0.8_7.tif,0.8,2,,,,,,,,,,,,,0,14,14,96,,,,,,,,,,,None,None,,None,19.818,,,,,,,,,,,,,,,,,,2019_Feb_15_1559,60.41035100383804,Cloud_Experiment_FR_REAL,001,21,
images/fcloud80-20_D1.3_7.tif,1.3,2,,,,,,,,,,,,,0,15,15,116,,,,,,,,,,,1,space,2.61512319848,3,1.002,,,,,,,,,,,,,,,,,,2019_Feb_15_1559,60.41035100383804,Cloud_Experiment_FR_REAL,001,21,
images/fcloud65-35_D1.4_10.tif,1.4,1,,,,,,,,,,,,,0,16,16,75,,,,,,,,,,,1,space,4.83622917818,2,0.868,,,,,,,,,,,,,,,,,,2019_Feb_15_1559,60.41035100383804,Cloud_Experiment_FR_REAL,001,21,
images/fcloud65-35_D1.2_10.tif,1.2,1,,,,,,,,,,,,,0,17,17,67,,,,,,,,,,,None,None,,None,10.045,,,,,,,,,,,,,,,,,,2019_Feb_15_1559,60.41035100383804,Cloud_Experiment_FR_REAL,001,21,
images/fcloud80-20_D1_7.tif,1.0,2,,,,,,,,,,,,,0,18,18,104,,,,,,,,,,,1,space,6.07419308741,2,1.052,,,,,,,,,,,,,,,,,,2019_Feb_15_1559,60.41035100383804,Cloud_Experiment_FR_REAL,001,21,
images/fcloud80-20_D1.6_8.tif,1.6,2,,,,,,,,,,,,,0,19,19,129,,,,,,,,,,,None,None,,None,10.243,,,,,,,,,,,,,,,,,,2019_Feb_15_1559,60.41035100383804,Cloud_Experiment_FR_REAL,001,21,
images/fcloud_D1.5_8.tif,1.5,0,,,,,,,,,,,,,0,20,20,29,,,,,,,,,,,1,space,2.0033763152,2,2.184,,,,,,,,,,,,,,,,,,2019_Feb_15_1559,60.41035100383804,Cloud_Experiment_FR_REAL,001,21,
images/fcloud65-35_D1_7.tif,1.0,1,,,,,,,,,,,,,0,21,21,56,,,,,,,,,,,None,None,,None,11.608,,,,,,,,,,,,,,,,,,2019_Feb_15_1559,60.41035100383804,Cloud_Experiment_FR_REAL,001,21,
images/fcloud80-20_D1.1_10.tif,1.1,2,,,,,,,,,,,,,0,22,22,111,,,,,,,,,,,1,space,6.20680393314,1,1.07,,,,,,,,,,,,,,,,,,2019_Feb_15_1559,60.41035100383804,Cloud_Experiment_FR_REAL,001,21,
images/fcloud65-35_D0.9_8.tif,0.9,1,,,,,,,,,,,,,0,23,23,53,,,,,,,,,,,None,None,,None,10.643,,,,,,,,,,,,,,,,,,2019_Feb_15_1559,60.41035100383804,Cloud_Experiment_FR_REAL,001,21,
images/fcloud80-20_D1.6_7.tif,1.6,2,,,,,,,,,,,,,0,24,24,128,,,,,,,,,,,None,None,,None,20.035,,,,,,,,,,,,,,,,,,2019_Feb_15_1559,60.41035100383804,Cloud_Experiment_FR_REAL,001,21,
images/fcloud_D1.6_7.tif,1.6,0,,,,,,,,,,,,,0,25,25,32,,,,,,,,,,,1,space,7.7985638323,2,1.335,,,,,,,,,,,,,,,,,,2019_Feb_15_1559,60.41035100383804,Cloud_Experiment_FR_REAL,001,21,
images/fcloud_D1.4_10.tif,1.4,0,,,,,,,,,,,,,0,26,26,27,,,,,,,,,,,1,space,7.53801952998,2,1.335,,,,,,,,,,,,,,,,,,2019_Feb_15_1559,60.41035100383804,Cloud_Experiment_FR_REAL,001,21,
images/fcloud65-35_D1.2_8.tif,1.2,1,,,,,,,,,,,,,0,27,27,65,,,,,,,,,,,1,space,5.01667338365,2,0.934,,,,,,,,,,,,,,,,,,2019_Feb_15_1559,60.41035100383804,Cloud_Experiment_FR_REAL,001,21,
images/fcloud65-35_D1.6_10.tif,1.6,1,,,,,,,,,,,,,0,28,28,83,,,,,,,,,,,1,space,4.48207386359,3,1.002,,,,,,,,,,,,,,,,,,2019_Feb_15_1559,60.41035100383804,Cloud_Experiment_FR_REAL,001,21,
images/fcloud_D1.2_10.tif,1.2,0,,,,,,,,,,,,,0,29,29,19,,,,,,,,,,,2,space,3.86798648653,3,1.735,,,,,,,,,,,,,,,,,,2019_Feb_15_1559,60.41035100383804,Cloud_Experiment_FR_REAL,001,21,
images/fcloud80-20_D1.8_8.tif,1.8,2,,,,,,,,,,,,,0,30,30,137,,,,,,,,,,,None,None,,None,11.058,,,,,,,,,,,,,,,,,,2019_Feb_15_1559,60.41035100383804,Cloud_Experiment_FR_REAL,001,21,
images/fcloud_D0.9_7.tif,0.9,0,,,,,,,,,,,,,0,31,31,4,,,,,,,,,,,2,space,2.18550919232,4,1.52,,,,,,,,,,,,,,,,,,2019_Feb_15_1559,60.41035100383804,Cloud_Experiment_FR_REAL,001,21,
images/fcloud65-35_D1.8_7.tif,1.8,1,,,,,,,,,,,,,0,32,32,88,,,,,,,,,,,None,None,,None,11.441,,,,,,,,,,,,,,,,,,2019_Feb_15_1559,60.41035100383804,Cloud_Experiment_FR_REAL,001,21,
images/fcloud80-20_D1.3_8.tif,1.3,2,,,,,,,,,,,,,0,33,33,117,,,,,,,,,,,None,None,,None,21.182,,,,,,,,,,,,,,,,,,2019_Feb_15_1559,60.41035100383804,Cloud_Experiment_FR_REAL,001,21,
images/fcloud65-35_D1.9_10.tif,1.9,1,,,,,,,,,,,,,0,34,34,95,,,,,,,,,,,1,space,5.79189293669,2,1.217,,,,,,,,,,,,,,,,,,2019_Feb_15_1559,60.41035100383804,Cloud_Experiment_FR_REAL,001,21,
images/fcloud65-35_D1.3_8.tif,1.3,1,,,,,,,,,,,,,0,35,35,69,,,,,,,,,,,1,space,2.92129145082,2,1.385,,,,,,,,,,,,,,,,,,2019_Feb_15_1559,60.41035100383804,Cloud_Experiment_FR_REAL,001,21,
images/fcloud_D1.2_8.tif,1.2,0,,,,,,,,,,,,,0,36,36,17,,,,,,,,,,,1,space,2.44395666308,4,2.468,,,,,,,,,,,,,,,,,,2019_Feb_15_1559,60.41035100383804,Cloud_Experiment_FR_REAL,001,21,
images/fcloud80-20_D0.9_10.tif,0.9,2,,,,,,,,,,,,,0,37,37,103,,,,,,,,,,,None,None,,None,12.008,,,,,,,,,,,,,,,,,,2019_Feb_15_1559,60.41035100383804,Cloud_Experiment_FR_REAL,001,21,
images/fcloud_D1.1_8.tif,1.1,0,,,,,,,,,,,,,0,38,38,13,,,,,,,,,,,None,None,,None,22.601,,,,,,,,,,,,,,,,,,2019_Feb_15_1559,60.41035100383804,Cloud_Experiment_FR_REAL,001,21,
images/fcloud65-35_D1_8.tif,1.0,1,,,,,,,,,,,,,0,39,39,57,,,,,,,,,,,2,space,4.18563924832,2,1.418,,,,,,,,,,,,,,,,,,2019_Feb_15_1559,60.41035100383804,Cloud_Experiment_FR_REAL,001,21,
images/fcloud_D1_7.tif,1.0,0,,,,,,,,,,,,,0,40,40,8,,,,,,,,,,,1,space,2.2194327297,3,1.336,,,,,,,,,,,,,,,,,,2019_Feb_15_1559,60.41035100383804,Cloud_Experiment_FR_REAL,001,21,
images/fcloud_D0.9_9.tif,0.9,0,,,,,,,,,,,,,0,41,41,6,,,,,,,,,,,1,space,5.37932706048,5,1.919,,,,,,,,,,,,,,,,,,2019_Feb_15_1559,60.41035100383804,Cloud_Experiment_FR_REAL,001,21,
images/fcloud80-20_D1.9_10.tif,1.9,2,,,,,,,,,,,,,0,42,42,143,,,,,,,,,,,1,None,,3,1.452,,,,,,,,,,,,,,,,,,2019_Feb_15_1559,60.41035100383804,Cloud_Experiment_FR_REAL,001,21,
images/fcloud80-20_D1.1_7.tif,1.1,2,,,,,,,,,,,,,0,43,43,108,,,,,,,,,,,None,None,,None,10.792,,,,,,,,,,,,,,,,,,2019_Feb_15_1559,60.41035100383804,Cloud_Experiment_FR_REAL,001,21,
images/fcloud65-35_D1.1_8.tif,1.1,1,,,,,,,,,,,,,0,44,44,61,,,,,,,,,,,None,None,,None,19.951,,,,,,,,,,,,,,,,,,2019_Feb_15_1559,60.41035100383804,Cloud_Experiment_FR_REAL,001,21,
images/fcloud65-35_D1.3_9.tif,1.3,1,,,,,,,,,,,,,0,45,45,70,,,,,,,,,,,1,space,6.11978516603,3,0.951,,,,,,,,,,,,,,,,,,2019_Feb_15_1559,60.41035100383804,Cloud_Experiment_FR_REAL,001,21,
images/fcloud_D1.3_7.tif,1.3,0,,,,,,,,,,,,,0,46,46,20,,,,,,,,,,,None,None,,None,10.512,,,,,,,,,,,,,,,,,,2019_Feb_15_1559,60.41035100383804,Cloud_Experiment_FR_REAL,001,21,
images/fcloud80-20_D1.7_10.tif,1.7,2,,,,,,,,,,,,,0,47,47,135,,,,,,,,,,,2,space,3.25560166058,2,0.801,,,,,,,,,,,,,,,,,,2019_Feb_15_1559,60.41035100383804,Cloud_Experiment_FR_REAL,001,21,
images/fcloud_D1.4_9.tif,1.4,0,,,,,,,,,,,,,0,48,48,26,,,,,,,,,,,None,space,8.15593559091,None,11.441,,,,,,,,,,,,,,,,,,2019_Feb_15_1559,60.41035100383804,Cloud_Experiment_FR_REAL,001,21,
images/fcloud80-20_D1.4_10.tif,1.4,2,,,,,,,,,,,,,0,49,49,123,,,,,,,,,,,1,space,3.49107651407,3,1.335,,,,,,,,,,,,,,,,,,2019_Feb_15_1559,60.41035100383804,Cloud_Experiment_FR_REAL,001,21,
images/fcloud65-35_D1_10.tif,1.0,1,,,,,,,,,,,,,0,50,50,59,,,,,,,,,,,None,None,,None,10.725,,,,,,,,,,,,,,,,,,2019_Feb_15_1559,60.41035100383804,Cloud_Experiment_FR_REAL,001,21,
images/fcloud65-35_D1.1_7.tif,1.1,1,,,,,,,,,,,,,0,51,51,60,,,,,,,,,,,1,space,2.80712747955,2,5.231,,,,,,,,,,,,,,,,,,2019_Feb_15_1559,60.41035100383804,Cloud_Experiment_FR_REAL,001,21,
images/fcloud65-35_D0.9_7.tif,0.9,1,,,,,,,,,,,,,0,52,52,52,,,,,,,,,,,None,None,,None,15.722,,,,,,,,,,,,,,,,,,2019_Feb_15_1559,60.41035100383804,Cloud_Experiment_FR_REAL,001,21,
images/fcloud65-35_D1.5_7.tif,1.5,1,,,,,,,,,,,,,0,53,53,76,,,,,,,,,,,1,space,7.10825953213,1,1.453,,,,,,,,,,,,,,,,,,2019_Feb_15_1559,60.41035100383804,Cloud_Experiment_FR_REAL,001,21,
images/fcloud65-35_D1.4_9.tif,1.4,1,,,,,,,,,,,,,0,54,54,74,,,,,,,,,,,1,space,6.51399978204,2,0.935,,,,,,,,,,,,,,,,,,2019_Feb_15_1559,60.41035100383804,Cloud_Experiment_FR_REAL,001,21,
images/fcloud80-20_D1.3_10.tif,1.3,2,,,,,,,,,,,,,0,55,55,119,,,,,,,,,,,None,None,,None,10.226,,,,,,,,,,,,,,,,,,2019_Feb_15_1559,60.41035100383804,Cloud_Experiment_FR_REAL,001,21,
images/fcloud_D0.8_8.tif,0.8,0,,,,,,,,,,,,,0,56,56,1,,,,,,,,,,,1,space,4.99558580713,3,1.851,,,,,,,,,,,,,,,,,,2019_Feb_15_1559,60.41035100383804,Cloud_Experiment_FR_REAL,001,21,
images/fcloud_D1.1_7.tif,1.1,0,,,,,,,,,,,,,0,57,57,12,,,,,,,,,,,None,None,,None,11.144,,,,,,,,,,,,,,,,,,2019_Feb_15_1559,60.41035100383804,Cloud_Experiment_FR_REAL,001,21,
images/fcloud_D1.6_10.tif,1.6,0,,,,,,,,,,,,,0,58,58,35,,,,,,,,,,,None,None,,None,20.466,,,,,,,,,,,,,,,,,,2019_Feb_15_1559,60.41035100383804,Cloud_Experiment_FR_REAL,001,21,
images/fcloud65-35_D1.4_7.tif,1.4,1,,,,,,,,,,,,,0,59,59,72,,,,,,,,,,,2,space,5.60101083832,2,1.17,,,,,,,,,,,,,,,,,,2019_Feb_15_1559,60.41035100383804,Cloud_Experiment_FR_REAL,001,21,
images/fcloud80-20_D1.9_7.tif,1.9,2,,,,,,,,,,,,,0,60,60,140,,,,,,,,,,,None,None,,None,10.209,,,,,,,,,,,,,,,,,,2019_Feb_15_1559,60.41035100383804,Cloud_Experiment_FR_REAL,001,21,
images/fcloud_D1.6_9.tif,1.6,0,,,,,,,,,,,,,0,61,61,34,,,,,,,,,,,2,space,5.74518432995,3,1.735,,,,,,,,,,,,,,,,,,2019_Feb_15_1559,60.41035100383804,Cloud_Experiment_FR_REAL,001,21,
images/fcloud_D1_10.tif,1.0,0,,,,,,,,,,,,,0,62,62,11,,,,,,,,,,,1,space,3.82061629061,3,1.203,,,,,,,,,,,,,,,,,,2019_Feb_15_1559,60.41035100383804,Cloud_Experiment_FR_REAL,001,21,
images/fcloud_D1.8_7.tif,1.8,0,,,,,,,,,,,,,0,63,63,40,,,,,,,,,,,2,space,2.57368314452,2,1.084,,,,,,,,,,,,,,,,,,2019_Feb_15_1559,60.41035100383804,Cloud_Experiment_FR_REAL,001,21,
images/fcloud_D0.8_7.tif,0.8,0,,,,,,,,,,,,,0,64,64,0,,,,,,,,,,,None,None,,None,11.874,,,,,,,,,,,,,,,,,,2019_Feb_15_1559,60.41035100383804,Cloud_Experiment_FR_REAL,001,21,
images/fcloud65-35_D1.8_8.tif,1.8,1,,,,,,,,,,,,,0,65,65,89,,,,,,,,,,,None,None,,None,21.484,,,,,,,,,,,,,,,,,,2019_Feb_15_1559,60.41035100383804,Cloud_Experiment_FR_REAL,001,21,
images/fcloud80-20_D1_8.tif,1.0,2,,,,,,,,,,,,,0,66,66,105,,,,,,,,,,,1,space,4.77903127306,2,2.052,,,,,,,,,,,,,,,,,,2019_Feb_15_1559,60.41035100383804,Cloud_Experiment_FR_REAL,001,21,
images/fcloud80-20_D0.9_9.tif,0.9,2,,,,,,,,,,,,,0,67,67,102,,,,,,,,,,,1,space,1.50159974009,3,0.819,,,,,,,,,,,,,,,,,,2019_Feb_15_1559,60.41035100383804,Cloud_Experiment_FR_REAL,001,21,
images/fcloud_D1.6_8.tif,1.6,0,,,,,,,,,,,,,0,68,68,33,,,,,,,,,,,2,space,2.08818361643,3,1.484,,,,,,,,,,,,,,,,,,2019_Feb_15_1559,60.41035100383804,Cloud_Experiment_FR_REAL,001,21,
images/fcloud65-35_D1.3_10.tif,1.3,1,,,,,,,,,,,,,0,69,69,71,,,,,,,,,,,1,space,5.46552693751,3,1.303,,,,,,,,,,,,,,,,,,2019_Feb_15_1559,60.41035100383804,Cloud_Experiment_FR_REAL,001,21,
images/fcloud_D1.7_7.tif,1.7,0,,,,,,,,,,,,,0,70,70,36,,,,,,,,,,,2,space,3.90456768978,3,1.35,,,,,,,,,,,,,,,,,,2019_Feb_15_1559,60.41035100383804,Cloud_Experiment_FR_REAL,001,21,
images/fcloud65-35_D1.7_8.tif,1.7,1,,,,,,,,,,,,,0,71,71,85,,,,,,,,,,,None,None,,None,12.708,,,,,,,,,,,,,,,,,,2019_Feb_15_1559,60.41035100383804,Cloud_Experiment_FR_REAL,001,21,
images/fcloud65-35_D0.8_7.tif,0.8,1,,,,,,,,,,,,,0,72,72,48,,,,,,,,,,,None,None,,None,21.933,,,,,,,,,,,,,,,,,,2019_Feb_15_1559,60.41035100383804,Cloud_Experiment_FR_REAL,001,21,
images/fcloud80-20_D1.5_7.tif,1.5,2,,,,,,,,,,,,,0,73,73,124,,,,,,,,,,,1,space,6.50136533086,4,1.252,,,,,,,,,,,,,,,,,,2019_Feb_15_1559,60.41035100383804,Cloud_Experiment_FR_REAL,001,21,
images/fcloud80-20_D1.3_9.tif,1.3,2,,,,,,,,,,,,,0,74,74,118,,,,,,,,,,,None,None,,None,10.792,,,,,,,,,,,,,,,,,,2019_Feb_15_1559,60.41035100383804,Cloud_Experiment_FR_REAL,001,21,
images/fcloud_D1.8_10.tif,1.8,0,,,,,,,,,,,,,0,75,75,43,,,,,,,,,,,None,None,,None,20.051,,,,,,,,,,,,,,,,,,2019_Feb_15_1559,60.41035100383804,Cloud_Experiment_FR_REAL,001,21,
images/fcloud_D1.3_10.tif,1.3,0,,,,,,,,,,,,,0,76,76,23,,,,,,,,,,,1,space,7.31523053325,2,1.019,,,,,,,,,,,,,,,,,,2019_Feb_15_1559,60.41035100383804,Cloud_Experiment_FR_REAL,001,21,
images/fcloud_D1.5_9.tif,1.5,0,,,,,,,,,,,,,0,77,77,30,,,,,,,,,,,1,None,,2,2.134,,,,,,,,,,,,,,,,,,2019_Feb_15_1559,60.41035100383804,Cloud_Experiment_FR_REAL,001,21,
images/fcloud65-35_D1.7_10.tif,1.7,1,,,,,,,,,,,,,0,78,78,87,,,,,,,,,,,None,None,,None,13.341,,,,,,,,,,,,,,,,,,2019_Feb_15_1559,60.41035100383804,Cloud_Experiment_FR_REAL,001,21,
images/fcloud_D0.9_8.tif,0.9,0,,,,,,,,,,,,,0,79,79,5,,,,,,,,,,,None,None,,None,22.666,,,,,,,,,,,,,,,,,,2019_Feb_15_1559,60.41035100383804,Cloud_Experiment_FR_REAL,001,21,
images/fcloud80-20_D1_10.tif,1.0,2,,,,,,,,,,,,,0,80,80,107,,,,,,,,,,,1,space,2.55723902956,4,1.636,,,,,,,,,,,,,,,,,,2019_Feb_15_1559,60.41035100383804,Cloud_Experiment_FR_REAL,001,21,
images/fcloud_D0.8_9.tif,0.8,0,,,,,,,,,,,,,0,81,81,2,,,,,,,,,,,2,space,4.68181776124,3,1.901,,,,,,,,,,,,,,,,,,2019_Feb_15_1559,60.41035100383804,Cloud_Experiment_FR_REAL,001,21,
images/fcloud65-35_D0.9_9.tif,0.9,1,,,,,,,,,,,,,0,82,82,54,,,,,,,,,,,2,space,1.76279072397,2,1.685,,,,,,,,,,,,,,,,,,2019_Feb_15_1559,60.41035100383804,Cloud_Experiment_FR_REAL,001,21,
images/fcloud_D1.7_10.tif,1.7,0,,,,,,,,,,,,,0,83,83,39,,,,,,,,,,,None,None,,None,11.16,,,,,,,,,,,,,,,,,,2019_Feb_15_1559,60.41035100383804,Cloud_Experiment_FR_REAL,001,21,
images/fcloud_D1.4_7.tif,1.4,0,,,,,,,,,,,,,0,84,84,24,,,,,,,,,,,None,None,,None,20.551,,,,,,,,,,,,,,,,,,2019_Feb_15_1559,60.41035100383804,Cloud_Experiment_FR_REAL,001,21,
images/fcloud65-35_D1.6_8.tif,1.6,1,,,,,,,,,,,,,0,85,85,81,,,,,,,,,,,None,None,,None,29.609,,,,,,,,,,,,,,,,,,2019_Feb_15_1559,60.41035100383804,Cloud_Experiment_FR_REAL,001,21,
images/fcloud_D1.9_8.tif,1.9,0,,,,,,,,,,,,,0,86,86,45,,,,,,,,,,,1,space,5.67888404761,3,1.202,,,,,,,,,,,,,,,,,,2019_Feb_15_1559,60.41035100383804,Cloud_Experiment_FR_REAL,001,21,
images/fcloud65-35_D1.8_9.tif,1.8,1,,,,,,,,,,,,,0,87,87,90,,,,,,,,,,,None,None,,None,13.557,,,,,,,,,,,,,,,,,,2019_Feb_15_1559,60.41035100383804,Cloud_Experiment_FR_REAL,001,21,
images/fcloud65-35_D1.9_7.tif,1.9,1,,,,,,,,,,,,,0,88,88,92,,,,,,,,,,,1,space,7.6079022637,3,1.369,,,,,,,,,,,,,,,,,,2019_Feb_15_1559,60.41035100383804,Cloud_Experiment_FR_REAL,001,21,
images/fcloud65-35_D1.7_7.tif,1.7,1,,,,,,,,,,,,,0,89,89,84,,,,,,,,,,,1,space,4.34050611829,3,1.285,,,,,,,,,,,,,,,,,,2019_Feb_15_1559,60.41035100383804,Cloud_Experiment_FR_REAL,001,21,
images/fcloud_D1.1_9.tif,1.1,0,,,,,,,,,,,,,0,90,90,14,,,,,,,,,,,1,space,6.54563063278,4,0.853,,,,,,,,,,,,,,,,,,2019_Feb_15_1559,60.41035100383804,Cloud_Experiment_FR_REAL,001,21,
images/fcloud80-20_D1.1_9.tif,1.1,2,,,,,,,,,,,,,0,91,91,110,,,,,,,,,,,None,None,,None,10.81,,,,,,,,,,,,,,,,,,2019_Feb_15_1559,60.41035100383804,Cloud_Experiment_FR_REAL,001,21,
images/fcloud_D0.8_10.tif,0.8,0,,,,,,,,,,,,,0,92,92,3,,,,,,,,,,,None,None,,None,21.033,,,,,,,,,,,,,,,,,,2019_Feb_15_1559,60.41035100383804,Cloud_Experiment_FR_REAL,001,21,
images/fcloud65-35_D1.9_9.tif,1.9,1,,,,,,,,,,,,,0,93,93,94,,,,,,,,,,,1,space,2.26485517007,2,0.868,,,,,,,,,,,,,,,,,,2019_Feb_15_1559,60.41035100383804,Cloud_Experiment_FR_REAL,001,21,
images/fcloud_D1.3_9.tif,1.3,0,,,,,,,,,,,,,0,94,94,22,,,,,,,,,,,1,space,2.97849192625,4,0.984,,,,,,,,,,,,,,,,,,2019_Feb_15_1559,60.41035100383804,Cloud_Experiment_FR_REAL,001,21,
images/fcloud80-20_D1.1_8.tif,1.1,2,,,,,,,,,,,,,0,95,95,109,,,,,,,,,,,2,space,4.64026153076,3,1.351,,,,,,,,,,,,,,,,,,2019_Feb_15_1559,60.41035100383804,Cloud_Experiment_FR_REAL,001,21,
images/fcloud80-20_D1.2_9.tif,1.2,2,,,,,,,,,,,,,0,96,96,114,,,,,,,,,,,None,None,,None,10.559,,,,,,,,,,,,,,,,,,2019_Feb_15_1559,60.41035100383804,Cloud_Experiment_FR_REAL,001,21,
images/fcloud65-35_D1.2_9.tif,1.2,1,,,,,,,,,,,,,0,97,97,66,,,,,,,,,,,None,None,,None,19.734,,,,,,,,,,,,,,,,,,2019_Feb_15_1559,60.41035100383804,Cloud_Experiment_FR_REAL,001,21,
images/fcloud_D1.9_10.tif,1.9,0,,,,,,,,,,,,,0,98,98,47,,,,,,,,,,,None,None,,None,29.06,,,,,,,,,,,,,,,,,,2019_Feb_15_1559,60.41035100383804,Cloud_Experiment_FR_REAL,001,21,
images/fcloud80-20_D1_9.tif,1.0,2,,,,,,,,,,,,,0,99,99,106,,,,,,,,,,,1,space,2.48263521196,4,1.002,,,,,,,,,,,,,,,,,,2019_Feb_15_1559,60.41035100383804,Cloud_Experiment_FR_REAL,001,21,
images/fcloud80-20_D1.7_7.tif,1.7,2,,,,,,,,,,,,,0,100,100,132,,,,,,,,,,,1,space,2.93556933681,3,0.836,,,,,,,,,,,,,,,,,,2019_Feb_15_1559,60.41035100383804,Cloud_Experiment_FR_REAL,001,21,
images/fcloud80-20_D1.6_9.tif,1.6,2,,,,,,,,,,,,,0,101,101,130,,,,,,,,,,,1,space,7.77610115788,2,2.501,,,,,,,,,,,,,,,,,,2019_Feb_15_1559,60.41035100383804,Cloud_Experiment_FR_REAL,001,21,
images/fcloud80-20_D1.5_8.tif,1.5,2,,,,,,,,,,,,,0,102,102,125,,,,,,,,,,,2,space,3.22663361634,2,0.935,,,,,,,,,,,,,,,,,,2019_Feb_15_1559,60.41035100383804,Cloud_Experiment_FR_REAL,001,21,
images/fcloud_D1_9.tif,1.0,0,,,,,,,,,,,,,0,103,103,10,,,,,,,,,,,2,space,5.07797807656,3,1.834,,,,,,,,,,,,,,,,,,2019_Feb_15_1559,60.41035100383804,Cloud_Experiment_FR_REAL,001,21,
images/fcloud65-35_D1.6_9.tif,1.6,1,,,,,,,,,,,,,0,104,104,82,,,,,,,,,,,None,None,,None,11.009,,,,,,,,,,,,,,,,,,2019_Feb_15_1559,60.41035100383804,Cloud_Experiment_FR_REAL,001,21,
images/fcloud_D1.5_7.tif,1.5,0,,,,,,,,,,,,,0,105,105,28,,,,,,,,,,,1,space,4.79740566571,2,1.319,,,,,,,,,,,,,,,,,,2019_Feb_15_1559,60.41035100383804,Cloud_Experiment_FR_REAL,001,21,
images/fcloud80-20_D0.8_9.tif,0.8,2,,,,,,,,,,,,,0,106,106,98,,,,,,,,,,,None,None,,None,10.443,,,,,,,,,,,,,,,,,,2019_Feb_15_1559,60.41035100383804,Cloud_Experiment_FR_REAL,001,21,
images/fcloud80-20_D1.5_10.tif,1.5,2,,,,,,,,,,,,,0,107,107,127,,,,,,,,,,,None,None,,None,19.55,,,,,,,,,,,,,,,,,,2019_Feb_15_1559,60.41035100383804,Cloud_Experiment_FR_REAL,001,21,
images/fcloud65-35_D1.5_9.tif,1.5,1,,,,,,,,,,,,,0,108,108,78,,,,,,,,,,,None,None,,None,28.611,,,,,,,,,,,,,,,,,,2019_Feb_15_1559,60.41035100383804,Cloud_Experiment_FR_REAL,001,21,
images/fcloud80-20_D1.2_10.tif,1.2,2,,,,,,,,,,,,,0,109,109,115,,,,,,,,,,,1,space,5.32707231113,1,1.252,,,,,,,,,,,,,,,,,,2019_Feb_15_1559,60.41035100383804,Cloud_Experiment_FR_REAL,001,21,
images/fcloud80-20_D1.8_7.tif,1.8,2,,,,,,,,,,,,,0,110,110,136,,,,,,,,,,,None,None,,None,10.676,,,,,,,,,,,,,,,,,,2019_Feb_15_1559,60.41035100383804,Cloud_Experiment_FR_REAL,001,21,
images/fcloud65-35_D1.6_7.tif,1.6,1,,,,,,,,,,,,,0,111,111,80,,,,,,,,,,,1,space,5.06228242611,3,1.203,,,,,,,,,,,,,,,,,,2019_Feb_15_1559,60.41035100383804,Cloud_Experiment_FR_REAL,001,21,
images/fcloud80-20_D1.7_8.tif,1.7,2,,,,,,,,,,,,,0,112,112,133,,,,,,,,,,,None,None,,None,10.376,,,,,,,,,,,,,,,,,,2019_Feb_15_1559,60.41035100383804,Cloud_Experiment_FR_REAL,001,21,
images/fcloud65-35_D1.2_7.tif,1.2,1,,,,,,,,,,,,,0,113,113,64,,,,,,,,,,,1,None,,2,1.184,,,,,,,,,,,,,,,,,,2019_Feb_15_1559,60.41035100383804,Cloud_Experiment_FR_REAL,001,21,
images/fcloud_D1.8_9.tif,1.8,0,,,,,,,,,,,,,0,114,114,42,,,,,,,,,,,None,None,,None,11.908,,,,,,,,,,,,,,,,,,2019_Feb_15_1559,60.41035100383804,Cloud_Experiment_FR_REAL,001,21,
images/fcloud80-20_D1.4_7.tif,1.4,2,,,,,,,,,,,,,0,115,115,120,,,,,,,,,,,None,None,,None,21.267,,,,,,,,,,,,,,,,,,2019_Feb_15_1559,60.41035100383804,Cloud_Experiment_FR_REAL,001,21,
images/fcloud80-20_D1.2_8.tif,1.2,2,,,,,,,,,,,,,0,116,116,113,,,,,,,,,,,1,None,,3,1.203,,,,,,,,,,,,,,,,,,2019_Feb_15_1559,60.41035100383804,Cloud_Experiment_FR_REAL,001,21,
images/fcloud_D1.4_8.tif,1.4,0,,,,,,,,,,,,,0,117,117,25,,,,,,,,,,,1,space,4.83169469639,3,1.119,,,,,,,,,,,,,,,,,,2019_Feb_15_1559,60.41035100383804,Cloud_Experiment_FR_REAL,001,21,
images/fcloud_D1.9_9.tif,1.9,0,,,,,,,,,,,,,0,118,118,46,,,,,,,,,,,None,None,,None,11.325,,,,,,,,,,,,,,,,,,2019_Feb_15_1559,60.41035100383804,Cloud_Experiment_FR_REAL,001,21,
images/fcloud65-35_D1.7_9.tif,1.7,1,,,,,,,,,,,,,0,119,119,86,,,,,,,,,,,2,space,4.67938011099,3,1.002,,,,,,,,,,,,,,,,,,2019_Feb_15_1559,60.41035100383804,Cloud_Experiment_FR_REAL,001,21,
images/fcloud_D1.7_8.tif,1.7,0,,,,,,,,,,,,,0,120,120,37,,,,,,,,,,,2,space,2.70488188037,4,1.017,,,,,,,,,,,,,,,,,,2019_Feb_15_1559,60.41035100383804,Cloud_Experiment_FR_REAL,001,21,
images/fcloud80-20_D0.9_8.tif,0.9,2,,,,,,,,,,,,,0,121,121,101,,,,,,,,,,,2,space,4.51452720276,3,0.701,,,,,,,,,,,,,,,,,,2019_Feb_15_1559,60.41035100383804,Cloud_Experiment_FR_REAL,001,21,
images/fcloud65-35_D1.1_9.tif,1.1,1,,,,,,,,,,,,,0,122,122,62,,,,,,,,,,,None,None,,None,10.044,,,,,,,,,,,,,,,,,,2019_Feb_15_1559,60.41035100383804,Cloud_Experiment_FR_REAL,001,21,
images/fcloud_D1.9_7.tif,1.9,0,,,,,,,,,,,,,0,123,123,44,,,,,,,,,,,1,space,3.62796687018,3,0.769,,,,,,,,,,,,,,,,,,2019_Feb_15_1559,60.41035100383804,Cloud_Experiment_FR_REAL,001,21,
images/fcloud80-20_D1.6_10.tif,1.6,2,,,,,,,,,,,,,0,124,124,131,,,,,,,,,,,None,None,,None,27.644,,,,,,,,,,,,,,,,,,2019_Feb_15_1559,60.41035100383804,Cloud_Experiment_FR_REAL,001,21,
images/fcloud65-35_D1.9_8.tif,1.9,1,,,,,,,,,,,,,0,125,125,93,,,,,,,,,,,None,None,,None,47.693,,,,,,,,,,,,,,,,,,2019_Feb_15_1559,60.41035100383804,Cloud_Experiment_FR_REAL,001,21,
images/fcloud_D1.1_10.tif,1.1,0,,,,,,,,,,,,,0,126,126,15,,,,,,,,,,,None,None,,None,57.22,,,,,,,,,,,,,,,,,,2019_Feb_15_1559,60.41035100383804,Cloud_Experiment_FR_REAL,001,21,
images/fcloud65-35_D0.8_10.tif,0.8,1,,,,,,,,,,,,,0,127,127,51,,,,,,,,,,,None,None,,None,66.694,,,,,,,,,,,,,,,,,,2019_Feb_15_1559,60.41035100383804,Cloud_Experiment_FR_REAL,001,21,
images/fcloud80-20_D1.4_8.tif,1.4,2,,,,,,,,,,,,,0,128,128,121,,,,,,,,,,,1,space,4.24557861037,3,1.236,,,,,,,,,,,,,,,,,,2019_Feb_15_1559,60.41035100383804,Cloud_Experiment_FR_REAL,001,21,
images/fcloud_D1_8.tif,1.0,0,,,,,,,,,,,,,0,129,129,9,,,,,,,,,,,1,None,,2,0.985,,,,,,,,,,,,,,,,,,2019_Feb_15_1559,60.41035100383804,Cloud_Experiment_FR_REAL,001,21,
images/fcloud80-20_D0.8_8.tif,0.8,2,,,,,,,,,,,,,0,130,130,97,,,,,,,,,,,None,None,,None,10.658,,,,,,,,,,,,,,,,,,2019_Feb_15_1559,60.41035100383804,Cloud_Experiment_FR_REAL,001,21,
images/fcloud65-35_D0.9_10.tif,0.9,1,,,,,,,,,,,,,0,131,131,55,,,,,,,,,,,None,None,,None,20.95,,,,,,,,,,,,,,,,,,2019_Feb_15_1559,60.41035100383804,Cloud_Experiment_FR_REAL,001,21,
images/fcloud65-35_D1_9.tif,1.0,1,,,,,,,,,,,,,0,132,132,58,,,,,,,,,,,3,space,4.01864324359,3,1.584,,,,,,,,,,,,,,,,,,2019_Feb_15_1559,60.41035100383804,Cloud_Experiment_FR_REAL,001,21,
images/fcloud_D1.2_7.tif,1.2,0,,,,,,,,,,,,,0,133,133,16,,,,,,,,,,,2,space,4.34284815425,4,0.836,,,,,,,,,,,,,,,,,,2019_Feb_15_1559,60.41035100383804,Cloud_Experiment_FR_REAL,001,21,
images/fcloud80-20_D1.4_9.tif,1.4,2,,,,,,,,,,,,,0,134,134,122,,,,,,,,,,,None,None,,None,9.827,,,,,,,,,,,,,,,,,,2019_Feb_15_1559,60.41035100383804,Cloud_Experiment_FR_REAL,001,21,
images/fcloud_D1.7_9.tif,1.7,0,,,,,,,,,,,,,0,135,135,38,,,,,,,,,,,None,None,,None,19.402,,,,,,,,,,,,,,,,,,2019_Feb_15_1559,60.41035100383804,Cloud_Experiment_FR_REAL,001,21,
images/fcloud65-35_D1.5_8.tif,1.5,1,,,,,,,,,,,,,0,136,136,77,,,,,,,,,,,None,None,,None,28.411,,,,,,,,,,,,,,,,,,2019_Feb_15_1559,60.41035100383804,Cloud_Experiment_FR_REAL,001,21,
images/fcloud65-35_D1.5_10.tif,1.5,1,,,,,,,,,,,,,0,137,137,79,,,,,,,,,,,2,space,3.40910319966,4,0.986,,,,,,,,,,,,,,,,,,2019_Feb_15_1559,60.41035100383804,Cloud_Experiment_FR_REAL,001,21,
images/fcloud80-20_D1.9_9.tif,1.9,2,,,,,,,,,,,,,0,138,138,142,,,,,,,,,,,None,None,,None,12.008,,,,,,,,,,,,,,,,,,2019_Feb_15_1559,60.41035100383804,Cloud_Experiment_FR_REAL,001,21,
images/fcloud80-20_D1.8_9.tif,1.8,2,,,,,,,,,,,,,0,139,139,138,,,,,,,,,,,None,None,,None,21.748,,,,,,,,,,,,,,,,,,2019_Feb_15_1559,60.41035100383804,Cloud_Experiment_FR_REAL,001,21,
images/fcloud_D1.2_9.tif,1.2,0,,,,,,,,,,,,,0,140,140,18,,,,,,,,,,,2,space,3.94556771239,3,1.069,,,,,,,,,,,,,,,,,,2019_Feb_15_1559,60.41035100383804,Cloud_Experiment_FR_REAL,001,21,
images/fcloud65-35_D1.4_8.tif,1.4,1,,,,,,,,,,,,,0,141,141,73,,,,,,,,,,,None,None,,None,10.558,,,,,,,,,,,,,,,,,,2019_Feb_15_1559,60.41035100383804,Cloud_Experiment_FR_REAL,001,21,
images/fcloud80-20_D1.5_9.tif,1.5,2,,,,,,,,,,,,,0,142,142,126,,,,,,,,,,,None,None,,None,19.852,,,,,,,,,,,,,,,,,,2019_Feb_15_1559,60.41035100383804,Cloud_Experiment_FR_REAL,001,21,
images/fcloud65-35_D1.3_7.tif,1.3,1,,,,,,,,,,,,,0,143,143,68,,,,,,,,,,,1,space,3.47740161495,1,1.319,,,,,,,,,,,,,,,,,,2019_Feb_15_1559,60.41035100383804,Cloud_Experiment_FR_REAL,001,21,
,,,,,,,,,,,,,,,,,,,,,,,,,5,5.133,,,,,,,,,,,,,,,,,,,,,,,,,2019_Feb_15_1559,60.41035100383804,Cloud_Experiment_FR_REAL,001,21,
,,,,,,,,,,,,,,,,,,,,,,,,,,,,,,,,,,5,,,,,,,,,,,,,,,,,2019_Feb_15_1559,60.41035100383804,Cloud_Experiment_FR_REAL,001,21,
,,,,,,,,,,,,,,,,,,,,,,,,,,,,,,,,,,,5,,,,,,,,,,,,,,,,2019_Feb_15_1559,60.41035100383804,Cloud_Experiment_FR_REAL,001,21,
,,,,,,,,,,,,,,,,,,,,,,,,,,,,,,,,,,,,5,,,,,,,,,,,,,,,2019_Feb_15_1559,60.41035100383804,Cloud_Experiment_FR_REAL,001,21,
,,,,,,,,,,,,,,,,,,,,,,,,,,,,,,,,,,,,,5,,,,,,,,,,,,,,2019_Feb_15_1559,60.41035100383804,Cloud_Experiment_FR_REAL,001,21,
,,,,,,,,,,,,,,,,,,,,,,,,,,,,,,,,,,,,,,3,,,,,,,,,,,,,2019_Feb_15_1559,60.41035100383804,Cloud_Experiment_FR_REAL,001,21,
,,,,,,,,,,,,,,,,,,,,,,,,,,,,,,,,,,,,,,,4,,,,,,,,,,,,2019_Feb_15_1559,60.41035100383804,Cloud_Experiment_FR_REAL,001,21,
,,,,,,,,,,,,,,,,,,,,,,,,,,,,,,,,,,,,,,,,5,,,,,,,,,,,2019_Feb_15_1559,60.41035100383804,Cloud_Experiment_FR_REAL,001,21,
,,,,,,,,,,,,,,,,,,,,,,,,,,,,,,,,,,,,,,,,,7,,,,,,,,,,2019_Feb_15_1559,60.41035100383804,Cloud_Experiment_FR_REAL,001,21,
,,,,,,,,,,,,,,,,,,,,,,,,,,,,,,,,,,,,,,,,,,6,,,,,,,,,2019_Feb_15_1559,60.41035100383804,Cloud_Experiment_FR_REAL,001,21,
,,,,,,,,,,,,,,,,,,,,,,,,,,,,,,,,,,,,,,,,,,,3,,,,,,,,2019_Feb_15_1559,60.41035100383804,Cloud_Experiment_FR_REAL,001,21,
,,,,,,,,,,,,,,,,,,,,,,,,,,,,,,,,,,,,,,,,,,,,,,,,,,4,2019_Feb_15_1559,60.41035100383804,Cloud_Experiment_FR_REAL,001,21,
