ImageFile,FD,Contrast,trials_4.thisRepN,trials_4.thisTrialN,trials_4.thisN,trials_4.thisIndex,trials.thisRepN,trials.thisTrialN,trials.thisN,trials.thisIndex,trials_2.thisRepN,trials_2.thisTrialN,trials_2.thisN,trials_2.thisIndex,trials_3.thisRepN,trials_3.thisTrialN,trials_3.thisN,trials_3.thisIndex,end_instructions.keys,end_instructions.rt,key_resp_4.keys,key_resp_4.rt,key_resp_6.keys,key_resp_6.rt,Fatigue.response,Fatigue.rt,key_resp_5.keys,key_resp_5.rt,n_objets.response,reaction_time.keys,vividness.response,vividness.rt,reaction_time.rt,Flow01.response,Flow02.response,Flow03.response,Flow04.response,Flow05.response,Flow06.response,Flow07.response,Flow08.response,Flow09.response,Flow10.response,key_resp_2.keys,key_resp_2.rt,key_resp_8.keys,key_resp_8.rt,key_resp_3.keys,key_resp_3.rt,Redondance_question.response,date,frameRate,expName,session,participant,
,,,,,,,,,,,,,,,,,,,space,108.5819677,,,,,,,,,,,,,,,,,,,,,,,,,,,,,,,2019_Mar_11_1633,60.22238924629056,Cloud_Experiment_FR_REAL,001,22,
,,,,,,,,,,,,,,,,,,,,,space,115.2671812,,,,,,,,,,,,,,,,,,,,,,,,,,,,,2019_Mar_11_1633,60.22238924629056,Cloud_Experiment_FR_REAL,001,22,
,,,,,,,,,,,,,,,,,,,,,,,space,127.0894046,,,,,,,,,,,,,,,,,,,,,,,,,,,2019_Mar_11_1633,60.22238924629056,Cloud_Experiment_FR_REAL,001,22,
,,,,,,,,,,,,,,,,,,,,,,,,,6,23.559,,,,,,,,,,,,,,,,,,,,,,,,,2019_Mar_11_1633,60.22238924629056,Cloud_Experiment_FR_REAL,001,22,
,,,,,,,,,,,,,,,,,,,,,,,,,,,space,8.37849170002,,,,,,,,,,,,,,,,,,,,,,,2019_Mar_11_1633,60.22238924629056,Cloud_Experiment_FR_REAL,001,22,
pratique/fcloud_D1.4_30,1.4,0,0,0,0,1,,,,,,,,,,,,,,,,,,,,,,,None,None,None,394.651,,,,,,,,,,,,,,,,,,,2019_Mar_11_1633,60.22238924629056,Cloud_Experiment_FR_REAL,001,22,
pratique/fcloud_D1.6_28,1.6,0,0,1,1,5,,,,,,,,,,,,,,,,,,,,,,,1,space,4,7.131,5.88603950001,,,,,,,,,,,,,,,,,,2019_Mar_11_1633,60.22238924629056,Cloud_Experiment_FR_REAL,001,22,
pratique/fcloud80-20_D1_30,1.0,2,0,2,2,9,,,,,,,,,,,,,,,,,,,,,,,None,None,None,17.085,,,,,,,,,,,,,,,,,,,2019_Mar_11_1633,60.22238924629056,Cloud_Experiment_FR_REAL,001,22,
pratique/fcloud80-20_D1.5_30,1.5,2,0,3,3,8,,,,,,,,,,,,,,,,,,,,,,,None,None,None,27.545,,,,,,,,,,,,,,,,,,,2019_Mar_11_1633,60.22238924629056,Cloud_Experiment_FR_REAL,001,22,
pratique/fcloud80-20_D1.8_30,1.8,2,0,4,4,4,,,,,,,,,,,,,,,,,,,,,,,None,None,None,36.054,,,,,,,,,,,,,,,,,,,2019_Mar_11_1633,60.22238924629056,Cloud_Experiment_FR_REAL,001,22,
pratique/fcloud65-35_D1.6_30,1.6,1,0,5,5,2,,,,,,,,,,,,,,,,,,,,,,,1,space,4,3.684,5.89052410002,,,,,,,,,,,,,,,,,,2019_Mar_11_1633,60.22238924629056,Cloud_Experiment_FR_REAL,001,22,
pratique/fcloud65-35_D1.9_29,1.9,1,0,6,6,7,,,,,,,,,,,,,,,,,,,,,,,1,space,5,2.749,3.31220069999,,,,,,,,,,,,,,,,,,2019_Mar_11_1633,60.22238924629056,Cloud_Experiment_FR_REAL,001,22,
pratique/fcloud65-35_D1.2_30,1.2,1,0,7,7,3,,,,,,,,,,,,,,,,,,,,,,,1,space,4,2.418,5.154935,,,,,,,,,,,,,,,,,,2019_Mar_11_1633,60.22238924629056,Cloud_Experiment_FR_REAL,001,22,
pratique/fcloud_D0.8_30,0.8,0,0,8,8,0,,,,,,,,,,,,,,,,,,,,,,,None,None,None,12.425,,,,,,,,,,,,,,,,,,,2019_Mar_11_1633,60.22238924629056,Cloud_Experiment_FR_REAL,001,22,
pratique/fcloud65-35_D1.3_30,1.3,1,0,9,9,6,,,,,,,,,,,,,,,,,,,,,,,None,None,None,22.049,,,,,,,,,,,,,,,,,,,2019_Mar_11_1633,60.22238924629056,Cloud_Experiment_FR_REAL,001,22,
,,,,,,,,,,,,,,,,,,,,,,,,,,,,,,,,,,4,,,,,,,,,,,,,,,,,2019_Mar_11_1633,60.22238924629056,Cloud_Experiment_FR_REAL,001,22,
,,,,,,,,,,,,,,,,,,,,,,,,,,,,,,,,,,,4,,,,,,,,,,,,,,,,2019_Mar_11_1633,60.22238924629056,Cloud_Experiment_FR_REAL,001,22,
,,,,,,,,,,,,,,,,,,,,,,,,,,,,,,,,,,,,3,,,,,,,,,,,,,,,2019_Mar_11_1633,60.22238924629056,Cloud_Experiment_FR_REAL,001,22,
,,,,,,,,,,,,,,,,,,,,,,,,,,,,,,,,,,,,,4,,,,,,,,,,,,,,2019_Mar_11_1633,60.22238924629056,Cloud_Experiment_FR_REAL,001,22,
,,,,,,,,,,,,,,,,,,,,,,,,,,,,,,,,,,,,,,5,,,,,,,,,,,,,2019_Mar_11_1633,60.22238924629056,Cloud_Experiment_FR_REAL,001,22,
,,,,,,,,,,,,,,,,,,,,,,,,,,,,,,,,,,,,,,,5,,,,,,,,,,,,2019_Mar_11_1633,60.22238924629056,Cloud_Experiment_FR_REAL,001,22,
,,,,,,,,,,,,,,,,,,,,,,,,,,,,,,,,,,,,,,,,5,,,,,,,,,,,2019_Mar_11_1633,60.22238924629056,Cloud_Experiment_FR_REAL,001,22,
,,,,,,,,,,,,,,,,,,,,,,,,,,,,,,,,,,,,,,,,,5,,,,,,,,,,2019_Mar_11_1633,60.22238924629056,Cloud_Experiment_FR_REAL,001,22,
,,,,,,,,,,,,,,,,,,,,,,,,,,,,,,,,,,,,,,,,,,4,,,,,,,,,2019_Mar_11_1633,60.22238924629056,Cloud_Experiment_FR_REAL,001,22,
,,,,,,,,,,,,,,,,,,,,,,,,,,,,,,,,,,,,,,,,,,,3,,,,,,,,2019_Mar_11_1633,60.22238924629056,Cloud_Experiment_FR_REAL,001,22,
,,,,,,,,,,,,,,,,,,,,,,,,,,,,,,,,,,,,,,,,,,,,space,2.00047999999,,,,,,2019_Mar_11_1633,60.22238924629056,Cloud_Experiment_FR_REAL,001,22,
images/fcloud65-35_D1.2_3.tif,1.2,1,,,,,0,0,0,50,,,,,,,,,,,,,,,,,,,None,None,None,90.09,,,,,,,,,,,,,,,,,,,2019_Mar_11_1633,60.22238924629056,Cloud_Experiment_FR_REAL,001,22,
images/fcloud_D1.2_2.tif,1.2,0,,,,,0,1,1,13,,,,,,,,,,,,,,,,,,,1,None,2,2.516,,,,,,,,,,,,,,,,,,,2019_Mar_11_1633,60.22238924629056,Cloud_Experiment_FR_REAL,001,22,
images/fcloud_D0.9_1.tif,0.9,0,,,,,0,2,2,3,,,,,,,,,,,,,,,,,,,1,space,2,1.485,5.18246719998,,,,,,,,,,,,,,,,,,2019_Mar_11_1633,60.22238924629056,Cloud_Experiment_FR_REAL,001,22,
images/fcloud65-35_D1.1_2.tif,1.1,1,,,,,0,3,3,46,,,,,,,,,,,,,,,,,,,None,None,None,11.526,,,,,,,,,,,,,,,,,,,2019_Mar_11_1633,60.22238924629056,Cloud_Experiment_FR_REAL,001,22,
images/fcloud65-35_D1.7_2.tif,1.7,1,,,,,0,4,4,64,,,,,,,,,,,,,,,,,,,1,None,2,1.567,,,,,,,,,,,,,,,,,,,2019_Mar_11_1633,60.22238924629056,Cloud_Experiment_FR_REAL,001,22,
images/fcloud80-20_D1.5_1.tif,1.5,2,,,,,0,5,5,93,,,,,,,,,,,,,,,,,,,None,None,None,11.842,,,,,,,,,,,,,,,,,,,2019_Mar_11_1633,60.22238924629056,Cloud_Experiment_FR_REAL,001,22,
images/fcloud65-35_D1.2_1.tif,1.2,1,,,,,0,6,6,48,,,,,,,,,,,,,,,,,,,1,None,2,2.151,,,,,,,,,,,,,,,,,,,2019_Mar_11_1633,60.22238924629056,Cloud_Experiment_FR_REAL,001,22,
images/fcloud65-35_D0.8_3.tif,0.8,1,,,,,0,7,7,38,,,,,,,,,,,,,,,,,,,None,None,None,12.341,,,,,,,,,,,,,,,,,,,2019_Mar_11_1633,60.22238924629056,Cloud_Experiment_FR_REAL,001,22,
images/fcloud_D1.2_1.tif,1.2,0,,,,,0,8,8,12,,,,,,,,,,,,,,,,,,,None,None,None,24.031,,,,,,,,,,,,,,,,,,,2019_Mar_11_1633,60.22238924629056,Cloud_Experiment_FR_REAL,001,22,
images/fcloud_D1.1_3.tif,1.1,0,,,,,0,9,9,11,,,,,,,,,,,,,,,,,,,None,None,None,33.173,,,,,,,,,,,,,,,,,,,2019_Mar_11_1633,60.22238924629056,Cloud_Experiment_FR_REAL,001,22,
images/fcloud65-35_D1.6_3.tif,1.6,1,,,,,0,10,10,62,,,,,,,,,,,,,,,,,,,None,None,None,42.016,,,,,,,,,,,,,,,,,,,2019_Mar_11_1633,60.22238924629056,Cloud_Experiment_FR_REAL,001,22,
images/fcloud65-35_D1.9_3.tif,1.9,1,,,,,0,11,11,71,,,,,,,,,,,,,,,,,,,None,None,None,51.192,,,,,,,,,,,,,,,,,,,2019_Mar_11_1633,60.22238924629056,Cloud_Experiment_FR_REAL,001,22,
images/fcloud80-20_D1.7_3.tif,1.7,2,,,,,0,12,12,101,,,,,,,,,,,,,,,,,,,1,None,2,1.186,,,,,,,,,,,,,,,,,,,2019_Mar_11_1633,60.22238924629056,Cloud_Experiment_FR_REAL,001,22,
images/fcloud_D1.3_2.tif,1.3,0,,,,,0,13,13,16,,,,,,,,,,,,,,,,,,,None,None,None,11.092,,,,,,,,,,,,,,,,,,,2019_Mar_11_1633,60.22238924629056,Cloud_Experiment_FR_REAL,001,22,
images/fcloud65-35_D1.9_2.tif,1.9,1,,,,,0,14,14,70,,,,,,,,,,,,,,,,,,,1,None,1,3.766,,,,,,,,,,,,,,,,,,,2019_Mar_11_1633,60.22238924629056,Cloud_Experiment_FR_REAL,001,22,
images/fcloud80-20_D1.9_2.tif,1.9,2,,,,,0,15,15,106,,,,,,,,,,,,,,,,,,,None,None,None,13.107,,,,,,,,,,,,,,,,,,,2019_Mar_11_1633,60.22238924629056,Cloud_Experiment_FR_REAL,001,22,
images/fcloud_D0.9_3.tif,0.9,0,,,,,0,16,16,5,,,,,,,,,,,,,,,,,,,None,None,None,22.15,,,,,,,,,,,,,,,,,,,2019_Mar_11_1633,60.22238924629056,Cloud_Experiment_FR_REAL,001,22,
images/fcloud65-35_D1.8_1.tif,1.8,1,,,,,0,17,17,66,,,,,,,,,,,,,,,,,,,None,None,None,30.909,,,,,,,,,,,,,,,,,,,2019_Mar_11_1633,60.22238924629056,Cloud_Experiment_FR_REAL,001,22,
images/fcloud65-35_D1.8_3.tif,1.8,1,,,,,0,18,18,68,,,,,,,,,,,,,,,,,,,None,None,None,39.217,,,,,,,,,,,,,,,,,,,2019_Mar_11_1633,60.22238924629056,Cloud_Experiment_FR_REAL,001,22,
images/fcloud_D1.6_1.tif,1.6,0,,,,,0,19,19,24,,,,,,,,,,,,,,,,,,,None,None,None,47.775,,,,,,,,,,,,,,,,,,,2019_Mar_11_1633,60.22238924629056,Cloud_Experiment_FR_REAL,001,22,
images/fcloud80-20_D1.3_2.tif,1.3,2,,,,,0,20,20,88,,,,,,,,,,,,,,,,,,,None,None,None,56.202,,,,,,,,,,,,,,,,,,,2019_Mar_11_1633,60.22238924629056,Cloud_Experiment_FR_REAL,001,22,
images/fcloud80-20_D1.5_2.tif,1.5,2,,,,,0,21,21,94,,,,,,,,,,,,,,,,,,,None,None,None,64.777,,,,,,,,,,,,,,,,,,,2019_Mar_11_1633,60.22238924629056,Cloud_Experiment_FR_REAL,001,22,
images/fcloud65-35_D1.9_1.tif,1.9,1,,,,,0,22,22,69,,,,,,,,,,,,,,,,,,,None,None,None,73.288,,,,,,,,,,,,,,,,,,,2019_Mar_11_1633,60.22238924629056,Cloud_Experiment_FR_REAL,001,22,
images/fcloud80-20_D0.9_3.tif,0.9,2,,,,,0,23,23,77,,,,,,,,,,,,,,,,,,,None,None,None,81.663,,,,,,,,,,,,,,,,,,,2019_Mar_11_1633,60.22238924629056,Cloud_Experiment_FR_REAL,001,22,
images/fcloud80-20_D1.2_3.tif,1.2,2,,,,,0,24,24,86,,,,,,,,,,,,,,,,,,,None,None,None,90.073,,,,,,,,,,,,,,,,,,,2019_Mar_11_1633,60.22238924629056,Cloud_Experiment_FR_REAL,001,22,
images/fcloud_D1.7_1.tif,1.7,0,,,,,0,25,25,27,,,,,,,,,,,,,,,,,,,None,None,None,98.599,,,,,,,,,,,,,,,,,,,2019_Mar_11_1633,60.22238924629056,Cloud_Experiment_FR_REAL,001,22,
images/fcloud80-20_D1.4_2.tif,1.4,2,,,,,0,26,26,91,,,,,,,,,,,,,,,,,,,None,None,None,107.074,,,,,,,,,,,,,,,,,,,2019_Mar_11_1633,60.22238924629056,Cloud_Experiment_FR_REAL,001,22,
images/fcloud80-20_D1.8_2.tif,1.8,2,,,,,0,27,27,103,,,,,,,,,,,,,,,,,,,None,None,None,115.566,,,,,,,,,,,,,,,,,,,2019_Mar_11_1633,60.22238924629056,Cloud_Experiment_FR_REAL,001,22,
images/fcloud65-35_D0.9_2.tif,0.9,1,,,,,0,28,28,40,,,,,,,,,,,,,,,,,,,None,None,None,123.959,,,,,,,,,,,,,,,,,,,2019_Mar_11_1633,60.22238924629056,Cloud_Experiment_FR_REAL,001,22,
images/fcloud80-20_D1.4_3.tif,1.4,2,,,,,0,29,29,92,,,,,,,,,,,,,,,,,,,None,None,None,132.652,,,,,,,,,,,,,,,,,,,2019_Mar_11_1633,60.22238924629056,Cloud_Experiment_FR_REAL,001,22,
images/fcloud80-20_D0.8_2.tif,0.8,2,,,,,0,30,30,73,,,,,,,,,,,,,,,,,,,None,None,None,141.244,,,,,,,,,,,,,,,,,,,2019_Mar_11_1633,60.22238924629056,Cloud_Experiment_FR_REAL,001,22,
images/fcloud65-35_D0.8_2.tif,0.8,1,,,,,0,31,31,37,,,,,,,,,,,,,,,,,,,None,None,None,149.753,,,,,,,,,,,,,,,,,,,2019_Mar_11_1633,60.22238924629056,Cloud_Experiment_FR_REAL,001,22,
images/fcloud80-20_D0.8_1.tif,0.8,2,,,,,0,32,32,72,,,,,,,,,,,,,,,,,,,1,None,1,1.118,,,,,,,,,,,,,,,,,,,2019_Mar_11_1633,60.22238924629056,Cloud_Experiment_FR_REAL,001,22,
images/fcloud_D1.2_3.tif,1.2,0,,,,,0,33,33,14,,,,,,,,,,,,,,,,,,,1,space,3,2.285,4.5503111,,,,,,,,,,,,,,,,,,2019_Mar_11_1633,60.22238924629056,Cloud_Experiment_FR_REAL,001,22,
images/fcloud80-20_D1.2_2.tif,1.2,2,,,,,0,34,34,85,,,,,,,,,,,,,,,,,,,None,None,None,12.774,,,,,,,,,,,,,,,,,,,2019_Mar_11_1633,60.22238924629056,Cloud_Experiment_FR_REAL,001,22,
images/fcloud80-20_D0.9_2.tif,0.9,2,,,,,0,35,35,76,,,,,,,,,,,,,,,,,,,None,None,None,22.083,,,,,,,,,,,,,,,,,,,2019_Mar_11_1633,60.22238924629056,Cloud_Experiment_FR_REAL,001,22,
images/fcloud_D1.4_3.tif,1.4,0,,,,,0,36,36,20,,,,,,,,,,,,,,,,,,,None,None,None,31.158,,,,,,,,,,,,,,,,,,,2019_Mar_11_1633,60.22238924629056,Cloud_Experiment_FR_REAL,001,22,
images/fcloud_D0.8_1.tif,0.8,0,,,,,0,37,37,0,,,,,,,,,,,,,,,,,,,None,None,None,39.6,,,,,,,,,,,,,,,,,,,2019_Mar_11_1633,60.22238924629056,Cloud_Experiment_FR_REAL,001,22,
images/fcloud65-35_D1.4_1.tif,1.4,1,,,,,0,38,38,54,,,,,,,,,,,,,,,,,,,None,None,None,48.376,,,,,,,,,,,,,,,,,,,2019_Mar_11_1633,60.22238924629056,Cloud_Experiment_FR_REAL,001,22,
images/fcloud_D1.6_2.tif,1.6,0,,,,,0,39,39,25,,,,,,,,,,,,,,,,,,,None,None,None,56.835,,,,,,,,,,,,,,,,,,,2019_Mar_11_1633,60.22238924629056,Cloud_Experiment_FR_REAL,001,22,
images/fcloud_D1.8_1.tif,1.8,0,,,,,0,40,40,30,,,,,,,,,,,,,,,,,,,1,None,1,1.252,,,,,,,,,,,,,,,,,,,2019_Mar_11_1633,60.22238924629056,Cloud_Experiment_FR_REAL,001,22,
images/fcloud80-20_D1.8_3.tif,1.8,2,,,,,0,41,41,104,,,,,,,,,,,,,,,,,,,None,None,None,10.509,,,,,,,,,,,,,,,,,,,2019_Mar_11_1633,60.22238924629056,Cloud_Experiment_FR_REAL,001,22,
images/fcloud65-35_D1.5_1.tif,1.5,1,,,,,0,42,42,57,,,,,,,,,,,,,,,,,,,2,space,3,1.069,7.4896725,,,,,,,,,,,,,,,,,,2019_Mar_11_1633,60.22238924629056,Cloud_Experiment_FR_REAL,001,22,
images/fcloud_D1.1_1.tif,1.1,0,,,,,0,43,43,9,,,,,,,,,,,,,,,,,,,None,None,None,10.159,,,,,,,,,,,,,,,,,,,2019_Mar_11_1633,60.22238924629056,Cloud_Experiment_FR_REAL,001,22,
images/fcloud_D1_2.tif,1.0,0,,,,,0,44,44,7,,,,,,,,,,,,,,,,,,,None,None,None,18.752,,,,,,,,,,,,,,,,,,,2019_Mar_11_1633,60.22238924629056,Cloud_Experiment_FR_REAL,001,22,
images/fcloud_D1.9_1.tif,1.9,0,,,,,0,45,45,33,,,,,,,,,,,,,,,,,,,None,None,None,29.508,,,,,,,,,,,,,,,,,,,2019_Mar_11_1633,60.22238924629056,Cloud_Experiment_FR_REAL,001,22,
images/fcloud80-20_D1_1.tif,1.0,2,,,,,0,46,46,78,,,,,,,,,,,,,,,,,,,None,None,None,38.768,,,,,,,,,,,,,,,,,,,2019_Mar_11_1633,60.22238924629056,Cloud_Experiment_FR_REAL,001,22,
images/fcloud80-20_D1.7_1.tif,1.7,2,,,,,0,47,47,99,,,,,,,,,,,,,,,,,,,1,None,2,2.018,,,,,,,,,,,,,,,,,,,2019_Mar_11_1633,60.22238924629056,Cloud_Experiment_FR_REAL,001,22,
images/fcloud65-35_D1.1_1.tif,1.1,1,,,,,0,48,48,45,,,,,,,,,,,,,,,,,,,None,None,None,11.891,,,,,,,,,,,,,,,,,,,2019_Mar_11_1633,60.22238924629056,Cloud_Experiment_FR_REAL,001,22,
images/fcloud80-20_D0.8_3.tif,0.8,2,,,,,0,49,49,74,,,,,,,,,,,,,,,,,,,None,None,None,20.667,,,,,,,,,,,,,,,,,,,2019_Mar_11_1633,60.22238924629056,Cloud_Experiment_FR_REAL,001,22,
images/fcloud80-20_D1.5_3.tif,1.5,2,,,,,0,50,50,95,,,,,,,,,,,,,,,,,,,None,None,None,29.208,,,,,,,,,,,,,,,,,,,2019_Mar_11_1633,60.22238924629056,Cloud_Experiment_FR_REAL,001,22,
images/fcloud_D0.9_2.tif,0.9,0,,,,,0,51,51,4,,,,,,,,,,,,,,,,,,,None,None,None,37.717,,,,,,,,,,,,,,,,,,,2019_Mar_11_1633,60.22238924629056,Cloud_Experiment_FR_REAL,001,22,
images/fcloud80-20_D1.9_3.tif,1.9,2,,,,,0,52,52,107,,,,,,,,,,,,,,,,,,,1,space,2,4.264,6.2862761,,,,,,,,,,,,,,,,,,2019_Mar_11_1633,60.22238924629056,Cloud_Experiment_FR_REAL,001,22,
images/fcloud_D1.9_3.tif,1.9,0,,,,,0,53,53,35,,,,,,,,,,,,,,,,,,,None,None,None,14.09,,,,,,,,,,,,,,,,,,,2019_Mar_11_1633,60.22238924629056,Cloud_Experiment_FR_REAL,001,22,
images/fcloud65-35_D0.9_3.tif,0.9,1,,,,,0,54,54,41,,,,,,,,,,,,,,,,,,,None,None,None,23.38,,,,,,,,,,,,,,,,,,,2019_Mar_11_1633,60.22238924629056,Cloud_Experiment_FR_REAL,001,22,
images/fcloud_D1_1.tif,1.0,0,,,,,0,55,55,6,,,,,,,,,,,,,,,,,,,None,None,None,32.074,,,,,,,,,,,,,,,,,,,2019_Mar_11_1633,60.22238924629056,Cloud_Experiment_FR_REAL,001,22,
images/fcloud65-35_D1.3_2.tif,1.3,1,,,,,0,56,56,52,,,,,,,,,,,,,,,,,,,1,space,5,1.551,5.25088589999,,,,,,,,,,,,,,,,,,2019_Mar_11_1633,60.22238924629056,Cloud_Experiment_FR_REAL,001,22,
images/fcloud80-20_D1.2_1.tif,1.2,2,,,,,0,57,57,84,,,,,,,,,,,,,,,,,,,None,None,None,10.592,,,,,,,,,,,,,,,,,,,2019_Mar_11_1633,60.22238924629056,Cloud_Experiment_FR_REAL,001,22,
images/fcloud_D1.5_2.tif,1.5,0,,,,,0,58,58,22,,,,,,,,,,,,,,,,,,,1,None,5,1.75,,,,,,,,,,,,,,,,,,,2019_Mar_11_1633,60.22238924629056,Cloud_Experiment_FR_REAL,001,22,
images/fcloud80-20_D1.4_1.tif,1.4,2,,,,,0,59,59,90,,,,,,,,,,,,,,,,,,,None,None,None,11.292,,,,,,,,,,,,,,,,,,,2019_Mar_11_1633,60.22238924629056,Cloud_Experiment_FR_REAL,001,22,
images/fcloud65-35_D0.9_1.tif,0.9,1,,,,,0,60,60,39,,,,,,,,,,,,,,,,,,,1,space,2,0.952,4.54324550001,,,,,,,,,,,,,,,,,,2019_Mar_11_1633,60.22238924629056,Cloud_Experiment_FR_REAL,001,22,
images/fcloud_D0.8_3.tif,0.8,0,,,,,0,61,61,2,,,,,,,,,,,,,,,,,,,None,None,None,10.308,,,,,,,,,,,,,,,,,,,2019_Mar_11_1633,60.22238924629056,Cloud_Experiment_FR_REAL,001,22,
images/fcloud80-20_D1.9_1.tif,1.9,2,,,,,0,62,62,105,,,,,,,,,,,,,,,,,,,None,None,None,19.434,,,,,,,,,,,,,,,,,,,2019_Mar_11_1633,60.22238924629056,Cloud_Experiment_FR_REAL,001,22,
images/fcloud_D1.6_3.tif,1.6,0,,,,,0,63,63,26,,,,,,,,,,,,,,,,,,,None,None,None,28.626,,,,,,,,,,,,,,,,,,,2019_Mar_11_1633,60.22238924629056,Cloud_Experiment_FR_REAL,001,22,
images/fcloud_D1.5_1.tif,1.5,0,,,,,0,64,64,21,,,,,,,,,,,,,,,,,,,None,None,None,37.903,,,,,,,,,,,,,,,,,,,2019_Mar_11_1633,60.22238924629056,Cloud_Experiment_FR_REAL,001,22,
images/fcloud80-20_D1.6_3.tif,1.6,2,,,,,0,65,65,98,,,,,,,,,,,,,,,,,,,None,None,None,47.161,,,,,,,,,,,,,,,,,,,2019_Mar_11_1633,60.22238924629056,Cloud_Experiment_FR_REAL,001,22,
images/fcloud80-20_D1.1_3.tif,1.1,2,,,,,0,66,66,83,,,,,,,,,,,,,,,,,,,None,None,None,56.336,,,,,,,,,,,,,,,,,,,2019_Mar_11_1633,60.22238924629056,Cloud_Experiment_FR_REAL,001,22,
images/fcloud80-20_D1.3_3.tif,1.3,2,,,,,0,67,67,89,,,,,,,,,,,,,,,,,,,None,None,None,65.444,,,,,,,,,,,,,,,,,,,2019_Mar_11_1633,60.22238924629056,Cloud_Experiment_FR_REAL,001,22,
images/fcloud65-35_D1_2.tif,1.0,1,,,,,0,68,68,43,,,,,,,,,,,,,,,,,,,None,None,None,74.689,,,,,,,,,,,,,,,,,,,2019_Mar_11_1633,60.22238924629056,Cloud_Experiment_FR_REAL,001,22,
images/fcloud65-35_D1.7_1.tif,1.7,1,,,,,0,69,69,63,,,,,,,,,,,,,,,,,,,None,None,None,83.827,,,,,,,,,,,,,,,,,,,2019_Mar_11_1633,60.22238924629056,Cloud_Experiment_FR_REAL,001,22,
images/fcloud_D1.7_3.tif,1.7,0,,,,,0,70,70,29,,,,,,,,,,,,,,,,,,,None,None,None,93.155,,,,,,,,,,,,,,,,,,,2019_Mar_11_1633,60.22238924629056,Cloud_Experiment_FR_REAL,001,22,
images/fcloud_D1.3_1.tif,1.3,0,,,,,0,71,71,15,,,,,,,,,,,,,,,,,,,None,None,None,102.33,,,,,,,,,,,,,,,,,,,2019_Mar_11_1633,60.22238924629056,Cloud_Experiment_FR_REAL,001,22,
images/fcloud80-20_D0.9_1.tif,0.9,2,,,,,0,72,72,75,,,,,,,,,,,,,,,,,,,3,space,2,1.452,4.24048909999,,,,,,,,,,,,,,,,,,2019_Mar_11_1633,60.22238924629056,Cloud_Experiment_FR_REAL,001,22,
images/fcloud65-35_D1.5_3.tif,1.5,1,,,,,0,73,73,59,,,,,,,,,,,,,,,,,,,3,space,2,2.166,2.46862510001,,,,,,,,,,,,,,,,,,2019_Mar_11_1633,60.22238924629056,Cloud_Experiment_FR_REAL,001,22,
images/fcloud65-35_D1.5_2.tif,1.5,1,,,,,0,74,74,58,,,,,,,,,,,,,,,,,,,None,None,None,11.441,,,,,,,,,,,,,,,,,,,2019_Mar_11_1633,60.22238924629056,Cloud_Experiment_FR_REAL,001,22,
images/fcloud65-35_D1.7_3.tif,1.7,1,,,,,0,75,75,65,,,,,,,,,,,,,,,,,,,None,None,None,20.9,,,,,,,,,,,,,,,,,,,2019_Mar_11_1633,60.22238924629056,Cloud_Experiment_FR_REAL,001,22,
images/fcloud80-20_D1.8_1.tif,1.8,2,,,,,0,76,76,102,,,,,,,,,,,,,,,,,,,None,None,None,30.225,,,,,,,,,,,,,,,,,,,2019_Mar_11_1633,60.22238924629056,Cloud_Experiment_FR_REAL,001,22,
images/fcloud_D1_3.tif,1.0,0,,,,,0,77,77,8,,,,,,,,,,,,,,,,,,,None,None,None,42.515,,,,,,,,,,,,,,,,,,,2019_Mar_11_1633,60.22238924629056,Cloud_Experiment_FR_REAL,001,22,
images/fcloud65-35_D1.6_2.tif,1.6,1,,,,,0,78,78,61,,,,,,,,,,,,,,,,,,,1,space,2,1.485,2.85176280001,,,,,,,,,,,,,,,,,,2019_Mar_11_1633,60.22238924629056,Cloud_Experiment_FR_REAL,001,22,
images/fcloud80-20_D1.3_1.tif,1.3,2,,,,,0,79,79,87,,,,,,,,,,,,,,,,,,,1,space,2,0.736,6.89256569999,,,,,,,,,,,,,,,,,,2019_Mar_11_1633,60.22238924629056,Cloud_Experiment_FR_REAL,001,22,
images/fcloud65-35_D1.3_3.tif,1.3,1,,,,,0,80,80,53,,,,,,,,,,,,,,,,,,,None,None,None,10.775,,,,,,,,,,,,,,,,,,,2019_Mar_11_1633,60.22238924629056,Cloud_Experiment_FR_REAL,001,22,
images/fcloud65-35_D1.4_2.tif,1.4,1,,,,,0,81,81,55,,,,,,,,,,,,,,,,,,,1,None,1,2.418,,,,,,,,,,,,,,,,,,,2019_Mar_11_1633,60.22238924629056,Cloud_Experiment_FR_REAL,001,22,
images/fcloud_D1.9_2.tif,1.9,0,,,,,0,82,82,34,,,,,,,,,,,,,,,,,,,5,None,2,3.101,,,,,,,,,,,,,,,,,,,2019_Mar_11_1633,60.22238924629056,Cloud_Experiment_FR_REAL,001,22,
images/fcloud80-20_D1_3.tif,1.0,2,,,,,0,83,83,80,,,,,,,,,,,,,,,,,,,None,None,None,13.906,,,,,,,,,,,,,,,,,,,2019_Mar_11_1633,60.22238924629056,Cloud_Experiment_FR_REAL,001,22,
images/fcloud_D1.8_2.tif,1.8,0,,,,,0,84,84,31,,,,,,,,,,,,,,,,,,,None,None,None,23.581,,,,,,,,,,,,,,,,,,,2019_Mar_11_1633,60.22238924629056,Cloud_Experiment_FR_REAL,001,22,
images/fcloud65-35_D1_1.tif,1.0,1,,,,,0,85,85,42,,,,,,,,,,,,,,,,,,,None,None,None,31.94,,,,,,,,,,,,,,,,,,,2019_Mar_11_1633,60.22238924629056,Cloud_Experiment_FR_REAL,001,22,
images/fcloud80-20_D1.1_2.tif,1.1,2,,,,,0,86,86,82,,,,,,,,,,,,,,,,,,,None,None,None,40.167,,,,,,,,,,,,,,,,,,,2019_Mar_11_1633,60.22238924629056,Cloud_Experiment_FR_REAL,001,22,
images/fcloud65-35_D0.8_1.tif,0.8,1,,,,,0,87,87,36,,,,,,,,,,,,,,,,,,,None,None,None,48.691,,,,,,,,,,,,,,,,,,,2019_Mar_11_1633,60.22238924629056,Cloud_Experiment_FR_REAL,001,22,
images/fcloud_D1.4_1.tif,1.4,0,,,,,0,88,88,18,,,,,,,,,,,,,,,,,,,1,space,4,2.118,2.10576490001,,,,,,,,,,,,,,,,,,2019_Mar_11_1633,60.22238924629056,Cloud_Experiment_FR_REAL,001,22,
images/fcloud65-35_D1.6_1.tif,1.6,1,,,,,0,89,89,60,,,,,,,,,,,,,,,,,,,None,None,None,11.758,,,,,,,,,,,,,,,,,,,2019_Mar_11_1633,60.22238924629056,Cloud_Experiment_FR_REAL,001,22,
images/fcloud65-35_D1.3_1.tif,1.3,1,,,,,0,90,90,51,,,,,,,,,,,,,,,,,,,None,None,None,21.216,,,,,,,,,,,,,,,,,,,2019_Mar_11_1633,60.22238924629056,Cloud_Experiment_FR_REAL,001,22,
images/fcloud80-20_D1.1_1.tif,1.1,2,,,,,0,91,91,81,,,,,,,,,,,,,,,,,,,None,None,None,29.576,,,,,,,,,,,,,,,,,,,2019_Mar_11_1633,60.22238924629056,Cloud_Experiment_FR_REAL,001,22,
images/fcloud_D0.8_2.tif,0.8,0,,,,,0,92,92,1,,,,,,,,,,,,,,,,,,,None,None,None,37.701,,,,,,,,,,,,,,,,,,,2019_Mar_11_1633,60.22238924629056,Cloud_Experiment_FR_REAL,001,22,
images/fcloud65-35_D1.1_3.tif,1.1,1,,,,,0,93,93,47,,,,,,,,,,,,,,,,,,,None,None,None,46.028,,,,,,,,,,,,,,,,,,,2019_Mar_11_1633,60.22238924629056,Cloud_Experiment_FR_REAL,001,22,
images/fcloud_D1.4_2.tif,1.4,0,,,,,0,94,94,19,,,,,,,,,,,,,,,,,,,None,None,None,54.753,,,,,,,,,,,,,,,,,,,2019_Mar_11_1633,60.22238924629056,Cloud_Experiment_FR_REAL,001,22,
images/fcloud80-20_D1.6_1.tif,1.6,2,,,,,0,95,95,96,,,,,,,,,,,,,,,,,,,None,None,None,63.394,,,,,,,,,,,,,,,,,,,2019_Mar_11_1633,60.22238924629056,Cloud_Experiment_FR_REAL,001,22,
images/fcloud65-35_D1.2_2.tif,1.2,1,,,,,0,96,96,49,,,,,,,,,,,,,,,,,,,None,None,None,71.856,,,,,,,,,,,,,,,,,,,2019_Mar_11_1633,60.22238924629056,Cloud_Experiment_FR_REAL,001,22,
images/fcloud_D1.8_3.tif,1.8,0,,,,,0,97,97,32,,,,,,,,,,,,,,,,,,,None,None,None,80.447,,,,,,,,,,,,,,,,,,,2019_Mar_11_1633,60.22238924629056,Cloud_Experiment_FR_REAL,001,22,
images/fcloud_D1.7_2.tif,1.7,0,,,,,0,98,98,28,,,,,,,,,,,,,,,,,,,None,None,None,89.023,,,,,,,,,,,,,,,,,,,2019_Mar_11_1633,60.22238924629056,Cloud_Experiment_FR_REAL,001,22,
images/fcloud_D1.3_3.tif,1.3,0,,,,,0,99,99,17,,,,,,,,,,,,,,,,,,,None,None,None,98.481,,,,,,,,,,,,,,,,,,,2019_Mar_11_1633,60.22238924629056,Cloud_Experiment_FR_REAL,001,22,
images/fcloud65-35_D1.4_3.tif,1.4,1,,,,,0,100,100,56,,,,,,,,,,,,,,,,,,,None,None,None,107.79,,,,,,,,,,,,,,,,,,,2019_Mar_11_1633,60.22238924629056,Cloud_Experiment_FR_REAL,001,22,
images/fcloud80-20_D1_2.tif,1.0,2,,,,,0,101,101,79,,,,,,,,,,,,,,,,,,,None,None,None,116.882,,,,,,,,,,,,,,,,,,,2019_Mar_11_1633,60.22238924629056,Cloud_Experiment_FR_REAL,001,22,
images/fcloud_D1.1_2.tif,1.1,0,,,,,0,102,102,10,,,,,,,,,,,,,,,,,,,None,None,None,126.275,,,,,,,,,,,,,,,,,,,2019_Mar_11_1633,60.22238924629056,Cloud_Experiment_FR_REAL,001,22,
images/fcloud_D1.5_3.tif,1.5,0,,,,,0,103,103,23,,,,,,,,,,,,,,,,,,,None,None,None,135.633,,,,,,,,,,,,,,,,,,,2019_Mar_11_1633,60.22238924629056,Cloud_Experiment_FR_REAL,001,22,
images/fcloud65-35_D1.8_2.tif,1.8,1,,,,,0,104,104,67,,,,,,,,,,,,,,,,,,,None,None,None,144.859,,,,,,,,,,,,,,,,,,,2019_Mar_11_1633,60.22238924629056,Cloud_Experiment_FR_REAL,001,22,
images/fcloud80-20_D1.7_2.tif,1.7,2,,,,,0,105,105,100,,,,,,,,,,,,,,,,,,,None,None,None,154.051,,,,,,,,,,,,,,,,,,,2019_Mar_11_1633,60.22238924629056,Cloud_Experiment_FR_REAL,001,22,
images/fcloud65-35_D1_3.tif,1.0,1,,,,,0,106,106,44,,,,,,,,,,,,,,,,,,,None,None,None,163.292,,,,,,,,,,,,,,,,,,,2019_Mar_11_1633,60.22238924629056,Cloud_Experiment_FR_REAL,001,22,
images/fcloud80-20_D1.6_2.tif,1.6,2,,,,,0,107,107,97,,,,,,,,,,,,,,,,,,,None,None,None,172.468,,,,,,,,,,,,,,,,,,,2019_Mar_11_1633,60.22238924629056,Cloud_Experiment_FR_REAL,001,22,
,,,,,,,,,,,,,,,,,,,,,,,,,,,,,,,,,,,,,,,,,,,,,,space,3.58197480001,,,,2019_Mar_11_1633,60.22238924629056,Cloud_Experiment_FR_REAL,001,22,
,,,,,,,,,,,,,,,,,,,,,,,,,6,5.939,,,,,,,,,,,,,,,,,,,,,,,,,2019_Mar_11_1633,60.22238924629056,Cloud_Experiment_FR_REAL,001,22,
,,,,,,,,,,,,,,,,,,,,,,,,,,,,,,,,,,3,,,,,,,,,,,,,,,,,2019_Mar_11_1633,60.22238924629056,Cloud_Experiment_FR_REAL,001,22,
,,,,,,,,,,,,,,,,,,,,,,,,,,,,,,,,,,,5,,,,,,,,,,,,,,,,2019_Mar_11_1633,60.22238924629056,Cloud_Experiment_FR_REAL,001,22,
,,,,,,,,,,,,,,,,,,,,,,,,,,,,,,,,,,,,6,,,,,,,,,,,,,,,2019_Mar_11_1633,60.22238924629056,Cloud_Experiment_FR_REAL,001,22,
,,,,,,,,,,,,,,,,,,,,,,,,,,,,,,,,,,,,,5,,,,,,,,,,,,,,2019_Mar_11_1633,60.22238924629056,Cloud_Experiment_FR_REAL,001,22,
,,,,,,,,,,,,,,,,,,,,,,,,,,,,,,,,,,,,,,5,,,,,,,,,,,,,2019_Mar_11_1633,60.22238924629056,Cloud_Experiment_FR_REAL,001,22,
,,,,,,,,,,,,,,,,,,,,,,,,,,,,,,,,,,,,,,,7,,,,,,,,,,,,2019_Mar_11_1633,60.22238924629056,Cloud_Experiment_FR_REAL,001,22,
,,,,,,,,,,,,,,,,,,,,,,,,,,,,,,,,,,,,,,,,6,,,,,,,,,,,2019_Mar_11_1633,60.22238924629056,Cloud_Experiment_FR_REAL,001,22,
,,,,,,,,,,,,,,,,,,,,,,,,,,,,,,,,,,,,,,,,,7,,,,,,,,,,2019_Mar_11_1633,60.22238924629056,Cloud_Experiment_FR_REAL,001,22,
,,,,,,,,,,,,,,,,,,,,,,,,,,,,,,,,,,,,,,,,,,7,,,,,,,,,2019_Mar_11_1633,60.22238924629056,Cloud_Experiment_FR_REAL,001,22,
,,,,,,,,,,,,,,,,,,,,,,,,,,,,,,,,,,,,,,,,,,,3,,,,,,,,2019_Mar_11_1633,60.22238924629056,Cloud_Experiment_FR_REAL,001,22,
,,,,,,,,,,,,,,,,,,,,,,,,,,,,,,,,,,,,,,,,,,,,,,,,space,44.1281797,,2019_Mar_11_1633,60.22238924629056,Cloud_Experiment_FR_REAL,001,22,
images/fcloud_D1_6.tif,1.0,0,,,,,,,,,0,0,0,8,,,,,,,,,,,,,,,None,None,None,274.28,,,,,,,,,,,,,,,,,,,2019_Mar_11_1633,60.22238924629056,Cloud_Experiment_FR_REAL,001,22,
images/fcloud80-20_D1_6.tif,1.0,2,,,,,,,,,0,1,1,80,,,,,,,,,,,,,,,None,None,None,282.772,,,,,,,,,,,,,,,,,,,2019_Mar_11_1633,60.22238924629056,Cloud_Experiment_FR_REAL,001,22,
images/fcloud_D1.1_4.tif,1.1,0,,,,,,,,,0,2,2,9,,,,,,,,,,,,,,,None,None,None,291.279,,,,,,,,,,,,,,,,,,,2019_Mar_11_1633,60.22238924629056,Cloud_Experiment_FR_REAL,001,22,
images/fcloud65-35_D0.8_4.tif,0.8,1,,,,,,,,,0,3,3,36,,,,,,,,,,,,,,,1,space,4,1.017,6.40261360002,,,,,,,,,,,,,,,,,,2019_Mar_11_1633,60.22238924629056,Cloud_Experiment_FR_REAL,001,22,
images/fcloud65-35_D1.2_4.tif,1.2,1,,,,,,,,,0,4,4,48,,,,,,,,,,,,,,,None,None,None,10.21,,,,,,,,,,,,,,,,,,,2019_Mar_11_1633,60.22238924629056,Cloud_Experiment_FR_REAL,001,22,
images/fcloud65-35_D1.9_5.tif,1.9,1,,,,,,,,,0,5,5,70,,,,,,,,,,,,,,,3,space,2,2.383,6.51553199999,,,,,,,,,,,,,,,,,,2019_Mar_11_1633,60.22238924629056,Cloud_Experiment_FR_REAL,001,22,
images/fcloud_D1.9_4.tif,1.9,0,,,,,,,,,0,6,6,33,,,,,,,,,,,,,,,None,None,None,11.574,,,,,,,,,,,,,,,,,,,2019_Mar_11_1633,60.22238924629056,Cloud_Experiment_FR_REAL,001,22,
images/fcloud_D1.3_5.tif,1.3,0,,,,,,,,,0,7,7,16,,,,,,,,,,,,,,,None,None,None,20.15,,,,,,,,,,,,,,,,,,,2019_Mar_11_1633,60.22238924629056,Cloud_Experiment_FR_REAL,001,22,
images/fcloud_D1.7_5.tif,1.7,0,,,,,,,,,0,8,8,28,,,,,,,,,,,,,,,None,None,None,28.841,,,,,,,,,,,,,,,,,,,2019_Mar_11_1633,60.22238924629056,Cloud_Experiment_FR_REAL,001,22,
images/fcloud65-35_D1.5_6.tif,1.5,1,,,,,,,,,0,9,9,59,,,,,,,,,,,,,,,1,space,1,1.268,6.13056660001,,,,,,,,,,,,,,,,,,2019_Mar_11_1633,60.22238924629056,Cloud_Experiment_FR_REAL,001,22,
images/fcloud65-35_D1_4.tif,1.0,1,,,,,,,,,0,10,10,42,,,,,,,,,,,,,,,None,None,None,10.242,,,,,,,,,,,,,,,,,,,2019_Mar_11_1633,60.22238924629056,Cloud_Experiment_FR_REAL,001,22,
images/fcloud_D0.9_6.tif,0.9,0,,,,,,,,,0,11,11,5,,,,,,,,,,,,,,,None,None,None,18.701,,,,,,,,,,,,,,,,,,,2019_Mar_11_1633,60.22238924629056,Cloud_Experiment_FR_REAL,001,22,
images/fcloud65-35_D1.6_5.tif,1.6,1,,,,,,,,,0,12,12,61,,,,,,,,,,,,,,,None,None,None,28.111,,,,,,,,,,,,,,,,,,,2019_Mar_11_1633,60.22238924629056,Cloud_Experiment_FR_REAL,001,22,
images/fcloud80-20_D1.7_5.tif,1.7,2,,,,,,,,,0,13,13,100,,,,,,,,,,,,,,,1,space,3,1.036,5.01828339999,,,,,,,,,,,,,,,,,,2019_Mar_11_1633,60.22238924629056,Cloud_Experiment_FR_REAL,001,22,
images/fcloud65-35_D1.6_4.tif,1.6,1,,,,,,,,,0,14,14,60,,,,,,,,,,,,,,,None,None,None,10.259,,,,,,,,,,,,,,,,,,,2019_Mar_11_1633,60.22238924629056,Cloud_Experiment_FR_REAL,001,22,
images/fcloud80-20_D1.3_5.tif,1.3,2,,,,,,,,,0,15,15,88,,,,,,,,,,,,,,,1,space,2,0.918,5.08528130001,,,,,,,,,,,,,,,,,,2019_Mar_11_1633,60.22238924629056,Cloud_Experiment_FR_REAL,001,22,
images/fcloud65-35_D1.4_4.tif,1.4,1,,,,,,,,,0,16,16,54,,,,,,,,,,,,,,,3,space,2,1.001,2.49525840001,,,,,,,,,,,,,,,,,,2019_Mar_11_1633,60.22238924629056,Cloud_Experiment_FR_REAL,001,22,
images/fcloud_D0.9_5.tif,0.9,0,,,,,,,,,0,17,17,4,,,,,,,,,,,,,,,None,None,None,10.792,,,,,,,,,,,,,,,,,,,2019_Mar_11_1633,60.22238924629056,Cloud_Experiment_FR_REAL,001,22,
images/fcloud65-35_D1.5_4.tif,1.5,1,,,,,,,,,0,18,18,57,,,,,,,,,,,,,,,None,None,None,19.45,,,,,,,,,,,,,,,,,,,2019_Mar_11_1633,60.22238924629056,Cloud_Experiment_FR_REAL,001,22,
images/fcloud_D1.4_5.tif,1.4,0,,,,,,,,,0,19,19,19,,,,,,,,,,,,,,,None,None,None,29.325,,,,,,,,,,,,,,,,,,,2019_Mar_11_1633,60.22238924629056,Cloud_Experiment_FR_REAL,001,22,
images/fcloud65-35_D1.8_6.tif,1.8,1,,,,,,,,,0,20,20,68,,,,,,,,,,,,,,,4,None,2,1.236,,,,,,,,,,,,,,,,,,,2019_Mar_11_1633,60.22238924629056,Cloud_Experiment_FR_REAL,001,22,
images/fcloud65-35_D1.4_5.tif,1.4,1,,,,,,,,,0,21,21,55,,,,,,,,,,,,,,,None,None,None,11.176,,,,,,,,,,,,,,,,,,,2019_Mar_11_1633,60.22238924629056,Cloud_Experiment_FR_REAL,001,22,
images/fcloud65-35_D1.7_5.tif,1.7,1,,,,,,,,,0,22,22,64,,,,,,,,,,,,,,,None,None,None,21.2,,,,,,,,,,,,,,,,,,,2019_Mar_11_1633,60.22238924629056,Cloud_Experiment_FR_REAL,001,22,
images/fcloud65-35_D1.6_6.tif,1.6,1,,,,,,,,,0,23,23,62,,,,,,,,,,,,,,,None,None,None,31.191,,,,,,,,,,,,,,,,,,,2019_Mar_11_1633,60.22238924629056,Cloud_Experiment_FR_REAL,001,22,
images/fcloud80-20_D0.9_5.tif,0.9,2,,,,,,,,,0,24,24,76,,,,,,,,,,,,,,,None,None,None,41.549,,,,,,,,,,,,,,,,,,,2019_Mar_11_1633,60.22238924629056,Cloud_Experiment_FR_REAL,001,22,
images/fcloud80-20_D0.8_6.tif,0.8,2,,,,,,,,,0,25,25,74,,,,,,,,,,,,,,,None,None,None,51.84,,,,,,,,,,,,,,,,,,,2019_Mar_11_1633,60.22238924629056,Cloud_Experiment_FR_REAL,001,22,
images/fcloud80-20_D1.6_6.tif,1.6,2,,,,,,,,,0,26,26,98,,,,,,,,,,,,,,,None,None,None,60.932,,,,,,,,,,,,,,,,,,,2019_Mar_11_1633,60.22238924629056,Cloud_Experiment_FR_REAL,001,22,
images/fcloud65-35_D0.8_5.tif,0.8,1,,,,,,,,,0,27,27,37,,,,,,,,,,,,,,,None,None,None,69.425,,,,,,,,,,,,,,,,,,,2019_Mar_11_1633,60.22238924629056,Cloud_Experiment_FR_REAL,001,22,
images/fcloud80-20_D1.2_5.tif,1.2,2,,,,,,,,,0,28,28,85,,,,,,,,,,,,,,,None,None,None,77.9,,,,,,,,,,,,,,,,,,,2019_Mar_11_1633,60.22238924629056,Cloud_Experiment_FR_REAL,001,22,
images/fcloud_D1.1_5.tif,1.1,0,,,,,,,,,0,29,29,10,,,,,,,,,,,,,,,None,None,None,86.325,,,,,,,,,,,,,,,,,,,2019_Mar_11_1633,60.22238924629056,Cloud_Experiment_FR_REAL,001,22,
images/fcloud_D0.8_4.tif,0.8,0,,,,,,,,,0,30,30,0,,,,,,,,,,,,,,,None,None,None,94.753,,,,,,,,,,,,,,,,,,,2019_Mar_11_1633,60.22238924629056,Cloud_Experiment_FR_REAL,001,22,
images/fcloud80-20_D1.1_6.tif,1.1,2,,,,,,,,,0,31,31,83,,,,,,,,,,,,,,,None,None,None,103.295,,,,,,,,,,,,,,,,,,,2019_Mar_11_1633,60.22238924629056,Cloud_Experiment_FR_REAL,001,22,
images/fcloud80-20_D1_5.tif,1.0,2,,,,,,,,,0,32,32,79,,,,,,,,,,,,,,,None,None,None,116.182,,,,,,,,,,,,,,,,,,,2019_Mar_11_1633,60.22238924629056,Cloud_Experiment_FR_REAL,001,22,
images/fcloud65-35_D1.4_6.tif,1.4,1,,,,,,,,,0,33,33,56,,,,,,,,,,,,,,,2,space,3,1.835,5.3716935,,,,,,,,,,,,,,,,,,2019_Mar_11_1633,60.22238924629056,Cloud_Experiment_FR_REAL,001,22,
images/fcloud65-35_D1.7_4.tif,1.7,1,,,,,,,,,0,34,34,63,,,,,,,,,,,,,,,1,None,1,1.068,,,,,,,,,,,,,,,,,,,2019_Mar_11_1633,60.22238924629056,Cloud_Experiment_FR_REAL,001,22,
images/fcloud65-35_D0.8_6.tif,0.8,1,,,,,,,,,0,35,35,38,,,,,,,,,,,,,,,None,None,None,11.091,,,,,,,,,,,,,,,,,,,2019_Mar_11_1633,60.22238924629056,Cloud_Experiment_FR_REAL,001,22,
images/fcloud80-20_D1.5_4.tif,1.5,2,,,,,,,,,0,36,36,93,,,,,,,,,,,,,,,None,None,None,20.299,,,,,,,,,,,,,,,,,,,2019_Mar_11_1633,60.22238924629056,Cloud_Experiment_FR_REAL,001,22,
images/fcloud80-20_D1.1_5.tif,1.1,2,,,,,,,,,0,37,37,82,,,,,,,,,,,,,,,None,None,None,29.576,,,,,,,,,,,,,,,,,,,2019_Mar_11_1633,60.22238924629056,Cloud_Experiment_FR_REAL,001,22,
images/fcloud_D1.3_6.tif,1.3,0,,,,,,,,,0,38,38,17,,,,,,,,,,,,,,,None,None,None,38.836,,,,,,,,,,,,,,,,,,,2019_Mar_11_1633,60.22238924629056,Cloud_Experiment_FR_REAL,001,22,
images/fcloud80-20_D1.3_4.tif,1.3,2,,,,,,,,,0,39,39,87,,,,,,,,,,,,,,,None,None,None,48.06,,,,,,,,,,,,,,,,,,,2019_Mar_11_1633,60.22238924629056,Cloud_Experiment_FR_REAL,001,22,
images/fcloud_D1.5_5.tif,1.5,0,,,,,,,,,0,40,40,22,,,,,,,,,,,,,,,None,None,None,57.285,,,,,,,,,,,,,,,,,,,2019_Mar_11_1633,60.22238924629056,Cloud_Experiment_FR_REAL,001,22,
images/fcloud80-20_D1.4_4.tif,1.4,2,,,,,,,,,0,41,41,90,,,,,,,,,,,,,,,None,None,None,66.509,,,,,,,,,,,,,,,,,,,2019_Mar_11_1633,60.22238924629056,Cloud_Experiment_FR_REAL,001,22,
images/fcloud80-20_D0.9_4.tif,0.9,2,,,,,,,,,0,42,42,75,,,,,,,,,,,,,,,None,None,None,75.435,,,,,,,,,,,,,,,,,,,2019_Mar_11_1633,60.22238924629056,Cloud_Experiment_FR_REAL,001,22,
images/fcloud_D1.6_6.tif,1.6,0,,,,,,,,,0,43,43,26,,,,,,,,,,,,,,,None,None,None,83.877,,,,,,,,,,,,,,,,,,,2019_Mar_11_1633,60.22238924629056,Cloud_Experiment_FR_REAL,001,22,
images/fcloud_D1.2_5.tif,1.2,0,,,,,,,,,0,44,44,13,,,,,,,,,,,,,,,None,None,None,92.387,,,,,,,,,,,,,,,,,,,2019_Mar_11_1633,60.22238924629056,Cloud_Experiment_FR_REAL,001,22,
images/fcloud_D1.5_4.tif,1.5,0,,,,,,,,,0,45,45,21,,,,,,,,,,,,,,,1,space,1,1.302,7.44809230001,,,,,,,,,,,,,,,,,,2019_Mar_11_1633,60.22238924629056,Cloud_Experiment_FR_REAL,001,22,
images/fcloud80-20_D1.9_6.tif,1.9,2,,,,,,,,,0,46,46,107,,,,,,,,,,,,,,,None,None,None,10.941,,,,,,,,,,,,,,,,,,,2019_Mar_11_1633,60.22238924629056,Cloud_Experiment_FR_REAL,001,22,
images/fcloud65-35_D1.5_5.tif,1.5,1,,,,,,,,,0,47,47,58,,,,,,,,,,,,,,,None,None,None,20.132,,,,,,,,,,,,,,,,,,,2019_Mar_11_1633,60.22238924629056,Cloud_Experiment_FR_REAL,001,22,
images/fcloud65-35_D1.2_6.tif,1.2,1,,,,,,,,,0,48,48,50,,,,,,,,,,,,,,,1,space,2,1.269,6.49001750001,,,,,,,,,,,,,,,,,,2019_Mar_11_1633,60.22238924629056,Cloud_Experiment_FR_REAL,001,22,
images/fcloud65-35_D0.9_5.tif,0.9,1,,,,,,,,,0,49,49,40,,,,,,,,,,,,,,,None,None,None,10.593,,,,,,,,,,,,,,,,,,,2019_Mar_11_1633,60.22238924629056,Cloud_Experiment_FR_REAL,001,22,
images/fcloud_D1.4_4.tif,1.4,0,,,,,,,,,0,50,50,18,,,,,,,,,,,,,,,2,space,3,1.118,6.1405911,,,,,,,,,,,,,,,,,,2019_Mar_11_1633,60.22238924629056,Cloud_Experiment_FR_REAL,001,22,
images/fcloud80-20_D1_4.tif,1.0,2,,,,,,,,,0,51,51,78,,,,,,,,,,,,,,,None,None,None,14.872,,,,,,,,,,,,,,,,,,,2019_Mar_11_1633,60.22238924629056,Cloud_Experiment_FR_REAL,001,22,
images/fcloud80-20_D1.8_4.tif,1.8,2,,,,,,,,,0,52,52,102,,,,,,,,,,,,,,,None,None,None,23.898,,,,,,,,,,,,,,,,,,,2019_Mar_11_1633,60.22238924629056,Cloud_Experiment_FR_REAL,001,22,
images/fcloud_D1.4_6.tif,1.4,0,,,,,,,,,0,53,53,20,,,,,,,,,,,,,,,3,space,3,1.252,4.34705070002,,,,,,,,,,,,,,,,,,2019_Mar_11_1633,60.22238924629056,Cloud_Experiment_FR_REAL,001,22,
images/fcloud65-35_D1_6.tif,1.0,1,,,,,,,,,0,54,54,44,,,,,,,,,,,,,,,None,None,None,10.709,,,,,,,,,,,,,,,,,,,2019_Mar_11_1633,60.22238924629056,Cloud_Experiment_FR_REAL,001,22,
images/fcloud_D1.9_5.tif,1.9,0,,,,,,,,,0,55,55,34,,,,,,,,,,,,,,,None,None,None,20.0,,,,,,,,,,,,,,,,,,,2019_Mar_11_1633,60.22238924629056,Cloud_Experiment_FR_REAL,001,22,
images/fcloud65-35_D1.3_6.tif,1.3,1,,,,,,,,,0,56,56,53,,,,,,,,,,,,,,,None,None,None,29.142,,,,,,,,,,,,,,,,,,,2019_Mar_11_1633,60.22238924629056,Cloud_Experiment_FR_REAL,001,22,
images/fcloud80-20_D1.6_5.tif,1.6,2,,,,,,,,,0,57,57,97,,,,,,,,,,,,,,,None,None,None,38.435,,,,,,,,,,,,,,,,,,,2019_Mar_11_1633,60.22238924629056,Cloud_Experiment_FR_REAL,001,22,
images/fcloud_D1.6_5.tif,1.6,0,,,,,,,,,0,58,58,25,,,,,,,,,,,,,,,None,None,None,47.462,,,,,,,,,,,,,,,,,,,2019_Mar_11_1633,60.22238924629056,Cloud_Experiment_FR_REAL,001,22,
images/fcloud65-35_D1.1_4.tif,1.1,1,,,,,,,,,0,59,59,45,,,,,,,,,,,,,,,None,None,None,56.735,,,,,,,,,,,,,,,,,,,2019_Mar_11_1633,60.22238924629056,Cloud_Experiment_FR_REAL,001,22,
images/fcloud80-20_D0.8_4.tif,0.8,2,,,,,,,,,0,60,60,72,,,,,,,,,,,,,,,None,None,None,65.743,,,,,,,,,,,,,,,,,,,2019_Mar_11_1633,60.22238924629056,Cloud_Experiment_FR_REAL,001,22,
images/fcloud_D1_4.tif,1.0,0,,,,,,,,,0,61,61,6,,,,,,,,,,,,,,,4,space,2,1.635,7.75250910001,,,,,,,,,,,,,,,,,,2019_Mar_11_1633,60.22238924629056,Cloud_Experiment_FR_REAL,001,22,
images/fcloud65-35_D1.1_5.tif,1.1,1,,,,,,,,,0,62,62,46,,,,,,,,,,,,,,,None,None,None,10.776,,,,,,,,,,,,,,,,,,,2019_Mar_11_1633,60.22238924629056,Cloud_Experiment_FR_REAL,001,22,
images/fcloud65-35_D1.9_4.tif,1.9,1,,,,,,,,,0,63,63,69,,,,,,,,,,,,,,,2,space,4,1.601,4.8583966,,,,,,,,,,,,,,,,,,2019_Mar_11_1633,60.22238924629056,Cloud_Experiment_FR_REAL,001,22,
images/fcloud80-20_D1.2_4.tif,1.2,2,,,,,,,,,0,64,64,84,,,,,,,,,,,,,,,None,None,None,10.876,,,,,,,,,,,,,,,,,,,2019_Mar_11_1633,60.22238924629056,Cloud_Experiment_FR_REAL,001,22,
images/fcloud80-20_D1.7_4.tif,1.7,2,,,,,,,,,0,65,65,99,,,,,,,,,,,,,,,None,None,None,20.233,,,,,,,,,,,,,,,,,,,2019_Mar_11_1633,60.22238924629056,Cloud_Experiment_FR_REAL,001,22,
images/fcloud65-35_D1_5.tif,1.0,1,,,,,,,,,0,66,66,43,,,,,,,,,,,,,,,None,None,None,29.392,,,,,,,,,,,,,,,,,,,2019_Mar_11_1633,60.22238924629056,Cloud_Experiment_FR_REAL,001,22,
images/fcloud80-20_D1.7_6.tif,1.7,2,,,,,,,,,0,67,67,101,,,,,,,,,,,,,,,None,None,None,41.266,,,,,,,,,,,,,,,,,,,2019_Mar_11_1633,60.22238924629056,Cloud_Experiment_FR_REAL,001,22,
images/fcloud65-35_D1.9_6.tif,1.9,1,,,,,,,,,0,68,68,71,,,,,,,,,,,,,,,None,None,None,53.956,,,,,,,,,,,,,,,,,,,2019_Mar_11_1633,60.22238924629056,Cloud_Experiment_FR_REAL,001,22,
images/fcloud65-35_D1.3_5.tif,1.3,1,,,,,,,,,0,69,69,52,,,,,,,,,,,,,,,2,space,4,1.202,4.2750651,,,,,,,,,,,,,,,,,,2019_Mar_11_1633,60.22238924629056,Cloud_Experiment_FR_REAL,001,22,
images/fcloud80-20_D0.9_6.tif,0.9,2,,,,,,,,,0,70,70,77,,,,,,,,,,,,,,,None,None,None,10.709,,,,,,,,,,,,,,,,,,,2019_Mar_11_1633,60.22238924629056,Cloud_Experiment_FR_REAL,001,22,
images/fcloud80-20_D1.9_4.tif,1.9,2,,,,,,,,,0,71,71,105,,,,,,,,,,,,,,,None,None,None,20.683,,,,,,,,,,,,,,,,,,,2019_Mar_11_1633,60.22238924629056,Cloud_Experiment_FR_REAL,001,22,
images/fcloud80-20_D1.8_6.tif,1.8,2,,,,,,,,,0,72,72,104,,,,,,,,,,,,,,,None,None,None,30.442,,,,,,,,,,,,,,,,,,,2019_Mar_11_1633,60.22238924629056,Cloud_Experiment_FR_REAL,001,22,
images/fcloud80-20_D1.6_4.tif,1.6,2,,,,,,,,,0,73,73,96,,,,,,,,,,,,,,,None,None,None,40.0,,,,,,,,,,,,,,,,,,,2019_Mar_11_1633,60.22238924629056,Cloud_Experiment_FR_REAL,001,22,
images/fcloud80-20_D0.8_5.tif,0.8,2,,,,,,,,,0,74,74,73,,,,,,,,,,,,,,,None,None,None,52.338,,,,,,,,,,,,,,,,,,,2019_Mar_11_1633,60.22238924629056,Cloud_Experiment_FR_REAL,001,22,
images/fcloud65-35_D1.1_6.tif,1.1,1,,,,,,,,,0,75,75,47,,,,,,,,,,,,,,,None,None,None,60.998,,,,,,,,,,,,,,,,,,,2019_Mar_11_1633,60.22238924629056,Cloud_Experiment_FR_REAL,001,22,
images/fcloud65-35_D1.8_4.tif,1.8,1,,,,,,,,,0,76,76,66,,,,,,,,,,,,,,,None,None,None,69.407,,,,,,,,,,,,,,,,,,,2019_Mar_11_1633,60.22238924629056,Cloud_Experiment_FR_REAL,001,22,
images/fcloud_D1.3_4.tif,1.3,0,,,,,,,,,0,77,77,15,,,,,,,,,,,,,,,None,None,None,78.65,,,,,,,,,,,,,,,,,,,2019_Mar_11_1633,60.22238924629056,Cloud_Experiment_FR_REAL,001,22,
images/fcloud_D1_5.tif,1.0,0,,,,,,,,,0,78,78,7,,,,,,,,,,,,,,,None,None,None,87.123,,,,,,,,,,,,,,,,,,,2019_Mar_11_1633,60.22238924629056,Cloud_Experiment_FR_REAL,001,22,
images/fcloud65-35_D1.2_5.tif,1.2,1,,,,,,,,,0,79,79,49,,,,,,,,,,,,,,,None,None,None,95.935,,,,,,,,,,,,,,,,,,,2019_Mar_11_1633,60.22238924629056,Cloud_Experiment_FR_REAL,001,22,
images/fcloud_D1.7_4.tif,1.7,0,,,,,,,,,0,80,80,27,,,,,,,,,,,,,,,1,space,3,1.417,6.406881,,,,,,,,,,,,,,,,,,2019_Mar_11_1633,60.22238924629056,Cloud_Experiment_FR_REAL,001,22,
images/fcloud_D0.8_6.tif,0.8,0,,,,,,,,,0,81,81,2,,,,,,,,,,,,,,,None,None,None,10.676,,,,,,,,,,,,,,,,,,,2019_Mar_11_1633,60.22238924629056,Cloud_Experiment_FR_REAL,001,22,
images/fcloud80-20_D1.3_6.tif,1.3,2,,,,,,,,,0,82,82,89,,,,,,,,,,,,,,,None,None,None,21.435,,,,,,,,,,,,,,,,,,,2019_Mar_11_1633,60.22238924629056,Cloud_Experiment_FR_REAL,001,22,
images/fcloud_D1.7_6.tif,1.7,0,,,,,,,,,0,83,83,29,,,,,,,,,,,,,,,None,None,None,30.725,,,,,,,,,,,,,,,,,,,2019_Mar_11_1633,60.22238924629056,Cloud_Experiment_FR_REAL,001,22,
images/fcloud_D1.8_4.tif,1.8,0,,,,,,,,,0,84,84,30,,,,,,,,,,,,,,,3,space,4,0.919,1.76777069998,,,,,,,,,,,,,,,,,,2019_Mar_11_1633,60.22238924629056,Cloud_Experiment_FR_REAL,001,22,
images/fcloud80-20_D1.9_5.tif,1.9,2,,,,,,,,,0,85,85,106,,,,,,,,,,,,,,,None,None,None,10.043,,,,,,,,,,,,,,,,,,,2019_Mar_11_1633,60.22238924629056,Cloud_Experiment_FR_REAL,001,22,
images/fcloud65-35_D1.8_5.tif,1.8,1,,,,,,,,,0,86,86,67,,,,,,,,,,,,,,,None,None,None,18.786,,,,,,,,,,,,,,,,,,,2019_Mar_11_1633,60.22238924629056,Cloud_Experiment_FR_REAL,001,22,
images/fcloud_D1.8_6.tif,1.8,0,,,,,,,,,0,87,87,32,,,,,,,,,,,,,,,3,space,3,1.118,5.35845319999,,,,,,,,,,,,,,,,,,2019_Mar_11_1633,60.22238924629056,Cloud_Experiment_FR_REAL,001,22,
images/fcloud_D0.9_4.tif,0.9,0,,,,,,,,,0,88,88,3,,,,,,,,,,,,,,,None,None,None,11.99,,,,,,,,,,,,,,,,,,,2019_Mar_11_1633,60.22238924629056,Cloud_Experiment_FR_REAL,001,22,
images/fcloud_D1.8_5.tif,1.8,0,,,,,,,,,0,89,89,31,,,,,,,,,,,,,,,None,None,None,21.316,,,,,,,,,,,,,,,,,,,2019_Mar_11_1633,60.22238924629056,Cloud_Experiment_FR_REAL,001,22,
images/fcloud80-20_D1.8_5.tif,1.8,2,,,,,,,,,0,90,90,103,,,,,,,,,,,,,,,None,None,None,30.325,,,,,,,,,,,,,,,,,,,2019_Mar_11_1633,60.22238924629056,Cloud_Experiment_FR_REAL,001,22,
images/fcloud_D0.8_5.tif,0.8,0,,,,,,,,,0,91,91,1,,,,,,,,,,,,,,,None,None,None,38.668,,,,,,,,,,,,,,,,,,,2019_Mar_11_1633,60.22238924629056,Cloud_Experiment_FR_REAL,001,22,
images/fcloud_D1.6_4.tif,1.6,0,,,,,,,,,0,92,92,24,,,,,,,,,,,,,,,None,None,None,47.076,,,,,,,,,,,,,,,,,,,2019_Mar_11_1633,60.22238924629056,Cloud_Experiment_FR_REAL,001,22,
images/fcloud_D1.1_6.tif,1.1,0,,,,,,,,,0,93,93,11,,,,,,,,,,,,,,,None,None,None,55.485,,,,,,,,,,,,,,,,,,,2019_Mar_11_1633,60.22238924629056,Cloud_Experiment_FR_REAL,001,22,
images/fcloud65-35_D0.9_6.tif,0.9,1,,,,,,,,,0,94,94,41,,,,,,,,,,,,,,,None,None,None,63.879,,,,,,,,,,,,,,,,,,,2019_Mar_11_1633,60.22238924629056,Cloud_Experiment_FR_REAL,001,22,
images/fcloud80-20_D1.4_5.tif,1.4,2,,,,,,,,,0,95,95,91,,,,,,,,,,,,,,,None,None,None,72.62,,,,,,,,,,,,,,,,,,,2019_Mar_11_1633,60.22238924629056,Cloud_Experiment_FR_REAL,001,22,
images/fcloud65-35_D0.9_4.tif,0.9,1,,,,,,,,,0,96,96,39,,,,,,,,,,,,,,,None,None,None,81.382,,,,,,,,,,,,,,,,,,,2019_Mar_11_1633,60.22238924629056,Cloud_Experiment_FR_REAL,001,22,
images/fcloud80-20_D1.5_5.tif,1.5,2,,,,,,,,,0,97,97,94,,,,,,,,,,,,,,,1,space,3,0.418,6.7753642,,,,,,,,,,,,,,,,,,2019_Mar_11_1633,60.22238924629056,Cloud_Experiment_FR_REAL,001,22,
images/fcloud_D1.2_6.tif,1.2,0,,,,,,,,,0,98,98,14,,,,,,,,,,,,,,,None,None,None,9.394,,,,,,,,,,,,,,,,,,,2019_Mar_11_1633,60.22238924629056,Cloud_Experiment_FR_REAL,001,22,
images/fcloud80-20_D1.5_6.tif,1.5,2,,,,,,,,,0,99,99,95,,,,,,,,,,,,,,,None,None,None,18.103,,,,,,,,,,,,,,,,,,,2019_Mar_11_1633,60.22238924629056,Cloud_Experiment_FR_REAL,001,22,
images/fcloud_D1.2_4.tif,1.2,0,,,,,,,,,0,100,100,12,,,,,,,,,,,,,,,None,None,None,27.06,,,,,,,,,,,,,,,,,,,2019_Mar_11_1633,60.22238924629056,Cloud_Experiment_FR_REAL,001,22,
images/fcloud65-35_D1.3_4.tif,1.3,1,,,,,,,,,0,101,101,51,,,,,,,,,,,,,,,1,space,4,1.818,6.3448164,,,,,,,,,,,,,,,,,,2019_Mar_11_1633,60.22238924629056,Cloud_Experiment_FR_REAL,001,22,
images/fcloud_D1.9_6.tif,1.9,0,,,,,,,,,0,102,102,35,,,,,,,,,,,,,,,None,None,None,11.074,,,,,,,,,,,,,,,,,,,2019_Mar_11_1633,60.22238924629056,Cloud_Experiment_FR_REAL,001,22,
images/fcloud80-20_D1.4_6.tif,1.4,2,,,,,,,,,0,103,103,92,,,,,,,,,,,,,,,None,None,None,20.433,,,,,,,,,,,,,,,,,,,2019_Mar_11_1633,60.22238924629056,Cloud_Experiment_FR_REAL,001,22,
images/fcloud80-20_D1.2_6.tif,1.2,2,,,,,,,,,0,104,104,86,,,,,,,,,,,,,,,None,None,None,29.726,,,,,,,,,,,,,,,,,,,2019_Mar_11_1633,60.22238924629056,Cloud_Experiment_FR_REAL,001,22,
images/fcloud65-35_D1.7_6.tif,1.7,1,,,,,,,,,0,105,105,65,,,,,,,,,,,,,,,None,None,None,38.934,,,,,,,,,,,,,,,,,,,2019_Mar_11_1633,60.22238924629056,Cloud_Experiment_FR_REAL,001,22,
images/fcloud_D1.5_6.tif,1.5,0,,,,,,,,,0,106,106,23,,,,,,,,,,,,,,,None,None,None,47.375,,,,,,,,,,,,,,,,,,,2019_Mar_11_1633,60.22238924629056,Cloud_Experiment_FR_REAL,001,22,
images/fcloud80-20_D1.1_4.tif,1.1,2,,,,,,,,,0,107,107,81,,,,,,,,,,,,,,,None,None,None,55.736,,,,,,,,,,,,,,,,,,,2019_Mar_11_1633,60.22238924629056,Cloud_Experiment_FR_REAL,001,22,
,,,,,,,,,,,,,,,,,,,,,,,,,,,,,,,,,,,,,,,,,,,,,,space,2.16675019998,,,,2019_Mar_11_1633,60.22238924629056,Cloud_Experiment_FR_REAL,001,22,
,,,,,,,,,,,,,,,,,,,,,,,,,5,5.738,,,,,,,,,,,,,,,,,,,,,,,,,2019_Mar_11_1633,60.22238924629056,Cloud_Experiment_FR_REAL,001,22,
,,,,,,,,,,,,,,,,,,,,,,,,,,,,,,,,,,3,,,,,,,,,,,,,,,,,2019_Mar_11_1633,60.22238924629056,Cloud_Experiment_FR_REAL,001,22,
,,,,,,,,,,,,,,,,,,,,,,,,,,,,,,,,,,,4,,,,,,,,,,,,,,,,2019_Mar_11_1633,60.22238924629056,Cloud_Experiment_FR_REAL,001,22,
,,,,,,,,,,,,,,,,,,,,,,,,,,,,,,,,,,,,4,,,,,,,,,,,,,,,2019_Mar_11_1633,60.22238924629056,Cloud_Experiment_FR_REAL,001,22,
,,,,,,,,,,,,,,,,,,,,,,,,,,,,,,,,,,,,,4,,,,,,,,,,,,,,2019_Mar_11_1633,60.22238924629056,Cloud_Experiment_FR_REAL,001,22,
,,,,,,,,,,,,,,,,,,,,,,,,,,,,,,,,,,,,,,4,,,,,,,,,,,,,2019_Mar_11_1633,60.22238924629056,Cloud_Experiment_FR_REAL,001,22,
,,,,,,,,,,,,,,,,,,,,,,,,,,,,,,,,,,,,,,,5,,,,,,,,,,,,2019_Mar_11_1633,60.22238924629056,Cloud_Experiment_FR_REAL,001,22,
,,,,,,,,,,,,,,,,,,,,,,,,,,,,,,,,,,,,,,,,6,,,,,,,,,,,2019_Mar_11_1633,60.22238924629056,Cloud_Experiment_FR_REAL,001,22,
,,,,,,,,,,,,,,,,,,,,,,,,,,,,,,,,,,,,,,,,,7,,,,,,,,,,2019_Mar_11_1633,60.22238924629056,Cloud_Experiment_FR_REAL,001,22,
,,,,,,,,,,,,,,,,,,,,,,,,,,,,,,,,,,,,,,,,,,7,,,,,,,,,2019_Mar_11_1633,60.22238924629056,Cloud_Experiment_FR_REAL,001,22,
,,,,,,,,,,,,,,,,,,,,,,,,,,,,,,,,,,,,,,,,,,,2,,,,,,,,2019_Mar_11_1633,60.22238924629056,Cloud_Experiment_FR_REAL,001,22,
,,,,,,,,,,,,,,,,,,,,,,,,,,,,,,,,,,,,,,,,,,,,,,,,space,140.0800157,,2019_Mar_11_1633,60.22238924629056,Cloud_Experiment_FR_REAL,001,22,
images/fcloud65-35_D0.9_9.tif,0.9,1,,,,,,,,,,,,,0,0,0,54,,,,,,,,,,,None,None,None,249.234,,,,,,,,,,,,,,,,,,,2019_Mar_11_1633,60.22238924629056,Cloud_Experiment_FR_REAL,001,22,
images/fcloud_D1.7_7.tif,1.7,0,,,,,,,,,,,,,0,1,1,36,,,,,,,,,,,3,None,2,0.686,,,,,,,,,,,,,,,,,,,2019_Mar_11_1633,60.22238924629056,Cloud_Experiment_FR_REAL,001,22,
images/fcloud65-35_D1.3_8.tif,1.3,1,,,,,,,,,,,,,0,2,2,69,,,,,,,,,,,None,None,None,9.677,,,,,,,,,,,,,,,,,,,2019_Mar_11_1633,60.22238924629056,Cloud_Experiment_FR_REAL,001,22,
images/fcloud65-35_D1.6_9.tif,1.6,1,,,,,,,,,,,,,0,3,3,82,,,,,,,,,,,5,space,2,1.735,3.51425519999,,,,,,,,,,,,,,,,,,2019_Mar_11_1633,60.22238924629056,Cloud_Experiment_FR_REAL,001,22,
images/fcloud_D1.1_10.tif,1.1,0,,,,,,,,,,,,,0,4,4,15,,,,,,,,,,,None,None,None,10.874,,,,,,,,,,,,,,,,,,,2019_Mar_11_1633,60.22238924629056,Cloud_Experiment_FR_REAL,001,22,
images/fcloud_D1.5_7.tif,1.5,0,,,,,,,,,,,,,0,5,5,28,,,,,,,,,,,None,None,None,19.268,,,,,,,,,,,,,,,,,,,2019_Mar_11_1633,60.22238924629056,Cloud_Experiment_FR_REAL,001,22,
images/fcloud80-20_D1.9_8.tif,1.9,2,,,,,,,,,,,,,0,6,6,141,,,,,,,,,,,None,None,None,27.711,,,,,,,,,,,,,,,,,,,2019_Mar_11_1633,60.22238924629056,Cloud_Experiment_FR_REAL,001,22,
images/fcloud_D1.4_10.tif,1.4,0,,,,,,,,,,,,,0,7,7,27,,,,,,,,,,,1,space,1,0.618,7.05505550001,,,,,,,,,,,,,,,,,,2019_Mar_11_1633,60.22238924629056,Cloud_Experiment_FR_REAL,001,22,
images/fcloud65-35_D1_8.tif,1.0,1,,,,,,,,,,,,,0,8,8,57,,,,,,,,,,,1,space,5,0.917,3.61562170001,,,,,,,,,,,,,,,,,,2019_Mar_11_1633,60.22238924629056,Cloud_Experiment_FR_REAL,001,22,
images/fcloud80-20_D0.8_9.tif,0.8,2,,,,,,,,,,,,,0,9,9,98,,,,,,,,,,,1,space,2,1.153,3.5591555,,,,,,,,,,,,,,,,,,2019_Mar_11_1633,60.22238924629056,Cloud_Experiment_FR_REAL,001,22,
images/fcloud80-20_D1.2_10.tif,1.2,2,,,,,,,,,,,,,0,10,10,115,,,,,,,,,,,None,None,None,11.01,,,,,,,,,,,,,,,,,,,2019_Mar_11_1633,60.22238924629056,Cloud_Experiment_FR_REAL,001,22,
images/fcloud80-20_D1_10.tif,1.0,2,,,,,,,,,,,,,0,11,11,107,,,,,,,,,,,1,space,2,0.902,1.18318779999,,,,,,,,,,,,,,,,,,2019_Mar_11_1633,60.22238924629056,Cloud_Experiment_FR_REAL,001,22,
images/fcloud_D1.9_9.tif,1.9,0,,,,,,,,,,,,,0,12,12,46,,,,,,,,,,,2,space,3,0.686,1.73439250002,,,,,,,,,,,,,,,,,,2019_Mar_11_1633,60.22238924629056,Cloud_Experiment_FR_REAL,001,22,
images/fcloud_D1.9_8.tif,1.9,0,,,,,,,,,,,,,0,13,13,45,,,,,,,,,,,None,None,None,10.86,,,,,,,,,,,,,,,,,,,2019_Mar_11_1633,60.22238924629056,Cloud_Experiment_FR_REAL,001,22,
images/fcloud_D0.9_10.tif,0.9,0,,,,,,,,,,,,,0,14,14,7,,,,,,,,,,,None,None,None,19.267,,,,,,,,,,,,,,,,,,,2019_Mar_11_1633,60.22238924629056,Cloud_Experiment_FR_REAL,001,22,
images/fcloud80-20_D1.6_10.tif,1.6,2,,,,,,,,,,,,,0,15,15,131,,,,,,,,,,,None,None,None,27.894,,,,,,,,,,,,,,,,,,,2019_Mar_11_1633,60.22238924629056,Cloud_Experiment_FR_REAL,001,22,
images/fcloud80-20_D1.9_7.tif,1.9,2,,,,,,,,,,,,,0,16,16,140,,,,,,,,,,,None,None,None,36.369,,,,,,,,,,,,,,,,,,,2019_Mar_11_1633,60.22238924629056,Cloud_Experiment_FR_REAL,001,22,
images/fcloud_D0.8_9.tif,0.8,0,,,,,,,,,,,,,0,17,17,2,,,,,,,,,,,None,None,None,44.778,,,,,,,,,,,,,,,,,,,2019_Mar_11_1633,60.22238924629056,Cloud_Experiment_FR_REAL,001,22,
images/fcloud_D1.6_8.tif,1.6,0,,,,,,,,,,,,,0,18,18,33,,,,,,,,,,,None,None,None,53.274,,,,,,,,,,,,,,,,,,,2019_Mar_11_1633,60.22238924629056,Cloud_Experiment_FR_REAL,001,22,
images/fcloud80-20_D1.5_7.tif,1.5,2,,,,,,,,,,,,,0,19,19,124,,,,,,,,,,,None,None,None,62.03,,,,,,,,,,,,,,,,,,,2019_Mar_11_1633,60.22238924629056,Cloud_Experiment_FR_REAL,001,22,
images/fcloud65-35_D1_10.tif,1.0,1,,,,,,,,,,,,,0,20,20,59,,,,,,,,,,,None,None,None,70.49,,,,,,,,,,,,,,,,,,,2019_Mar_11_1633,60.22238924629056,Cloud_Experiment_FR_REAL,001,22,
images/fcloud80-20_D1.4_7.tif,1.4,2,,,,,,,,,,,,,0,21,21,120,,,,,,,,,,,None,None,None,79.067,,,,,,,,,,,,,,,,,,,2019_Mar_11_1633,60.22238924629056,Cloud_Experiment_FR_REAL,001,22,
images/fcloud_D1.4_8.tif,1.4,0,,,,,,,,,,,,,0,22,22,25,,,,,,,,,,,None,None,None,88.241,,,,,,,,,,,,,,,,,,,2019_Mar_11_1633,60.22238924629056,Cloud_Experiment_FR_REAL,001,22,
images/fcloud_D1.7_8.tif,1.7,0,,,,,,,,,,,,,0,23,23,37,,,,,,,,,,,None,None,None,97.232,,,,,,,,,,,,,,,,,,,2019_Mar_11_1633,60.22238924629056,Cloud_Experiment_FR_REAL,001,22,
images/fcloud80-20_D1.7_10.tif,1.7,2,,,,,,,,,,,,,0,24,24,135,,,,,,,,,,,None,None,None,105.66,,,,,,,,,,,,,,,,,,,2019_Mar_11_1633,60.22238924629056,Cloud_Experiment_FR_REAL,001,22,
images/fcloud_D1.1_9.tif,1.1,0,,,,,,,,,,,,,0,25,25,14,,,,,,,,,,,2,space,2,0.951,4.06198609999,,,,,,,,,,,,,,,,,,2019_Mar_11_1633,60.22238924629056,Cloud_Experiment_FR_REAL,001,22,
images/fcloud65-35_D1.6_8.tif,1.6,1,,,,,,,,,,,,,0,26,26,81,,,,,,,,,,,None,None,None,10.574,,,,,,,,,,,,,,,,,,,2019_Mar_11_1633,60.22238924629056,Cloud_Experiment_FR_REAL,001,22,
images/fcloud_D1_8.tif,1.0,0,,,,,,,,,,,,,0,27,27,9,,,,,,,,,,,None,None,None,19.317,,,,,,,,,,,,,,,,,,,2019_Mar_11_1633,60.22238924629056,Cloud_Experiment_FR_REAL,001,22,
images/fcloud_D1.2_9.tif,1.2,0,,,,,,,,,,,,,0,28,28,18,,,,,,,,,,,None,None,None,27.777,,,,,,,,,,,,,,,,,,,2019_Mar_11_1633,60.22238924629056,Cloud_Experiment_FR_REAL,001,22,
images/fcloud80-20_D1.9_9.tif,1.9,2,,,,,,,,,,,,,0,29,29,142,,,,,,,,,,,1,space,2,3.566,5.57081069998,,,,,,,,,,,,,,,,,,2019_Mar_11_1633,60.22238924629056,Cloud_Experiment_FR_REAL,001,22,
images/fcloud65-35_D1.9_10.tif,1.9,1,,,,,,,,,,,,,0,30,30,95,,,,,,,,,,,1,None,2,3.883,,,,,,,,,,,,,,,,,,,2019_Mar_11_1633,60.22238924629056,Cloud_Experiment_FR_REAL,001,22,
images/fcloud_D1.4_9.tif,1.4,0,,,,,,,,,,,,,0,31,31,26,,,,,,,,,,,1,None,1,0.535,,,,,,,,,,,,,,,,,,,2019_Mar_11_1633,60.22238924629056,Cloud_Experiment_FR_REAL,001,22,
images/fcloud_D1.1_8.tif,1.1,0,,,,,,,,,,,,,0,32,32,13,,,,,,,,,,,None,None,None,9.694,,,,,,,,,,,,,,,,,,,2019_Mar_11_1633,60.22238924629056,Cloud_Experiment_FR_REAL,001,22,
images/fcloud80-20_D1.1_10.tif,1.1,2,,,,,,,,,,,,,0,33,33,111,,,,,,,,,,,None,None,None,18.003,,,,,,,,,,,,,,,,,,,2019_Mar_11_1633,60.22238924629056,Cloud_Experiment_FR_REAL,001,22,
images/fcloud80-20_D1.1_8.tif,1.1,2,,,,,,,,,,,,,0,34,34,109,,,,,,,,,,,None,None,None,26.429,,,,,,,,,,,,,,,,,,,2019_Mar_11_1633,60.22238924629056,Cloud_Experiment_FR_REAL,001,22,
images/fcloud65-35_D1.2_10.tif,1.2,1,,,,,,,,,,,,,0,35,35,67,,,,,,,,,,,None,None,None,34.838,,,,,,,,,,,,,,,,,,,2019_Mar_11_1633,60.22238924629056,Cloud_Experiment_FR_REAL,001,22,
images/fcloud65-35_D0.9_7.tif,0.9,1,,,,,,,,,,,,,0,36,36,52,,,,,,,,,,,None,None,None,43.231,,,,,,,,,,,,,,,,,,,2019_Mar_11_1633,60.22238924629056,Cloud_Experiment_FR_REAL,001,22,
images/fcloud80-20_D0.8_10.tif,0.8,2,,,,,,,,,,,,,0,37,37,99,,,,,,,,,,,None,None,None,51.624,,,,,,,,,,,,,,,,,,,2019_Mar_11_1633,60.22238924629056,Cloud_Experiment_FR_REAL,001,22,
images/fcloud_D0.9_9.tif,0.9,0,,,,,,,,,,,,,0,38,38,6,,,,,,,,,,,None,None,None,59.833,,,,,,,,,,,,,,,,,,,2019_Mar_11_1633,60.22238924629056,Cloud_Experiment_FR_REAL,001,22,
images/fcloud80-20_D1_8.tif,1.0,2,,,,,,,,,,,,,0,39,39,105,,,,,,,,,,,None,None,None,68.225,,,,,,,,,,,,,,,,,,,2019_Mar_11_1633,60.22238924629056,Cloud_Experiment_FR_REAL,001,22,
images/fcloud65-35_D1.7_8.tif,1.7,1,,,,,,,,,,,,,0,40,40,85,,,,,,,,,,,None,None,None,76.651,,,,,,,,,,,,,,,,,,,2019_Mar_11_1633,60.22238924629056,Cloud_Experiment_FR_REAL,001,22,
images/fcloud80-20_D1.6_9.tif,1.6,2,,,,,,,,,,,,,0,41,41,130,,,,,,,,,,,None,None,None,85.727,,,,,,,,,,,,,,,,,,,2019_Mar_11_1633,60.22238924629056,Cloud_Experiment_FR_REAL,001,22,
images/fcloud80-20_D1.8_9.tif,1.8,2,,,,,,,,,,,,,0,42,42,138,,,,,,,,,,,None,None,None,95.319,,,,,,,,,,,,,,,,,,,2019_Mar_11_1633,60.22238924629056,Cloud_Experiment_FR_REAL,001,22,
images/fcloud_D0.9_7.tif,0.9,0,,,,,,,,,,,,,0,43,43,4,,,,,,,,,,,None,None,None,105.51,,,,,,,,,,,,,,,,,,,2019_Mar_11_1633,60.22238924629056,Cloud_Experiment_FR_REAL,001,22,
images/fcloud_D0.8_10.tif,0.8,0,,,,,,,,,,,,,0,44,44,3,,,,,,,,,,,None,None,None,115.067,,,,,,,,,,,,,,,,,,,2019_Mar_11_1633,60.22238924629056,Cloud_Experiment_FR_REAL,001,22,
images/fcloud_D1.7_9.tif,1.7,0,,,,,,,,,,,,,0,45,45,38,,,,,,,,,,,None,None,None,124.226,,,,,,,,,,,,,,,,,,,2019_Mar_11_1633,60.22238924629056,Cloud_Experiment_FR_REAL,001,22,
images/fcloud65-35_D1.4_8.tif,1.4,1,,,,,,,,,,,,,0,46,46,73,,,,,,,,,,,None,None,None,133.935,,,,,,,,,,,,,,,,,,,2019_Mar_11_1633,60.22238924629056,Cloud_Experiment_FR_REAL,001,22,
images/fcloud80-20_D1.9_10.tif,1.9,2,,,,,,,,,,,,,0,47,47,143,,,,,,,,,,,None,None,None,142.859,,,,,,,,,,,,,,,,,,,2019_Mar_11_1633,60.22238924629056,Cloud_Experiment_FR_REAL,001,22,
images/fcloud_D1.6_10.tif,1.6,0,,,,,,,,,,,,,0,48,48,35,,,,,,,,,,,None,None,None,151.354,,,,,,,,,,,,,,,,,,,2019_Mar_11_1633,60.22238924629056,Cloud_Experiment_FR_REAL,001,22,
images/fcloud_D1.9_10.tif,1.9,0,,,,,,,,,,,,,0,49,49,47,,,,,,,,,,,None,None,None,159.877,,,,,,,,,,,,,,,,,,,2019_Mar_11_1633,60.22238924629056,Cloud_Experiment_FR_REAL,001,22,
images/fcloud80-20_D1.6_7.tif,1.6,2,,,,,,,,,,,,,0,50,50,128,,,,,,,,,,,None,None,None,168.256,,,,,,,,,,,,,,,,,,,2019_Mar_11_1633,60.22238924629056,Cloud_Experiment_FR_REAL,001,22,
images/fcloud65-35_D1.7_7.tif,1.7,1,,,,,,,,,,,,,0,51,51,84,,,,,,,,,,,1,space,4,2.567,6.5499333,,,,,,,,,,,,,,,,,,2019_Mar_11_1633,60.22238924629056,Cloud_Experiment_FR_REAL,001,22,
images/fcloud80-20_D1.7_9.tif,1.7,2,,,,,,,,,,,,,0,52,52,134,,,,,,,,,,,None,None,None,11.574,,,,,,,,,,,,,,,,,,,2019_Mar_11_1633,60.22238924629056,Cloud_Experiment_FR_REAL,001,22,
images/fcloud80-20_D1.3_8.tif,1.3,2,,,,,,,,,,,,,0,53,53,117,,,,,,,,,,,None,None,None,20.317,,,,,,,,,,,,,,,,,,,2019_Mar_11_1633,60.22238924629056,Cloud_Experiment_FR_REAL,001,22,
images/fcloud65-35_D1.1_10.tif,1.1,1,,,,,,,,,,,,,0,54,54,63,,,,,,,,,,,None,None,None,28.794,,,,,,,,,,,,,,,,,,,2019_Mar_11_1633,60.22238924629056,Cloud_Experiment_FR_REAL,001,22,
images/fcloud_D1.6_9.tif,1.6,0,,,,,,,,,,,,,0,55,55,34,,,,,,,,,,,None,None,None,37.252,,,,,,,,,,,,,,,,,,,2019_Mar_11_1633,60.22238924629056,Cloud_Experiment_FR_REAL,001,22,
images/fcloud80-20_D1.8_8.tif,1.8,2,,,,,,,,,,,,,0,56,56,137,,,,,,,,,,,None,None,None,45.747,,,,,,,,,,,,,,,,,,,2019_Mar_11_1633,60.22238924629056,Cloud_Experiment_FR_REAL,001,22,
images/fcloud65-35_D1.6_7.tif,1.6,1,,,,,,,,,,,,,0,57,57,80,,,,,,,,,,,2,space,4,2.899,7.42572619999,,,,,,,,,,,,,,,,,,2019_Mar_11_1633,60.22238924629056,Cloud_Experiment_FR_REAL,001,22,
images/fcloud80-20_D1.3_10.tif,1.3,2,,,,,,,,,,,,,0,58,58,119,,,,,,,,,,,2,None,1,0.702,,,,,,,,,,,,,,,,,,,2019_Mar_11_1633,60.22238924629056,Cloud_Experiment_FR_REAL,001,22,
images/fcloud80-20_D1.1_7.tif,1.1,2,,,,,,,,,,,,,0,59,59,108,,,,,,,,,,,None,None,None,10.377,,,,,,,,,,,,,,,,,,,2019_Mar_11_1633,60.22238924629056,Cloud_Experiment_FR_REAL,001,22,
images/fcloud65-35_D1.9_7.tif,1.9,1,,,,,,,,,,,,,0,60,60,92,,,,,,,,,,,None,None,None,19.767,,,,,,,,,,,,,,,,,,,2019_Mar_11_1633,60.22238924629056,Cloud_Experiment_FR_REAL,001,22,
images/fcloud65-35_D1.5_8.tif,1.5,1,,,,,,,,,,,,,0,61,61,77,,,,,,,,,,,3,space,3,1.584,5.5194705,,,,,,,,,,,,,,,,,,2019_Mar_11_1633,60.22238924629056,Cloud_Experiment_FR_REAL,001,22,
images/fcloud_D1.9_7.tif,1.9,0,,,,,,,,,,,,,0,62,62,44,,,,,,,,,,,None,None,None,11.041,,,,,,,,,,,,,,,,,,,2019_Mar_11_1633,60.22238924629056,Cloud_Experiment_FR_REAL,001,22,
images/fcloud65-35_D1_9.tif,1.0,1,,,,,,,,,,,,,0,63,63,58,,,,,,,,,,,None,None,None,30.109,,,,,,,,,,,,,,,,,,,2019_Mar_11_1633,60.22238924629056,Cloud_Experiment_FR_REAL,001,22,
images/fcloud_D1_7.tif,1.0,0,,,,,,,,,,,,,0,64,64,8,,,,,,,,,,,None,None,None,38.734,,,,,,,,,,,,,,,,,,,2019_Mar_11_1633,60.22238924629056,Cloud_Experiment_FR_REAL,001,22,
images/fcloud65-35_D1.5_7.tif,1.5,1,,,,,,,,,,,,,0,65,65,76,,,,,,,,,,,None,None,None,47.127,,,,,,,,,,,,,,,,,,,2019_Mar_11_1633,60.22238924629056,Cloud_Experiment_FR_REAL,001,22,
images/fcloud65-35_D1.9_9.tif,1.9,1,,,,,,,,,,,,,0,66,66,94,,,,,,,,,,,None,None,None,55.47,,,,,,,,,,,,,,,,,,,2019_Mar_11_1633,60.22238924629056,Cloud_Experiment_FR_REAL,001,22,
images/fcloud65-35_D1.8_10.tif,1.8,1,,,,,,,,,,,,,0,67,67,91,,,,,,,,,,,5,space,4,0.869,2.8679018,,,,,,,,,,,,,,,,,,2019_Mar_11_1633,60.22238924629056,Cloud_Experiment_FR_REAL,001,22,
images/fcloud65-35_D1_7.tif,1.0,1,,,,,,,,,,,,,0,68,68,56,,,,,,,,,,,None,None,None,10.176,,,,,,,,,,,,,,,,,,,2019_Mar_11_1633,60.22238924629056,Cloud_Experiment_FR_REAL,001,22,
images/fcloud65-35_D0.8_8.tif,0.8,1,,,,,,,,,,,,,0,69,69,49,,,,,,,,,,,None,None,None,18.901,,,,,,,,,,,,,,,,,,,2019_Mar_11_1633,60.22238924629056,Cloud_Experiment_FR_REAL,001,22,
images/fcloud_D1_10.tif,1.0,0,,,,,,,,,,,,,0,70,70,11,,,,,,,,,,,None,None,None,27.412,,,,,,,,,,,,,,,,,,,2019_Mar_11_1633,60.22238924629056,Cloud_Experiment_FR_REAL,001,22,
images/fcloud80-20_D1.2_8.tif,1.2,2,,,,,,,,,,,,,0,71,71,113,,,,,,,,,,,None,None,None,36.669,,,,,,,,,,,,,,,,,,,2019_Mar_11_1633,60.22238924629056,Cloud_Experiment_FR_REAL,001,22,
images/fcloud80-20_D0.8_7.tif,0.8,2,,,,,,,,,,,,,0,72,72,96,,,,,,,,,,,1,space,2,0.752,6.37201620001,,,,,,,,,,,,,,,,,,2019_Mar_11_1633,60.22238924629056,Cloud_Experiment_FR_REAL,001,22,
images/fcloud_D1.3_9.tif,1.3,0,,,,,,,,,,,,,0,73,73,22,,,,,,,,,,,None,None,None,9.908,,,,,,,,,,,,,,,,,,,2019_Mar_11_1633,60.22238924629056,Cloud_Experiment_FR_REAL,001,22,
images/fcloud65-35_D1.2_9.tif,1.2,1,,,,,,,,,,,,,0,74,74,66,,,,,,,,,,,None,None,None,19.102,,,,,,,,,,,,,,,,,,,2019_Mar_11_1633,60.22238924629056,Cloud_Experiment_FR_REAL,001,22,
images/fcloud80-20_D1.6_8.tif,1.6,2,,,,,,,,,,,,,0,75,75,129,,,,,,,,,,,None,None,None,27.778,,,,,,,,,,,,,,,,,,,2019_Mar_11_1633,60.22238924629056,Cloud_Experiment_FR_REAL,001,22,
images/fcloud_D0.9_8.tif,0.9,0,,,,,,,,,,,,,0,76,76,5,,,,,,,,,,,None,None,None,36.369,,,,,,,,,,,,,,,,,,,2019_Mar_11_1633,60.22238924629056,Cloud_Experiment_FR_REAL,001,22,
images/fcloud_D1.5_9.tif,1.5,0,,,,,,,,,,,,,0,77,77,30,,,,,,,,,,,1,space,4,1.369,1.51774800001,,,,,,,,,,,,,,,,,,2019_Mar_11_1633,60.22238924629056,Cloud_Experiment_FR_REAL,001,22,
images/fcloud_D1.8_8.tif,1.8,0,,,,,,,,,,,,,0,78,78,41,,,,,,,,,,,None,None,None,10.492,,,,,,,,,,,,,,,,,,,2019_Mar_11_1633,60.22238924629056,Cloud_Experiment_FR_REAL,001,22,
images/fcloud_D1.3_7.tif,1.3,0,,,,,,,,,,,,,0,79,79,20,,,,,,,,,,,None,None,None,18.969,,,,,,,,,,,,,,,,,,,2019_Mar_11_1633,60.22238924629056,Cloud_Experiment_FR_REAL,001,22,
images/fcloud65-35_D1.5_9.tif,1.5,1,,,,,,,,,,,,,0,80,80,78,,,,,,,,,,,None,None,None,27.676,,,,,,,,,,,,,,,,,,,2019_Mar_11_1633,60.22238924629056,Cloud_Experiment_FR_REAL,001,22,
images/fcloud_D1.4_7.tif,1.4,0,,,,,,,,,,,,,0,81,81,24,,,,,,,,,,,None,None,None,36.353,,,,,,,,,,,,,,,,,,,2019_Mar_11_1633,60.22238924629056,Cloud_Experiment_FR_REAL,001,22,
images/fcloud65-35_D1.7_10.tif,1.7,1,,,,,,,,,,,,,0,82,82,87,,,,,,,,,,,None,None,None,44.813,,,,,,,,,,,,,,,,,,,2019_Mar_11_1633,60.22238924629056,Cloud_Experiment_FR_REAL,001,22,
images/fcloud65-35_D0.9_8.tif,0.9,1,,,,,,,,,,,,,0,83,83,53,,,,,,,,,,,None,None,None,53.304,,,,,,,,,,,,,,,,,,,2019_Mar_11_1633,60.22238924629056,Cloud_Experiment_FR_REAL,001,22,
images/fcloud65-35_D1.4_7.tif,1.4,1,,,,,,,,,,,,,0,84,84,72,,,,,,,,,,,None,None,None,61.73,,,,,,,,,,,,,,,,,,,2019_Mar_11_1633,60.22238924629056,Cloud_Experiment_FR_REAL,001,22,
images/fcloud80-20_D1.8_10.tif,1.8,2,,,,,,,,,,,,,0,85,85,139,,,,,,,,,,,None,None,None,70.29,,,,,,,,,,,,,,,,,,,2019_Mar_11_1633,60.22238924629056,Cloud_Experiment_FR_REAL,001,22,
images/fcloud80-20_D1.3_9.tif,1.3,2,,,,,,,,,,,,,0,86,86,118,,,,,,,,,,,None,None,None,78.799,,,,,,,,,,,,,,,,,,,2019_Mar_11_1633,60.22238924629056,Cloud_Experiment_FR_REAL,001,22,
images/fcloud_D1_9.tif,1.0,0,,,,,,,,,,,,,0,87,87,10,,,,,,,,,,,None,None,None,87.442,,,,,,,,,,,,,,,,,,,2019_Mar_11_1633,60.22238924629056,Cloud_Experiment_FR_REAL,001,22,
images/fcloud_D1.6_7.tif,1.6,0,,,,,,,,,,,,,0,88,88,32,,,,,,,,,,,1,space,5,0.918,6.9801509,,,,,,,,,,,,,,,,,,2019_Mar_11_1633,60.22238924629056,Cloud_Experiment_FR_REAL,001,22,
images/fcloud65-35_D0.8_7.tif,0.8,1,,,,,,,,,,,,,0,89,89,48,,,,,,,,,,,None,None,None,10.126,,,,,,,,,,,,,,,,,,,2019_Mar_11_1633,60.22238924629056,Cloud_Experiment_FR_REAL,001,22,
images/fcloud65-35_D1.5_10.tif,1.5,1,,,,,,,,,,,,,0,90,90,79,,,,,,,,,,,None,None,None,19.45,,,,,,,,,,,,,,,,,,,2019_Mar_11_1633,60.22238924629056,Cloud_Experiment_FR_REAL,001,22,
images/fcloud_D1.8_9.tif,1.8,0,,,,,,,,,,,,,0,91,91,42,,,,,,,,,,,None,None,None,28.71,,,,,,,,,,,,,,,,,,,2019_Mar_11_1633,60.22238924629056,Cloud_Experiment_FR_REAL,001,22,
images/fcloud65-35_D0.8_9.tif,0.8,1,,,,,,,,,,,,,0,92,92,50,,,,,,,,,,,1,space,4,1.219,7.5883306,,,,,,,,,,,,,,,,,,2019_Mar_11_1633,60.22238924629056,Cloud_Experiment_FR_REAL,001,22,
images/fcloud80-20_D0.8_8.tif,0.8,2,,,,,,,,,,,,,0,93,93,97,,,,,,,,,,,None,None,None,9.726,,,,,,,,,,,,,,,,,,,2019_Mar_11_1633,60.22238924629056,Cloud_Experiment_FR_REAL,001,22,
images/fcloud65-35_D1.8_8.tif,1.8,1,,,,,,,,,,,,,0,94,94,89,,,,,,,,,,,1,space,3,2.535,6.39101249998,,,,,,,,,,,,,,,,,,2019_Mar_11_1633,60.22238924629056,Cloud_Experiment_FR_REAL,001,22,
images/fcloud65-35_D1.1_7.tif,1.1,1,,,,,,,,,,,,,0,95,95,60,,,,,,,,,,,None,None,None,11.041,,,,,,,,,,,,,,,,,,,2019_Mar_11_1633,60.22238924629056,Cloud_Experiment_FR_REAL,001,22,
images/fcloud65-35_D1.6_10.tif,1.6,1,,,,,,,,,,,,,0,96,96,83,,,,,,,,,,,1,space,5,1.101,4.75165010002,,,,,,,,,,,,,,,,,,2019_Mar_11_1633,60.22238924629056,Cloud_Experiment_FR_REAL,001,22,
images/fcloud_D0.8_8.tif,0.8,0,,,,,,,,,,,,,0,97,97,1,,,,,,,,,,,None,None,None,16.887,,,,,,,,,,,,,,,,,,,2019_Mar_11_1633,60.22238924629056,Cloud_Experiment_FR_REAL,001,22,
images/fcloud65-35_D1.4_9.tif,1.4,1,,,,,,,,,,,,,0,98,98,74,,,,,,,,,,,None,None,None,25.813,,,,,,,,,,,,,,,,,,,2019_Mar_11_1633,60.22238924629056,Cloud_Experiment_FR_REAL,001,22,
images/fcloud65-35_D1.3_7.tif,1.3,1,,,,,,,,,,,,,0,99,99,68,,,,,,,,,,,None,None,None,34.105,,,,,,,,,,,,,,,,,,,2019_Mar_11_1633,60.22238924629056,Cloud_Experiment_FR_REAL,001,22,
images/fcloud65-35_D1.7_9.tif,1.7,1,,,,,,,,,,,,,0,100,100,86,,,,,,,,,,,None,None,None,42.582,,,,,,,,,,,,,,,,,,,2019_Mar_11_1633,60.22238924629056,Cloud_Experiment_FR_REAL,001,22,
images/fcloud65-35_D1.1_9.tif,1.1,1,,,,,,,,,,,,,0,101,101,62,,,,,,,,,,,None,None,None,51.274,,,,,,,,,,,,,,,,,,,2019_Mar_11_1633,60.22238924629056,Cloud_Experiment_FR_REAL,001,22,
images/fcloud65-35_D1.2_7.tif,1.2,1,,,,,,,,,,,,,0,102,102,64,,,,,,,,,,,2,space,5,1.784,5.3553727,,,,,,,,,,,,,,,,,,2019_Mar_11_1633,60.22238924629056,Cloud_Experiment_FR_REAL,001,22,
images/fcloud_D1.8_10.tif,1.8,0,,,,,,,,,,,,,0,103,103,43,,,,,,,,,,,1,None,2,1.902,,,,,,,,,,,,,,,,,,,2019_Mar_11_1633,60.22238924629056,Cloud_Experiment_FR_REAL,001,22,
images/fcloud80-20_D1.2_9.tif,1.2,2,,,,,,,,,,,,,0,104,104,114,,,,,,,,,,,None,None,None,10.708,,,,,,,,,,,,,,,,,,,2019_Mar_11_1633,60.22238924629056,Cloud_Experiment_FR_REAL,001,22,
images/fcloud80-20_D1.8_7.tif,1.8,2,,,,,,,,,,,,,0,105,105,136,,,,,,,,,,,None,None,None,19.168,,,,,,,,,,,,,,,,,,,2019_Mar_11_1633,60.22238924629056,Cloud_Experiment_FR_REAL,001,22,
images/fcloud80-20_D0.9_8.tif,0.9,2,,,,,,,,,,,,,0,106,106,101,,,,,,,,,,,None,None,None,27.544,,,,,,,,,,,,,,,,,,,2019_Mar_11_1633,60.22238924629056,Cloud_Experiment_FR_REAL,001,22,
images/fcloud80-20_D1.5_10.tif,1.5,2,,,,,,,,,,,,,0,107,107,127,,,,,,,,,,,None,None,None,35.82,,,,,,,,,,,,,,,,,,,2019_Mar_11_1633,60.22238924629056,Cloud_Experiment_FR_REAL,001,22,
images/fcloud65-35_D1.3_9.tif,1.3,1,,,,,,,,,,,,,0,108,108,70,,,,,,,,,,,None,None,None,44.197,,,,,,,,,,,,,,,,,,,2019_Mar_11_1633,60.22238924629056,Cloud_Experiment_FR_REAL,001,22,
images/fcloud80-20_D1.5_8.tif,1.5,2,,,,,,,,,,,,,0,109,109,125,,,,,,,,,,,1,space,2,2.018,7.81571650002,,,,,,,,,,,,,,,,,,2019_Mar_11_1633,60.22238924629056,Cloud_Experiment_FR_REAL,001,22,
images/fcloud65-35_D1.8_9.tif,1.8,1,,,,,,,,,,,,,0,110,110,90,,,,,,,,,,,None,None,None,11.724,,,,,,,,,,,,,,,,,,,2019_Mar_11_1633,60.22238924629056,Cloud_Experiment_FR_REAL,001,22,
images/fcloud_D0.8_7.tif,0.8,0,,,,,,,,,,,,,0,111,111,0,,,,,,,,,,,None,None,None,21.032,,,,,,,,,,,,,,,,,,,2019_Mar_11_1633,60.22238924629056,Cloud_Experiment_FR_REAL,001,22,
images/fcloud_D1.5_10.tif,1.5,0,,,,,,,,,,,,,0,112,112,31,,,,,,,,,,,None,None,None,29.343,,,,,,,,,,,,,,,,,,,2019_Mar_11_1633,60.22238924629056,Cloud_Experiment_FR_REAL,001,22,
images/fcloud80-20_D1.2_7.tif,1.2,2,,,,,,,,,,,,,0,113,113,112,,,,,,,,,,,None,None,None,37.654,,,,,,,,,,,,,,,,,,,2019_Mar_11_1633,60.22238924629056,Cloud_Experiment_FR_REAL,001,22,
images/fcloud65-35_D0.8_10.tif,0.8,1,,,,,,,,,,,,,0,114,114,51,,,,,,,,,,,None,None,None,46.244,,,,,,,,,,,,,,,,,,,2019_Mar_11_1633,60.22238924629056,Cloud_Experiment_FR_REAL,001,22,
images/fcloud_D1.2_8.tif,1.2,0,,,,,,,,,,,,,0,115,115,17,,,,,,,,,,,3,space,1,1.119,5.69175300002,,,,,,,,,,,,,,,,,,2019_Mar_11_1633,60.22238924629056,Cloud_Experiment_FR_REAL,001,22,
images/fcloud65-35_D1.4_10.tif,1.4,1,,,,,,,,,,,,,0,116,116,75,,,,,,,,,,,None,None,None,10.791,,,,,,,,,,,,,,,,,,,2019_Mar_11_1633,60.22238924629056,Cloud_Experiment_FR_REAL,001,22,
images/fcloud_D1.5_8.tif,1.5,0,,,,,,,,,,,,,0,117,117,29,,,,,,,,,,,None,None,None,20.699,,,,,,,,,,,,,,,,,,,2019_Mar_11_1633,60.22238924629056,Cloud_Experiment_FR_REAL,001,22,
images/fcloud80-20_D0.9_9.tif,0.9,2,,,,,,,,,,,,,0,118,118,102,,,,,,,,,,,None,None,None,30.259,,,,,,,,,,,,,,,,,,,2019_Mar_11_1633,60.22238924629056,Cloud_Experiment_FR_REAL,001,22,
images/fcloud_D1.3_10.tif,1.3,0,,,,,,,,,,,,,0,119,119,23,,,,,,,,,,,1,space,5,0.768,7.11241510001,,,,,,,,,,,,,,,,,,2019_Mar_11_1633,60.22238924629056,Cloud_Experiment_FR_REAL,001,22,
images/fcloud65-35_D1.8_7.tif,1.8,1,,,,,,,,,,,,,0,120,120,88,,,,,,,,,,,None,None,None,10.276,,,,,,,,,,,,,,,,,,,2019_Mar_11_1633,60.22238924629056,Cloud_Experiment_FR_REAL,001,22,
images/fcloud65-35_D1.3_10.tif,1.3,1,,,,,,,,,,,,,0,121,121,71,,,,,,,,,,,None,None,None,19.669,,,,,,,,,,,,,,,,,,,2019_Mar_11_1633,60.22238924629056,Cloud_Experiment_FR_REAL,001,22,
images/fcloud80-20_D1.7_7.tif,1.7,2,,,,,,,,,,,,,0,122,122,132,,,,,,,,,,,None,None,None,29.908,,,,,,,,,,,,,,,,,,,2019_Mar_11_1633,60.22238924629056,Cloud_Experiment_FR_REAL,001,22,
images/fcloud_D1.2_7.tif,1.2,0,,,,,,,,,,,,,0,123,123,16,,,,,,,,,,,None,None,None,38.75,,,,,,,,,,,,,,,,,,,2019_Mar_11_1633,60.22238924629056,Cloud_Experiment_FR_REAL,001,22,
images/fcloud80-20_D1.4_10.tif,1.4,2,,,,,,,,,,,,,0,124,124,123,,,,,,,,,,,None,space,None,48.243,2.1321626,,,,,,,,,,,,,,,,,,2019_Mar_11_1633,60.22238924629056,Cloud_Experiment_FR_REAL,001,22,
images/fcloud80-20_D0.9_10.tif,0.9,2,,,,,,,,,,,,,0,125,125,103,,,,,,,,,,,None,None,None,60.05,,,,,,,,,,,,,,,,,,,2019_Mar_11_1633,60.22238924629056,Cloud_Experiment_FR_REAL,001,22,
images/fcloud80-20_D1_9.tif,1.0,2,,,,,,,,,,,,,0,126,126,106,,,,,,,,,,,1,space,4,0.968,4.31909749997,,,,,,,,,,,,,,,,,,2019_Mar_11_1633,60.22238924629056,Cloud_Experiment_FR_REAL,001,22,
images/fcloud_D1.7_10.tif,1.7,0,,,,,,,,,,,,,0,127,127,39,,,,,,,,,,,None,None,None,9.961,,,,,,,,,,,,,,,,,,,2019_Mar_11_1633,60.22238924629056,Cloud_Experiment_FR_REAL,001,22,
images/fcloud80-20_D1.3_7.tif,1.3,2,,,,,,,,,,,,,0,128,128,116,,,,,,,,,,,None,None,None,18.936,,,,,,,,,,,,,,,,,,,2019_Mar_11_1633,60.22238924629056,Cloud_Experiment_FR_REAL,001,22,
images/fcloud80-20_D0.9_7.tif,0.9,2,,,,,,,,,,,,,0,129,129,100,,,,,,,,,,,None,None,None,27.427,,,,,,,,,,,,,,,,,,,2019_Mar_11_1633,60.22238924629056,Cloud_Experiment_FR_REAL,001,22,
images/fcloud65-35_D1.1_8.tif,1.1,1,,,,,,,,,,,,,0,130,130,61,,,,,,,,,,,None,None,None,35.789,,,,,,,,,,,,,,,,,,,2019_Mar_11_1633,60.22238924629056,Cloud_Experiment_FR_REAL,001,22,
images/fcloud_D1.2_10.tif,1.2,0,,,,,,,,,,,,,0,131,131,19,,,,,,,,,,,None,None,None,44.13,,,,,,,,,,,,,,,,,,,2019_Mar_11_1633,60.22238924629056,Cloud_Experiment_FR_REAL,001,22,
images/fcloud80-20_D1.4_8.tif,1.4,2,,,,,,,,,,,,,0,132,132,121,,,,,,,,,,,None,None,None,52.707,,,,,,,,,,,,,,,,,,,2019_Mar_11_1633,60.22238924629056,Cloud_Experiment_FR_REAL,001,22,
images/fcloud80-20_D1.7_8.tif,1.7,2,,,,,,,,,,,,,0,133,133,133,,,,,,,,,,,None,None,None,61.116,,,,,,,,,,,,,,,,,,,2019_Mar_11_1633,60.22238924629056,Cloud_Experiment_FR_REAL,001,22,
images/fcloud65-35_D1.9_8.tif,1.9,1,,,,,,,,,,,,,0,134,134,93,,,,,,,,,,,None,None,None,69.642,,,,,,,,,,,,,,,,,,,2019_Mar_11_1633,60.22238924629056,Cloud_Experiment_FR_REAL,001,22,
images/fcloud_D1.3_8.tif,1.3,0,,,,,,,,,,,,,0,135,135,21,,,,,,,,,,,None,None,None,77.951,,,,,,,,,,,,,,,,,,,2019_Mar_11_1633,60.22238924629056,Cloud_Experiment_FR_REAL,001,22,
images/fcloud80-20_D1.5_9.tif,1.5,2,,,,,,,,,,,,,0,136,136,126,,,,,,,,,,,None,None,None,86.295,,,,,,,,,,,,,,,,,,,2019_Mar_11_1633,60.22238924629056,Cloud_Experiment_FR_REAL,001,22,
images/fcloud80-20_D1.4_9.tif,1.4,2,,,,,,,,,,,,,0,137,137,122,,,,,,,,,,,None,None,None,95.303,,,,,,,,,,,,,,,,,,,2019_Mar_11_1633,60.22238924629056,Cloud_Experiment_FR_REAL,001,22,
images/fcloud_D1.8_7.tif,1.8,0,,,,,,,,,,,,,0,138,138,40,,,,,,,,,,,None,None,None,103.729,,,,,,,,,,,,,,,,,,,2019_Mar_11_1633,60.22238924629056,Cloud_Experiment_FR_REAL,001,22,
images/fcloud80-20_D1.1_9.tif,1.1,2,,,,,,,,,,,,,0,139,139,110,,,,,,,,,,,None,None,None,112.103,,,,,,,,,,,,,,,,,,,2019_Mar_11_1633,60.22238924629056,Cloud_Experiment_FR_REAL,001,22,
images/fcloud65-35_D1.2_8.tif,1.2,1,,,,,,,,,,,,,0,140,140,65,,,,,,,,,,,None,None,None,120.581,,,,,,,,,,,,,,,,,,,2019_Mar_11_1633,60.22238924629056,Cloud_Experiment_FR_REAL,001,22,
images/fcloud_D1.1_7.tif,1.1,0,,,,,,,,,,,,,0,141,141,12,,,,,,,,,,,None,None,None,128.956,,,,,,,,,,,,,,,,,,,2019_Mar_11_1633,60.22238924629056,Cloud_Experiment_FR_REAL,001,22,
images/fcloud65-35_D0.9_10.tif,0.9,1,,,,,,,,,,,,,0,142,142,55,,,,,,,,,,,1,space,1,0.735,5.9177434,,,,,,,,,,,,,,,,,,2019_Mar_11_1633,60.22238924629056,Cloud_Experiment_FR_REAL,001,22,
images/fcloud80-20_D1_7.tif,1.0,2,,,,,,,,,,,,,0,143,143,104,,,,,,,,,,,None,None,None,11.789,,,,,,,,,,,,,,,,,,,2019_Mar_11_1633,60.22238924629056,Cloud_Experiment_FR_REAL,001,22,
,,,,,,,,,,,,,,,,,,,,,,,,,5,11.798,,,,,,,,,,,,,,,,,,,,,,,,,2019_Mar_11_1633,60.22238924629056,Cloud_Experiment_FR_REAL,001,22,
,,,,,,,,,,,,,,,,,,,,,,,,,,,,,,,,,,3,,,,,,,,,,,,,,,,,2019_Mar_11_1633,60.22238924629056,Cloud_Experiment_FR_REAL,001,22,
,,,,,,,,,,,,,,,,,,,,,,,,,,,,,,,,,,,4,,,,,,,,,,,,,,,,2019_Mar_11_1633,60.22238924629056,Cloud_Experiment_FR_REAL,001,22,
,,,,,,,,,,,,,,,,,,,,,,,,,,,,,,,,,,,,5,,,,,,,,,,,,,,,2019_Mar_11_1633,60.22238924629056,Cloud_Experiment_FR_REAL,001,22,
,,,,,,,,,,,,,,,,,,,,,,,,,,,,,,,,,,,,,4,,,,,,,,,,,,,,2019_Mar_11_1633,60.22238924629056,Cloud_Experiment_FR_REAL,001,22,
,,,,,,,,,,,,,,,,,,,,,,,,,,,,,,,,,,,,,,4,,,,,,,,,,,,,2019_Mar_11_1633,60.22238924629056,Cloud_Experiment_FR_REAL,001,22,
,,,,,,,,,,,,,,,,,,,,,,,,,,,,,,,,,,,,,,,6,,,,,,,,,,,,2019_Mar_11_1633,60.22238924629056,Cloud_Experiment_FR_REAL,001,22,
,,,,,,,,,,,,,,,,,,,,,,,,,,,,,,,,,,,,,,,,6,,,,,,,,,,,2019_Mar_11_1633,60.22238924629056,Cloud_Experiment_FR_REAL,001,22,
,,,,,,,,,,,,,,,,,,,,,,,,,,,,,,,,,,,,,,,,,7,,,,,,,,,,2019_Mar_11_1633,60.22238924629056,Cloud_Experiment_FR_REAL,001,22,
,,,,,,,,,,,,,,,,,,,,,,,,,,,,,,,,,,,,,,,,,,7,,,,,,,,,2019_Mar_11_1633,60.22238924629056,Cloud_Experiment_FR_REAL,001,22,
,,,,,,,,,,,,,,,,,,,,,,,,,,,,,,,,,,,,,,,,,,,2,,,,,,,,2019_Mar_11_1633,60.22238924629056,Cloud_Experiment_FR_REAL,001,22,
,,,,,,,,,,,,,,,,,,,,,,,,,,,,,,,,,,,,,,,,,,,,,,,,,,2,2019_Mar_11_1633,60.22238924629056,Cloud_Experiment_FR_REAL,001,22,
