ImageFile,FD,Contrast,trials_4.thisRepN,trials_4.thisTrialN,trials_4.thisN,trials_4.thisIndex,trials.thisRepN,trials.thisTrialN,trials.thisN,trials.thisIndex,trials_2.thisRepN,trials_2.thisTrialN,trials_2.thisN,trials_2.thisIndex,trials_3.thisRepN,trials_3.thisTrialN,trials_3.thisN,trials_3.thisIndex,end_instructions.keys,end_instructions.rt,key_resp_4.keys,key_resp_4.rt,key_resp_6.keys,key_resp_6.rt,Fatigue.response,Fatigue.rt,key_resp_5.keys,key_resp_5.rt,n_objets.response,reaction_time.keys,vividness.response,vividness.rt,reaction_time.rt,Flow01.response,Flow02.response,Flow03.response,Flow04.response,Flow05.response,Flow06.response,Flow07.response,Flow08.response,Flow09.response,Flow10.response,key_resp_2.keys,key_resp_2.rt,key_resp_8.keys,key_resp_8.rt,key_resp_3.keys,key_resp_3.rt,Redondance_question.response,date,frameRate,expName,session,participant,
,,,,,,,,,,,,,,,,,,,space,32.3563214,,,,,,,,,,,,,,,,,,,,,,,,,,,,,,,2019_Mar_13_1614,60.247496717011906,Cloud_Experiment_FR_REAL,001,23,
,,,,,,,,,,,,,,,,,,,,,space,156.5634447,,,,,,,,,,,,,,,,,,,,,,,,,,,,,2019_Mar_13_1614,60.247496717011906,Cloud_Experiment_FR_REAL,001,23,
,,,,,,,,,,,,,,,,,,,,,,,space,49.6592382,,,,,,,,,,,,,,,,,,,,,,,,,,,2019_Mar_13_1614,60.247496717011906,Cloud_Experiment_FR_REAL,001,23,
,,,,,,,,,,,,,,,,,,,,,,,,,6,39.562,,,,,,,,,,,,,,,,,,,,,,,,,2019_Mar_13_1614,60.247496717011906,Cloud_Experiment_FR_REAL,001,23,
,,,,,,,,,,,,,,,,,,,,,,,,,,,space,6.3327771,,,,,,,,,,,,,,,,,,,,,,,2019_Mar_13_1614,60.247496717011906,Cloud_Experiment_FR_REAL,001,23,
pratique/fcloud65-35_D1.9_29,1.9,1,0,0,0,7,,,,,,,,,,,,,,,,,,,,,,,None,None,None,300.939,,,,,,,,,,,,,,,,,,,2019_Mar_13_1614,60.247496717011906,Cloud_Experiment_FR_REAL,001,23,
pratique/fcloud_D1.4_30,1.4,0,0,1,1,1,,,,,,,,,,,,,,,,,,,,,,,1,space,2,28.312,5.6385075,,,,,,,,,,,,,,,,,,2019_Mar_13_1614,60.247496717011906,Cloud_Experiment_FR_REAL,001,23,
pratique/fcloud80-20_D1.8_30,1.8,2,0,2,2,4,,,,,,,,,,,,,,,,,,,,,,,None,None,None,39.1,,,,,,,,,,,,,,,,,,,2019_Mar_13_1614,60.247496717011906,Cloud_Experiment_FR_REAL,001,23,
pratique/fcloud65-35_D1.2_30,1.2,1,0,3,3,3,,,,,,,,,,,,,,,,,,,,,,,None,None,None,50.994,,,,,,,,,,,,,,,,,,,2019_Mar_13_1614,60.247496717011906,Cloud_Experiment_FR_REAL,001,23,
pratique/fcloud_D1.6_28,1.6,0,0,4,4,5,,,,,,,,,,,,,,,,,,,,,,,2,space,3,4.683,3.9585243,,,,,,,,,,,,,,,,,,2019_Mar_13_1614,60.247496717011906,Cloud_Experiment_FR_REAL,001,23,
pratique/fcloud_D0.8_30,0.8,0,0,5,5,0,,,,,,,,,,,,,,,,,,,,,,,3,space,3,2.3,1.94506529999,,,,,,,,,,,,,,,,,,2019_Mar_13_1614,60.247496717011906,Cloud_Experiment_FR_REAL,001,23,
pratique/fcloud80-20_D1_30,1.0,2,0,6,6,9,,,,,,,,,,,,,,,,,,,,,,,2,space,2,2.318,2.4376842,,,,,,,,,,,,,,,,,,2019_Mar_13_1614,60.247496717011906,Cloud_Experiment_FR_REAL,001,23,
pratique/fcloud65-35_D1.3_30,1.3,1,0,7,7,6,,,,,,,,,,,,,,,,,,,,,,,2,space,2,3.415,3.3466151,,,,,,,,,,,,,,,,,,2019_Mar_13_1614,60.247496717011906,Cloud_Experiment_FR_REAL,001,23,
pratique/fcloud65-35_D1.6_30,1.6,1,0,8,8,2,,,,,,,,,,,,,,,,,,,,,,,None,None,None,12.856,,,,,,,,,,,,,,,,,,,2019_Mar_13_1614,60.247496717011906,Cloud_Experiment_FR_REAL,001,23,
pratique/fcloud80-20_D1.5_30,1.5,2,0,9,9,8,,,,,,,,,,,,,,,,,,,,,,,1,space,3,3.519,7.582857,,,,,,,,,,,,,,,,,,2019_Mar_13_1614,60.247496717011906,Cloud_Experiment_FR_REAL,001,23,
,,,,,,,,,,,,,,,,,,,,,,,,,,,,,,,,,,3,,,,,,,,,,,,,,,,,2019_Mar_13_1614,60.247496717011906,Cloud_Experiment_FR_REAL,001,23,
,,,,,,,,,,,,,,,,,,,,,,,,,,,,,,,,,,,4,,,,,,,,,,,,,,,,2019_Mar_13_1614,60.247496717011906,Cloud_Experiment_FR_REAL,001,23,
,,,,,,,,,,,,,,,,,,,,,,,,,,,,,,,,,,,,4,,,,,,,,,,,,,,,2019_Mar_13_1614,60.247496717011906,Cloud_Experiment_FR_REAL,001,23,
,,,,,,,,,,,,,,,,,,,,,,,,,,,,,,,,,,,,,5,,,,,,,,,,,,,,2019_Mar_13_1614,60.247496717011906,Cloud_Experiment_FR_REAL,001,23,
,,,,,,,,,,,,,,,,,,,,,,,,,,,,,,,,,,,,,,5,,,,,,,,,,,,,2019_Mar_13_1614,60.247496717011906,Cloud_Experiment_FR_REAL,001,23,
,,,,,,,,,,,,,,,,,,,,,,,,,,,,,,,,,,,,,,,5,,,,,,,,,,,,2019_Mar_13_1614,60.247496717011906,Cloud_Experiment_FR_REAL,001,23,
,,,,,,,,,,,,,,,,,,,,,,,,,,,,,,,,,,,,,,,,5,,,,,,,,,,,2019_Mar_13_1614,60.247496717011906,Cloud_Experiment_FR_REAL,001,23,
,,,,,,,,,,,,,,,,,,,,,,,,,,,,,,,,,,,,,,,,,7,,,,,,,,,,2019_Mar_13_1614,60.247496717011906,Cloud_Experiment_FR_REAL,001,23,
,,,,,,,,,,,,,,,,,,,,,,,,,,,,,,,,,,,,,,,,,,4,,,,,,,,,2019_Mar_13_1614,60.247496717011906,Cloud_Experiment_FR_REAL,001,23,
,,,,,,,,,,,,,,,,,,,,,,,,,,,,,,,,,,,,,,,,,,,7,,,,,,,,2019_Mar_13_1614,60.247496717011906,Cloud_Experiment_FR_REAL,001,23,
,,,,,,,,,,,,,,,,,,,,,,,,,,,,,,,,,,,,,,,,,,,,space,3.3664491,,,,,,2019_Mar_13_1614,60.247496717011906,Cloud_Experiment_FR_REAL,001,23,
images/fcloud65-35_D1.8_1.tif,1.8,1,,,,,0,0,0,66,,,,,,,,,,,,,,,,,,,None,None,None,157.248,,,,,,,,,,,,,,,,,,,2019_Mar_13_1614,60.247496717011906,Cloud_Experiment_FR_REAL,001,23,
images/fcloud_D0.8_3.tif,0.8,0,,,,,0,1,1,2,,,,,,,,,,,,,,,,,,,1,space,1,3.883,5.2617071,,,,,,,,,,,,,,,,,,2019_Mar_13_1614,60.247496717011906,Cloud_Experiment_FR_REAL,001,23,
images/fcloud65-35_D1.6_2.tif,1.6,1,,,,,0,2,2,61,,,,,,,,,,,,,,,,,,,None,None,None,13.306,,,,,,,,,,,,,,,,,,,2019_Mar_13_1614,60.247496717011906,Cloud_Experiment_FR_REAL,001,23,
images/fcloud80-20_D1_1.tif,1.0,2,,,,,0,3,3,78,,,,,,,,,,,,,,,,,,,None,None,None,22.115,,,,,,,,,,,,,,,,,,,2019_Mar_13_1614,60.247496717011906,Cloud_Experiment_FR_REAL,001,23,
images/fcloud_D1.4_1.tif,1.4,0,,,,,0,4,4,18,,,,,,,,,,,,,,,,,,,1,None,2,1.95,,,,,,,,,,,,,,,,,,,2019_Mar_13_1614,60.247496717011906,Cloud_Experiment_FR_REAL,001,23,
images/fcloud_D1.9_2.tif,1.9,0,,,,,0,5,5,34,,,,,,,,,,,,,,,,,,,None,None,1,6.264,,,,,,,,,,,,,,,,,,,2019_Mar_13_1614,60.247496717011906,Cloud_Experiment_FR_REAL,001,23,
images/fcloud65-35_D0.9_2.tif,0.9,1,,,,,0,6,6,40,,,,,,,,,,,,,,,,,,,None,None,None,15.723,,,,,,,,,,,,,,,,,,,2019_Mar_13_1614,60.247496717011906,Cloud_Experiment_FR_REAL,001,23,
images/fcloud80-20_D1.8_3.tif,1.8,2,,,,,0,7,7,104,,,,,,,,,,,,,,,,,,,None,None,None,29.191,,,,,,,,,,,,,,,,,,,2019_Mar_13_1614,60.247496717011906,Cloud_Experiment_FR_REAL,001,23,
images/fcloud65-35_D1.2_1.tif,1.2,1,,,,,0,8,8,48,,,,,,,,,,,,,,,,,,,None,None,None,38.671,,,,,,,,,,,,,,,,,,,2019_Mar_13_1614,60.247496717011906,Cloud_Experiment_FR_REAL,001,23,
images/fcloud80-20_D1.2_2.tif,1.2,2,,,,,0,9,9,85,,,,,,,,,,,,,,,,,,,None,None,None,47.578,,,,,,,,,,,,,,,,,,,2019_Mar_13_1614,60.247496717011906,Cloud_Experiment_FR_REAL,001,23,
images/fcloud_D1.8_2.tif,1.8,0,,,,,0,10,10,31,,,,,,,,,,,,,,,,,,,1,None,1,0.902,,,,,,,,,,,,,,,,,,,2019_Mar_13_1614,60.247496717011906,Cloud_Experiment_FR_REAL,001,23,
images/fcloud80-20_D1.4_1.tif,1.4,2,,,,,0,11,11,90,,,,,,,,,,,,,,,,,,,None,None,None,10.693,,,,,,,,,,,,,,,,,,,2019_Mar_13_1614,60.247496717011906,Cloud_Experiment_FR_REAL,001,23,
images/fcloud80-20_D1.4_2.tif,1.4,2,,,,,0,12,12,91,,,,,,,,,,,,,,,,,,,1,None,1,0.703,,,,,,,,,,,,,,,,,,,2019_Mar_13_1614,60.247496717011906,Cloud_Experiment_FR_REAL,001,23,
images/fcloud_D1.4_2.tif,1.4,0,,,,,0,13,13,19,,,,,,,,,,,,,,,,,,,2,space,1,1.387,3.4946485,,,,,,,,,,,,,,,,,,2019_Mar_13_1614,60.247496717011906,Cloud_Experiment_FR_REAL,001,23,
images/fcloud_D1.7_1.tif,1.7,0,,,,,0,14,14,27,,,,,,,,,,,,,,,,,,,None,None,None,11.174,,,,,,,,,,,,,,,,,,,2019_Mar_13_1614,60.247496717011906,Cloud_Experiment_FR_REAL,001,23,
images/fcloud65-35_D1.9_2.tif,1.9,1,,,,,0,15,15,70,,,,,,,,,,,,,,,,,,,2,space,2,1.184,7.7207522,,,,,,,,,,,,,,,,,,2019_Mar_13_1614,60.247496717011906,Cloud_Experiment_FR_REAL,001,23,
images/fcloud80-20_D1_3.tif,1.0,2,,,,,0,16,16,80,,,,,,,,,,,,,,,,,,,1,space,1,0.485,6.6190943,,,,,,,,,,,,,,,,,,2019_Mar_13_1614,60.247496717011906,Cloud_Experiment_FR_REAL,001,23,
images/fcloud_D1.6_1.tif,1.6,0,,,,,0,17,17,24,,,,,,,,,,,,,,,,,,,None,None,None,10.873,,,,,,,,,,,,,,,,,,,2019_Mar_13_1614,60.247496717011906,Cloud_Experiment_FR_REAL,001,23,
images/fcloud80-20_D1.9_2.tif,1.9,2,,,,,0,18,18,106,,,,,,,,,,,,,,,,,,,None,None,None,20.083,,,,,,,,,,,,,,,,,,,2019_Mar_13_1614,60.247496717011906,Cloud_Experiment_FR_REAL,001,23,
images/fcloud65-35_D0.9_3.tif,0.9,1,,,,,0,19,19,41,,,,,,,,,,,,,,,,,,,None,None,None,30.356,,,,,,,,,,,,,,,,,,,2019_Mar_13_1614,60.247496717011906,Cloud_Experiment_FR_REAL,001,23,
images/fcloud65-35_D1.1_1.tif,1.1,1,,,,,0,20,20,45,,,,,,,,,,,,,,,,,,,None,None,None,39.482,,,,,,,,,,,,,,,,,,,2019_Mar_13_1614,60.247496717011906,Cloud_Experiment_FR_REAL,001,23,
images/fcloud_D1.9_1.tif,1.9,0,,,,,0,21,21,33,,,,,,,,,,,,,,,,,,,None,None,None,48.624,,,,,,,,,,,,,,,,,,,2019_Mar_13_1614,60.247496717011906,Cloud_Experiment_FR_REAL,001,23,
images/fcloud80-20_D1.6_1.tif,1.6,2,,,,,0,22,22,96,,,,,,,,,,,,,,,,,,,None,None,None,57.635,,,,,,,,,,,,,,,,,,,2019_Mar_13_1614,60.247496717011906,Cloud_Experiment_FR_REAL,001,23,
images/fcloud65-35_D1.5_1.tif,1.5,1,,,,,0,23,23,57,,,,,,,,,,,,,,,,,,,1,None,1,0.785,,,,,,,,,,,,,,,,,,,2019_Mar_13_1614,60.247496717011906,Cloud_Experiment_FR_REAL,001,23,
images/fcloud_D1.6_3.tif,1.6,0,,,,,0,24,24,26,,,,,,,,,,,,,,,,,,,1,None,1,0.52,,,,,,,,,,,,,,,,,,,2019_Mar_13_1614,60.247496717011906,Cloud_Experiment_FR_REAL,001,23,
images/fcloud80-20_D1.9_1.tif,1.9,2,,,,,0,25,25,105,,,,,,,,,,,,,,,,,,,1,None,3,2.085,,,,,,,,,,,,,,,,,,,2019_Mar_13_1614,60.247496717011906,Cloud_Experiment_FR_REAL,001,23,
images/fcloud80-20_D0.8_1.tif,0.8,2,,,,,0,26,26,72,,,,,,,,,,,,,,,,,,,1,None,1,0.486,,,,,,,,,,,,,,,,,,,2019_Mar_13_1614,60.247496717011906,Cloud_Experiment_FR_REAL,001,23,
images/fcloud80-20_D0.8_3.tif,0.8,2,,,,,0,27,27,74,,,,,,,,,,,,,,,,,,,1,None,1,0.468,,,,,,,,,,,,,,,,,,,2019_Mar_13_1614,60.247496717011906,Cloud_Experiment_FR_REAL,001,23,
images/fcloud65-35_D1.3_2.tif,1.3,1,,,,,0,28,28,52,,,,,,,,,,,,,,,,,,,1,None,1,0.518,,,,,,,,,,,,,,,,,,,2019_Mar_13_1614,60.247496717011906,Cloud_Experiment_FR_REAL,001,23,
images/fcloud80-20_D1.6_3.tif,1.6,2,,,,,0,29,29,98,,,,,,,,,,,,,,,,,,,1,None,2,1.184,,,,,,,,,,,,,,,,,,,2019_Mar_13_1614,60.247496717011906,Cloud_Experiment_FR_REAL,001,23,
images/fcloud65-35_D1_3.tif,1.0,1,,,,,0,30,30,44,,,,,,,,,,,,,,,,,,,1,None,1,0.519,,,,,,,,,,,,,,,,,,,2019_Mar_13_1614,60.247496717011906,Cloud_Experiment_FR_REAL,001,23,
images/fcloud80-20_D0.8_2.tif,0.8,2,,,,,0,31,31,73,,,,,,,,,,,,,,,,,,,1,None,2,1.767,,,,,,,,,,,,,,,,,,,2019_Mar_13_1614,60.247496717011906,Cloud_Experiment_FR_REAL,001,23,
images/fcloud_D1.7_3.tif,1.7,0,,,,,0,32,32,29,,,,,,,,,,,,,,,,,,,None,None,None,12.24,,,,,,,,,,,,,,,,,,,2019_Mar_13_1614,60.247496717011906,Cloud_Experiment_FR_REAL,001,23,
images/fcloud65-35_D1.2_3.tif,1.2,1,,,,,0,33,33,50,,,,,,,,,,,,,,,,,,,None,None,None,21.45,,,,,,,,,,,,,,,,,,,2019_Mar_13_1614,60.247496717011906,Cloud_Experiment_FR_REAL,001,23,
images/fcloud_D1.9_3.tif,1.9,0,,,,,0,34,34,35,,,,,,,,,,,,,,,,,,,2,None,1,0.868,,,,,,,,,,,,,,,,,,,2019_Mar_13_1614,60.247496717011906,Cloud_Experiment_FR_REAL,001,23,
images/fcloud65-35_D1.3_1.tif,1.3,1,,,,,0,35,35,51,,,,,,,,,,,,,,,,,,,None,None,None,18.734,,,,,,,,,,,,,,,,,,,2019_Mar_13_1614,60.247496717011906,Cloud_Experiment_FR_REAL,001,23,
images/fcloud65-35_D1.6_1.tif,1.6,1,,,,,0,36,36,60,,,,,,,,,,,,,,,,,,,2,None,1,0.535,,,,,,,,,,,,,,,,,,,2019_Mar_13_1614,60.247496717011906,Cloud_Experiment_FR_REAL,001,23,
images/fcloud80-20_D1.9_3.tif,1.9,2,,,,,0,37,37,107,,,,,,,,,,,,,,,,,,,2,None,1,1.385,,,,,,,,,,,,,,,,,,,2019_Mar_13_1614,60.247496717011906,Cloud_Experiment_FR_REAL,001,23,
images/fcloud65-35_D1.4_1.tif,1.4,1,,,,,0,38,38,54,,,,,,,,,,,,,,,,,,,1,None,1,1.286,,,,,,,,,,,,,,,,,,,2019_Mar_13_1614,60.247496717011906,Cloud_Experiment_FR_REAL,001,23,
images/fcloud80-20_D1.5_1.tif,1.5,2,,,,,0,39,39,93,,,,,,,,,,,,,,,,,,,1,None,1,0.586,,,,,,,,,,,,,,,,,,,2019_Mar_13_1614,60.247496717011906,Cloud_Experiment_FR_REAL,001,23,
images/fcloud80-20_D1.1_2.tif,1.1,2,,,,,0,40,40,82,,,,,,,,,,,,,,,,,,,None,None,None,10.143,,,,,,,,,,,,,,,,,,,2019_Mar_13_1614,60.247496717011906,Cloud_Experiment_FR_REAL,001,23,
images/fcloud65-35_D1.9_1.tif,1.9,1,,,,,0,41,41,69,,,,,,,,,,,,,,,,,,,1,None,1,0.836,,,,,,,,,,,,,,,,,,,2019_Mar_13_1614,60.247496717011906,Cloud_Experiment_FR_REAL,001,23,
images/fcloud_D1.3_1.tif,1.3,0,,,,,0,42,42,15,,,,,,,,,,,,,,,,,,,3,space,3,2.068,3.2111632,,,,,,,,,,,,,,,,,,2019_Mar_13_1614,60.247496717011906,Cloud_Experiment_FR_REAL,001,23,
images/fcloud_D1.6_2.tif,1.6,0,,,,,0,43,43,25,,,,,,,,,,,,,,,,,,,2,None,2,0.686,,,,,,,,,,,,,,,,,,,2019_Mar_13_1614,60.247496717011906,Cloud_Experiment_FR_REAL,001,23,
images/fcloud_D1.5_3.tif,1.5,0,,,,,0,44,44,23,,,,,,,,,,,,,,,,,,,2,None,1,1.102,,,,,,,,,,,,,,,,,,,2019_Mar_13_1614,60.247496717011906,Cloud_Experiment_FR_REAL,001,23,
images/fcloud_D1.2_1.tif,1.2,0,,,,,0,45,45,12,,,,,,,,,,,,,,,,,,,2,None,2,1.151,,,,,,,,,,,,,,,,,,,2019_Mar_13_1614,60.247496717011906,Cloud_Experiment_FR_REAL,001,23,
images/fcloud80-20_D1.7_2.tif,1.7,2,,,,,0,46,46,100,,,,,,,,,,,,,,,,,,,1,None,2,0.503,,,,,,,,,,,,,,,,,,,2019_Mar_13_1614,60.247496717011906,Cloud_Experiment_FR_REAL,001,23,
images/fcloud80-20_D1.2_1.tif,1.2,2,,,,,0,47,47,84,,,,,,,,,,,,,,,,,,,None,None,None,11.307,,,,,,,,,,,,,,,,,,,2019_Mar_13_1614,60.247496717011906,Cloud_Experiment_FR_REAL,001,23,
images/fcloud65-35_D1.7_3.tif,1.7,1,,,,,0,48,48,65,,,,,,,,,,,,,,,,,,,None,None,None,21.249,,,,,,,,,,,,,,,,,,,2019_Mar_13_1614,60.247496717011906,Cloud_Experiment_FR_REAL,001,23,
images/fcloud_D1.5_2.tif,1.5,0,,,,,0,49,49,22,,,,,,,,,,,,,,,,,,,2,None,2,1.784,,,,,,,,,,,,,,,,,,,2019_Mar_13_1614,60.247496717011906,Cloud_Experiment_FR_REAL,001,23,
images/fcloud_D1_1.tif,1.0,0,,,,,0,50,50,6,,,,,,,,,,,,,,,,,,,2,None,1,0.569,,,,,,,,,,,,,,,,,,,2019_Mar_13_1614,60.247496717011906,Cloud_Experiment_FR_REAL,001,23,
images/fcloud65-35_D1.7_2.tif,1.7,1,,,,,0,51,51,64,,,,,,,,,,,,,,,,,,,None,None,None,9.775,,,,,,,,,,,,,,,,,,,2019_Mar_13_1614,60.247496717011906,Cloud_Experiment_FR_REAL,001,23,
images/fcloud_D1.8_1.tif,1.8,0,,,,,0,52,52,30,,,,,,,,,,,,,,,,,,,None,None,None,19.9,,,,,,,,,,,,,,,,,,,2019_Mar_13_1614,60.247496717011906,Cloud_Experiment_FR_REAL,001,23,
images/fcloud65-35_D1.7_1.tif,1.7,1,,,,,0,53,53,63,,,,,,,,,,,,,,,,,,,None,None,None,31.523,,,,,,,,,,,,,,,,,,,2019_Mar_13_1614,60.247496717011906,Cloud_Experiment_FR_REAL,001,23,
images/fcloud80-20_D1.1_3.tif,1.1,2,,,,,0,54,54,83,,,,,,,,,,,,,,,,,,,1,None,5,3.234,,,,,,,,,,,,,,,,,,,2019_Mar_13_1614,60.247496717011906,Cloud_Experiment_FR_REAL,001,23,
images/fcloud65-35_D1.2_2.tif,1.2,1,,,,,0,55,55,49,,,,,,,,,,,,,,,,,,,None,None,None,12.391,,,,,,,,,,,,,,,,,,,2019_Mar_13_1614,60.247496717011906,Cloud_Experiment_FR_REAL,001,23,
images/fcloud65-35_D1.8_3.tif,1.8,1,,,,,0,56,56,68,,,,,,,,,,,,,,,,,,,1,None,3,1.036,,,,,,,,,,,,,,,,,,,2019_Mar_13_1614,60.247496717011906,Cloud_Experiment_FR_REAL,001,23,
images/fcloud65-35_D0.8_2.tif,0.8,1,,,,,0,57,57,37,,,,,,,,,,,,,,,,,,,1,None,1,0.534,,,,,,,,,,,,,,,,,,,2019_Mar_13_1614,60.247496717011906,Cloud_Experiment_FR_REAL,001,23,
images/fcloud_D1.2_3.tif,1.2,0,,,,,0,58,58,14,,,,,,,,,,,,,,,,,,,None,None,None,10.841,,,,,,,,,,,,,,,,,,,2019_Mar_13_1614,60.247496717011906,Cloud_Experiment_FR_REAL,001,23,
images/fcloud65-35_D1_1.tif,1.0,1,,,,,0,59,59,42,,,,,,,,,,,,,,,,,,,2,None,1,0.569,,,,,,,,,,,,,,,,,,,2019_Mar_13_1614,60.247496717011906,Cloud_Experiment_FR_REAL,001,23,
images/fcloud_D0.8_2.tif,0.8,0,,,,,0,60,60,1,,,,,,,,,,,,,,,,,,,3,None,1,0.486,,,,,,,,,,,,,,,,,,,2019_Mar_13_1614,60.247496717011906,Cloud_Experiment_FR_REAL,001,23,
images/fcloud80-20_D0.9_3.tif,0.9,2,,,,,0,61,61,77,,,,,,,,,,,,,,,,,,,2,None,1,0.652,,,,,,,,,,,,,,,,,,,2019_Mar_13_1614,60.247496717011906,Cloud_Experiment_FR_REAL,001,23,
images/fcloud80-20_D1.2_3.tif,1.2,2,,,,,0,62,62,86,,,,,,,,,,,,,,,,,,,3,None,1,0.453,,,,,,,,,,,,,,,,,,,2019_Mar_13_1614,60.247496717011906,Cloud_Experiment_FR_REAL,001,23,
images/fcloud65-35_D1.1_2.tif,1.1,1,,,,,0,63,63,46,,,,,,,,,,,,,,,,,,,3,None,2,1.8,,,,,,,,,,,,,,,,,,,2019_Mar_13_1614,60.247496717011906,Cloud_Experiment_FR_REAL,001,23,
images/fcloud65-35_D1.5_3.tif,1.5,1,,,,,0,64,64,59,,,,,,,,,,,,,,,,,,,3,None,1,0.818,,,,,,,,,,,,,,,,,,,2019_Mar_13_1614,60.247496717011906,Cloud_Experiment_FR_REAL,001,23,
images/fcloud80-20_D1.7_3.tif,1.7,2,,,,,0,65,65,101,,,,,,,,,,,,,,,,,,,3,None,2,0.667,,,,,,,,,,,,,,,,,,,2019_Mar_13_1614,60.247496717011906,Cloud_Experiment_FR_REAL,001,23,
images/fcloud65-35_D1.5_2.tif,1.5,1,,,,,0,66,66,58,,,,,,,,,,,,,,,,,,,2,None,1,0.452,,,,,,,,,,,,,,,,,,,2019_Mar_13_1614,60.247496717011906,Cloud_Experiment_FR_REAL,001,23,
images/fcloud_D1.4_3.tif,1.4,0,,,,,0,67,67,20,,,,,,,,,,,,,,,,,,,3,None,3,1.917,,,,,,,,,,,,,,,,,,,2019_Mar_13_1614,60.247496717011906,Cloud_Experiment_FR_REAL,001,23,
images/fcloud_D1.5_1.tif,1.5,0,,,,,0,68,68,21,,,,,,,,,,,,,,,,,,,3,None,3,1.268,,,,,,,,,,,,,,,,,,,2019_Mar_13_1614,60.247496717011906,Cloud_Experiment_FR_REAL,001,23,
images/fcloud80-20_D1.3_3.tif,1.3,2,,,,,0,69,69,89,,,,,,,,,,,,,,,,,,,None,None,None,10.742,,,,,,,,,,,,,,,,,,,2019_Mar_13_1614,60.247496717011906,Cloud_Experiment_FR_REAL,001,23,
images/fcloud65-35_D0.8_1.tif,0.8,1,,,,,0,70,70,36,,,,,,,,,,,,,,,,,,,2,None,3,0.985,,,,,,,,,,,,,,,,,,,2019_Mar_13_1614,60.247496717011906,Cloud_Experiment_FR_REAL,001,23,
images/fcloud65-35_D0.8_3.tif,0.8,1,,,,,0,71,71,38,,,,,,,,,,,,,,,,,,,1,None,1,0.568,,,,,,,,,,,,,,,,,,,2019_Mar_13_1614,60.247496717011906,Cloud_Experiment_FR_REAL,001,23,
images/fcloud80-20_D1.8_1.tif,1.8,2,,,,,0,72,72,102,,,,,,,,,,,,,,,,,,,None,None,None,9.077,,,,,,,,,,,,,,,,,,,2019_Mar_13_1614,60.247496717011906,Cloud_Experiment_FR_REAL,001,23,
images/fcloud80-20_D1.3_2.tif,1.3,2,,,,,0,73,73,88,,,,,,,,,,,,,,,,,,,3,None,2,0.817,,,,,,,,,,,,,,,,,,,2019_Mar_13_1614,60.247496717011906,Cloud_Experiment_FR_REAL,001,23,
images/fcloud_D1.7_2.tif,1.7,0,,,,,0,74,74,28,,,,,,,,,,,,,,,,,,,2,None,2,0.536,,,,,,,,,,,,,,,,,,,2019_Mar_13_1614,60.247496717011906,Cloud_Experiment_FR_REAL,001,23,
images/fcloud_D1.8_3.tif,1.8,0,,,,,0,75,75,32,,,,,,,,,,,,,,,,,,,4,None,2,1.317,,,,,,,,,,,,,,,,,,,2019_Mar_13_1614,60.247496717011906,Cloud_Experiment_FR_REAL,001,23,
images/fcloud_D1.2_2.tif,1.2,0,,,,,0,76,76,13,,,,,,,,,,,,,,,,,,,3,None,3,0.901,,,,,,,,,,,,,,,,,,,2019_Mar_13_1614,60.247496717011906,Cloud_Experiment_FR_REAL,001,23,
images/fcloud_D1_3.tif,1.0,0,,,,,0,77,77,8,,,,,,,,,,,,,,,,,,,2,None,3,0.818,,,,,,,,,,,,,,,,,,,2019_Mar_13_1614,60.247496717011906,Cloud_Experiment_FR_REAL,001,23,
images/fcloud65-35_D0.9_1.tif,0.9,1,,,,,0,78,78,39,,,,,,,,,,,,,,,,,,,3,None,2,1.201,,,,,,,,,,,,,,,,,,,2019_Mar_13_1614,60.247496717011906,Cloud_Experiment_FR_REAL,001,23,
images/fcloud80-20_D1.8_2.tif,1.8,2,,,,,0,79,79,103,,,,,,,,,,,,,,,,,,,None,None,None,10.691,,,,,,,,,,,,,,,,,,,2019_Mar_13_1614,60.247496717011906,Cloud_Experiment_FR_REAL,001,23,
images/fcloud80-20_D1.4_3.tif,1.4,2,,,,,0,80,80,92,,,,,,,,,,,,,,,,,,,2,None,2,0.885,,,,,,,,,,,,,,,,,,,2019_Mar_13_1614,60.247496717011906,Cloud_Experiment_FR_REAL,001,23,
images/fcloud65-35_D1_2.tif,1.0,1,,,,,0,81,81,43,,,,,,,,,,,,,,,,,,,3,None,3,0.87,,,,,,,,,,,,,,,,,,,2019_Mar_13_1614,60.247496717011906,Cloud_Experiment_FR_REAL,001,23,
images/fcloud80-20_D1.3_1.tif,1.3,2,,,,,0,82,82,87,,,,,,,,,,,,,,,,,,,None,None,None,10.391,,,,,,,,,,,,,,,,,,,2019_Mar_13_1614,60.247496717011906,Cloud_Experiment_FR_REAL,001,23,
images/fcloud80-20_D1.1_1.tif,1.1,2,,,,,0,83,83,81,,,,,,,,,,,,,,,,,,,2,None,2,2.118,,,,,,,,,,,,,,,,,,,2019_Mar_13_1614,60.247496717011906,Cloud_Experiment_FR_REAL,001,23,
images/fcloud65-35_D1.4_3.tif,1.4,1,,,,,0,84,84,56,,,,,,,,,,,,,,,,,,,3,None,3,1.235,,,,,,,,,,,,,,,,,,,2019_Mar_13_1614,60.247496717011906,Cloud_Experiment_FR_REAL,001,23,
images/fcloud80-20_D1.5_3.tif,1.5,2,,,,,0,85,85,95,,,,,,,,,,,,,,,,,,,2,None,2,1.085,,,,,,,,,,,,,,,,,,,2019_Mar_13_1614,60.247496717011906,Cloud_Experiment_FR_REAL,001,23,
images/fcloud80-20_D1_2.tif,1.0,2,,,,,0,86,86,79,,,,,,,,,,,,,,,,,,,4,None,3,0.502,,,,,,,,,,,,,,,,,,,2019_Mar_13_1614,60.247496717011906,Cloud_Experiment_FR_REAL,001,23,
images/fcloud65-35_D1.3_3.tif,1.3,1,,,,,0,87,87,53,,,,,,,,,,,,,,,,,,,None,None,None,10.16,,,,,,,,,,,,,,,,,,,2019_Mar_13_1614,60.247496717011906,Cloud_Experiment_FR_REAL,001,23,
images/fcloud80-20_D0.9_1.tif,0.9,2,,,,,0,88,88,75,,,,,,,,,,,,,,,,,,,2,None,1,0.853,,,,,,,,,,,,,,,,,,,2019_Mar_13_1614,60.247496717011906,Cloud_Experiment_FR_REAL,001,23,
images/fcloud65-35_D1.6_3.tif,1.6,1,,,,,0,89,89,62,,,,,,,,,,,,,,,,,,,3,None,2,0.437,,,,,,,,,,,,,,,,,,,2019_Mar_13_1614,60.247496717011906,Cloud_Experiment_FR_REAL,001,23,
images/fcloud_D0.8_1.tif,0.8,0,,,,,0,90,90,0,,,,,,,,,,,,,,,,,,,None,None,None,9.793,,,,,,,,,,,,,,,,,,,2019_Mar_13_1614,60.247496717011906,Cloud_Experiment_FR_REAL,001,23,
images/fcloud_D1.1_3.tif,1.1,0,,,,,0,91,91,11,,,,,,,,,,,,,,,,,,,2,None,3,0.835,,,,,,,,,,,,,,,,,,,2019_Mar_13_1614,60.247496717011906,Cloud_Experiment_FR_REAL,001,23,
images/fcloud80-20_D1.7_1.tif,1.7,2,,,,,0,92,92,99,,,,,,,,,,,,,,,,,,,3,None,2,1.884,,,,,,,,,,,,,,,,,,,2019_Mar_13_1614,60.247496717011906,Cloud_Experiment_FR_REAL,001,23,
images/fcloud80-20_D1.6_2.tif,1.6,2,,,,,0,93,93,97,,,,,,,,,,,,,,,,,,,None,None,None,11.192,,,,,,,,,,,,,,,,,,,2019_Mar_13_1614,60.247496717011906,Cloud_Experiment_FR_REAL,001,23,
images/fcloud_D1.1_2.tif,1.1,0,,,,,0,94,94,10,,,,,,,,,,,,,,,,,,,4,None,3,1.051,,,,,,,,,,,,,,,,,,,2019_Mar_13_1614,60.247496717011906,Cloud_Experiment_FR_REAL,001,23,
images/fcloud65-35_D1.8_2.tif,1.8,1,,,,,0,95,95,67,,,,,,,,,,,,,,,,,,,None,None,None,10.26,,,,,,,,,,,,,,,,,,,2019_Mar_13_1614,60.247496717011906,Cloud_Experiment_FR_REAL,001,23,
images/fcloud_D1.3_3.tif,1.3,0,,,,,0,96,96,17,,,,,,,,,,,,,,,,,,,3,None,2,1.57,,,,,,,,,,,,,,,,,,,2019_Mar_13_1614,60.247496717011906,Cloud_Experiment_FR_REAL,001,23,
images/fcloud_D1.3_2.tif,1.3,0,,,,,0,97,97,16,,,,,,,,,,,,,,,,,,,2,None,1,0.836,,,,,,,,,,,,,,,,,,,2019_Mar_13_1614,60.247496717011906,Cloud_Experiment_FR_REAL,001,23,
images/fcloud_D1.1_1.tif,1.1,0,,,,,0,98,98,9,,,,,,,,,,,,,,,,,,,None,None,None,10.442,,,,,,,,,,,,,,,,,,,2019_Mar_13_1614,60.247496717011906,Cloud_Experiment_FR_REAL,001,23,
images/fcloud_D0.9_1.tif,0.9,0,,,,,0,99,99,3,,,,,,,,,,,,,,,,,,,2,None,2,0.454,,,,,,,,,,,,,,,,,,,2019_Mar_13_1614,60.247496717011906,Cloud_Experiment_FR_REAL,001,23,
images/fcloud_D0.9_3.tif,0.9,0,,,,,0,100,100,5,,,,,,,,,,,,,,,,,,,3,None,2,0.951,,,,,,,,,,,,,,,,,,,2019_Mar_13_1614,60.247496717011906,Cloud_Experiment_FR_REAL,001,23,
images/fcloud65-35_D1.9_3.tif,1.9,1,,,,,0,101,101,71,,,,,,,,,,,,,,,,,,,None,None,None,10.277,,,,,,,,,,,,,,,,,,,2019_Mar_13_1614,60.247496717011906,Cloud_Experiment_FR_REAL,001,23,
images/fcloud_D1_2.tif,1.0,0,,,,,0,102,102,7,,,,,,,,,,,,,,,,,,,2,None,None,None,,,,,,,,,,,,,,,,,,,2019_Mar_13_1614,60.247496717011906,Cloud_Experiment_FR_REAL,001,23,
images/fcloud80-20_D1.5_2.tif,1.5,2,,,,,0,103,103,94,,,,,,,,,,,,,,,,,,,None,None,None,11.142,,,,,,,,,,,,,,,,,,,2019_Mar_13_1614,60.247496717011906,Cloud_Experiment_FR_REAL,001,23,
images/fcloud65-35_D1.4_2.tif,1.4,1,,,,,0,104,104,55,,,,,,,,,,,,,,,,,,,None,None,None,20.815,,,,,,,,,,,,,,,,,,,2019_Mar_13_1614,60.247496717011906,Cloud_Experiment_FR_REAL,001,23,
images/fcloud_D0.9_2.tif,0.9,0,,,,,0,105,105,4,,,,,,,,,,,,,,,,,,,None,None,None,31.739,,,,,,,,,,,,,,,,,,,2019_Mar_13_1614,60.247496717011906,Cloud_Experiment_FR_REAL,001,23,
images/fcloud65-35_D1.1_3.tif,1.1,1,,,,,0,106,106,47,,,,,,,,,,,,,,,,,,,2,None,2,2.95,,,,,,,,,,,,,,,,,,,2019_Mar_13_1614,60.247496717011906,Cloud_Experiment_FR_REAL,001,23,
images/fcloud80-20_D0.9_2.tif,0.9,2,,,,,0,107,107,76,,,,,,,,,,,,,,,,,,,None,None,None,12.523,,,,,,,,,,,,,,,,,,,2019_Mar_13_1614,60.247496717011906,Cloud_Experiment_FR_REAL,001,23,
,,,,,,,,,,,,,,,,,,,,,,,,,,,,,,,,,,,,,,,,,,,,,,space,5.4307884,,,,2019_Mar_13_1614,60.247496717011906,Cloud_Experiment_FR_REAL,001,23,
,,,,,,,,,,,,,,,,,,,,,,,,,5,17.3,,,,,,,,,,,,,,,,,,,,,,,,,2019_Mar_13_1614,60.247496717011906,Cloud_Experiment_FR_REAL,001,23,
,,,,,,,,,,,,,,,,,,,,,,,,,,,,,,,,,,1,,,,,,,,,,,,,,,,,2019_Mar_13_1614,60.247496717011906,Cloud_Experiment_FR_REAL,001,23,
,,,,,,,,,,,,,,,,,,,,,,,,,,,,,,,,,,,5,,,,,,,,,,,,,,,,2019_Mar_13_1614,60.247496717011906,Cloud_Experiment_FR_REAL,001,23,
,,,,,,,,,,,,,,,,,,,,,,,,,,,,,,,,,,,,3,,,,,,,,,,,,,,,2019_Mar_13_1614,60.247496717011906,Cloud_Experiment_FR_REAL,001,23,
,,,,,,,,,,,,,,,,,,,,,,,,,,,,,,,,,,,,,1,,,,,,,,,,,,,,2019_Mar_13_1614,60.247496717011906,Cloud_Experiment_FR_REAL,001,23,
,,,,,,,,,,,,,,,,,,,,,,,,,,,,,,,,,,,,,,7,,,,,,,,,,,,,2019_Mar_13_1614,60.247496717011906,Cloud_Experiment_FR_REAL,001,23,
,,,,,,,,,,,,,,,,,,,,,,,,,,,,,,,,,,,,,,,3,,,,,,,,,,,,2019_Mar_13_1614,60.247496717011906,Cloud_Experiment_FR_REAL,001,23,
,,,,,,,,,,,,,,,,,,,,,,,,,,,,,,,,,,,,,,,,1,,,,,,,,,,,2019_Mar_13_1614,60.247496717011906,Cloud_Experiment_FR_REAL,001,23,
,,,,,,,,,,,,,,,,,,,,,,,,,,,,,,,,,,,,,,,,,7,,,,,,,,,,2019_Mar_13_1614,60.247496717011906,Cloud_Experiment_FR_REAL,001,23,
,,,,,,,,,,,,,,,,,,,,,,,,,,,,,,,,,,,,,,,,,,7,,,,,,,,,2019_Mar_13_1614,60.247496717011906,Cloud_Experiment_FR_REAL,001,23,
,,,,,,,,,,,,,,,,,,,,,,,,,,,,,,,,,,,,,,,,,,,3,,,,,,,,2019_Mar_13_1614,60.247496717011906,Cloud_Experiment_FR_REAL,001,23,
,,,,,,,,,,,,,,,,,,,,,,,,,,,,,,,,,,,,,,,,,,,,,,,,space,457.1708937,,2019_Mar_13_1614,60.247496717011906,Cloud_Experiment_FR_REAL,001,23,
images/fcloud65-35_D1.7_4.tif,1.7,1,,,,,,,,,0,0,0,63,,,,,,,,,,,,,,,None,None,None,568.206,,,,,,,,,,,,,,,,,,,2019_Mar_13_1614,60.247496717011906,Cloud_Experiment_FR_REAL,001,23,
images/fcloud80-20_D1.1_6.tif,1.1,2,,,,,,,,,0,1,1,83,,,,,,,,,,,,,,,3,space,1,0.418,6.2373864,,,,,,,,,,,,,,,,,,2019_Mar_13_1614,60.247496717011906,Cloud_Experiment_FR_REAL,001,23,
images/fcloud65-35_D1.9_4.tif,1.9,1,,,,,,,,,0,2,2,69,,,,,,,,,,,,,,,2,None,1,0.451,,,,,,,,,,,,,,,,,,,2019_Mar_13_1614,60.247496717011906,Cloud_Experiment_FR_REAL,001,23,
images/fcloud65-35_D1.4_6.tif,1.4,1,,,,,,,,,0,3,3,56,,,,,,,,,,,,,,,None,None,None,11.024,,,,,,,,,,,,,,,,,,,2019_Mar_13_1614,60.247496717011906,Cloud_Experiment_FR_REAL,001,23,
images/fcloud_D1.3_4.tif,1.3,0,,,,,,,,,0,4,4,15,,,,,,,,,,,,,,,2,None,1,0.437,,,,,,,,,,,,,,,,,,,2019_Mar_13_1614,60.247496717011906,Cloud_Experiment_FR_REAL,001,23,
images/fcloud_D1.4_4.tif,1.4,0,,,,,,,,,0,5,5,18,,,,,,,,,,,,,,,None,None,None,9.776,,,,,,,,,,,,,,,,,,,2019_Mar_13_1614,60.247496717011906,Cloud_Experiment_FR_REAL,001,23,
images/fcloud_D0.8_4.tif,0.8,0,,,,,,,,,0,6,6,0,,,,,,,,,,,,,,,3,None,2,0.735,,,,,,,,,,,,,,,,,,,2019_Mar_13_1614,60.247496717011906,Cloud_Experiment_FR_REAL,001,23,
images/fcloud80-20_D1.2_5.tif,1.2,2,,,,,,,,,0,7,7,85,,,,,,,,,,,,,,,None,None,None,10.192,,,,,,,,,,,,,,,,,,,2019_Mar_13_1614,60.247496717011906,Cloud_Experiment_FR_REAL,001,23,
images/fcloud80-20_D1.7_5.tif,1.7,2,,,,,,,,,0,8,8,100,,,,,,,,,,,,,,,3,None,2,0.654,,,,,,,,,,,,,,,,,,,2019_Mar_13_1614,60.247496717011906,Cloud_Experiment_FR_REAL,001,23,
images/fcloud80-20_D1.9_6.tif,1.9,2,,,,,,,,,0,9,9,107,,,,,,,,,,,,,,,2,None,2,0.486,,,,,,,,,,,,,,,,,,,2019_Mar_13_1614,60.247496717011906,Cloud_Experiment_FR_REAL,001,23,
images/fcloud80-20_D1_5.tif,1.0,2,,,,,,,,,0,10,10,79,,,,,,,,,,,,,,,None,None,None,8.944,,,,,,,,,,,,,,,,,,,2019_Mar_13_1614,60.247496717011906,Cloud_Experiment_FR_REAL,001,23,
images/fcloud80-20_D0.9_5.tif,0.9,2,,,,,,,,,0,11,11,76,,,,,,,,,,,,,,,2,None,1,0.452,,,,,,,,,,,,,,,,,,,2019_Mar_13_1614,60.247496717011906,Cloud_Experiment_FR_REAL,001,23,
images/fcloud_D0.9_4.tif,0.9,0,,,,,,,,,0,12,12,3,,,,,,,,,,,,,,,2,None,1,0.418,,,,,,,,,,,,,,,,,,,2019_Mar_13_1614,60.247496717011906,Cloud_Experiment_FR_REAL,001,23,
images/fcloud80-20_D1.8_4.tif,1.8,2,,,,,,,,,0,13,13,102,,,,,,,,,,,,,,,None,None,None,8.761,,,,,,,,,,,,,,,,,,,2019_Mar_13_1614,60.247496717011906,Cloud_Experiment_FR_REAL,001,23,
images/fcloud65-35_D1.6_4.tif,1.6,1,,,,,,,,,0,14,14,60,,,,,,,,,,,,,,,2,None,1,0.403,,,,,,,,,,,,,,,,,,,2019_Mar_13_1614,60.247496717011906,Cloud_Experiment_FR_REAL,001,23,
images/fcloud_D0.8_6.tif,0.8,0,,,,,,,,,0,15,15,2,,,,,,,,,,,,,,,3,None,2,0.435,,,,,,,,,,,,,,,,,,,2019_Mar_13_1614,60.247496717011906,Cloud_Experiment_FR_REAL,001,23,
images/fcloud80-20_D1.4_4.tif,1.4,2,,,,,,,,,0,16,16,90,,,,,,,,,,,,,,,None,None,None,9.06,,,,,,,,,,,,,,,,,,,2019_Mar_13_1614,60.247496717011906,Cloud_Experiment_FR_REAL,001,23,
images/fcloud65-35_D1.2_6.tif,1.2,1,,,,,,,,,0,17,17,50,,,,,,,,,,,,,,,2,None,1,2.301,,,,,,,,,,,,,,,,,,,2019_Mar_13_1614,60.247496717011906,Cloud_Experiment_FR_REAL,001,23,
images/fcloud_D1.9_6.tif,1.9,0,,,,,,,,,0,18,18,35,,,,,,,,,,,,,,,1,None,1,0.735,,,,,,,,,,,,,,,,,,,2019_Mar_13_1614,60.247496717011906,Cloud_Experiment_FR_REAL,001,23,
images/fcloud_D1.1_4.tif,1.1,0,,,,,,,,,0,19,19,9,,,,,,,,,,,,,,,3,None,2,2.017,,,,,,,,,,,,,,,,,,,2019_Mar_13_1614,60.247496717011906,Cloud_Experiment_FR_REAL,001,23,
images/fcloud_D1.1_6.tif,1.1,0,,,,,,,,,0,20,20,11,,,,,,,,,,,,,,,3,None,2,0.419,,,,,,,,,,,,,,,,,,,2019_Mar_13_1614,60.247496717011906,Cloud_Experiment_FR_REAL,001,23,
images/fcloud65-35_D1.3_4.tif,1.3,1,,,,,,,,,0,21,21,51,,,,,,,,,,,,,,,2,None,1,0.521,,,,,,,,,,,,,,,,,,,2019_Mar_13_1614,60.247496717011906,Cloud_Experiment_FR_REAL,001,23,
images/fcloud_D1.8_6.tif,1.8,0,,,,,,,,,0,22,22,32,,,,,,,,,,,,,,,None,None,None,8.862,,,,,,,,,,,,,,,,,,,2019_Mar_13_1614,60.247496717011906,Cloud_Experiment_FR_REAL,001,23,
images/fcloud_D1.8_5.tif,1.8,0,,,,,,,,,0,23,23,31,,,,,,,,,,,,,,,None,None,None,18.47,,,,,,,,,,,,,,,,,,,2019_Mar_13_1614,60.247496717011906,Cloud_Experiment_FR_REAL,001,23,
images/fcloud_D1.5_5.tif,1.5,0,,,,,,,,,0,24,24,22,,,,,,,,,,,,,,,3,None,2,0.418,,,,,,,,,,,,,,,,,,,2019_Mar_13_1614,60.247496717011906,Cloud_Experiment_FR_REAL,001,23,
images/fcloud65-35_D1.3_5.tif,1.3,1,,,,,,,,,0,25,25,52,,,,,,,,,,,,,,,2,None,1,0.968,,,,,,,,,,,,,,,,,,,2019_Mar_13_1614,60.247496717011906,Cloud_Experiment_FR_REAL,001,23,
images/fcloud65-35_D0.8_5.tif,0.8,1,,,,,,,,,0,26,26,37,,,,,,,,,,,,,,,None,None,None,10.242,,,,,,,,,,,,,,,,,,,2019_Mar_13_1614,60.247496717011906,Cloud_Experiment_FR_REAL,001,23,
images/fcloud65-35_D1.1_5.tif,1.1,1,,,,,,,,,0,27,27,46,,,,,,,,,,,,,,,1,None,2,0.435,,,,,,,,,,,,,,,,,,,2019_Mar_13_1614,60.247496717011906,Cloud_Experiment_FR_REAL,001,23,
images/fcloud_D1.7_5.tif,1.7,0,,,,,,,,,0,28,28,28,,,,,,,,,,,,,,,2,None,1,0.52,,,,,,,,,,,,,,,,,,,2019_Mar_13_1614,60.247496717011906,Cloud_Experiment_FR_REAL,001,23,
images/fcloud80-20_D1.5_6.tif,1.5,2,,,,,,,,,0,29,29,95,,,,,,,,,,,,,,,None,None,None,10.759,,,,,,,,,,,,,,,,,,,2019_Mar_13_1614,60.247496717011906,Cloud_Experiment_FR_REAL,001,23,
images/fcloud65-35_D1.5_6.tif,1.5,1,,,,,,,,,0,30,30,59,,,,,,,,,,,,,,,None,None,None,19.752,,,,,,,,,,,,,,,,,,,2019_Mar_13_1614,60.247496717011906,Cloud_Experiment_FR_REAL,001,23,
images/fcloud65-35_D1.2_4.tif,1.2,1,,,,,,,,,0,31,31,48,,,,,,,,,,,,,,,None,None,None,28.877,,,,,,,,,,,,,,,,,,,2019_Mar_13_1614,60.247496717011906,Cloud_Experiment_FR_REAL,001,23,
images/fcloud80-20_D1.6_5.tif,1.6,2,,,,,,,,,0,32,32,97,,,,,,,,,,,,,,,None,None,None,43.997,,,,,,,,,,,,,,,,,,,2019_Mar_13_1614,60.247496717011906,Cloud_Experiment_FR_REAL,001,23,
images/fcloud65-35_D0.9_6.tif,0.9,1,,,,,,,,,0,33,33,41,,,,,,,,,,,,,,,2,None,2,6.047,,,,,,,,,,,,,,,,,,,2019_Mar_13_1614,60.247496717011906,Cloud_Experiment_FR_REAL,001,23,
images/fcloud80-20_D1.1_4.tif,1.1,2,,,,,,,,,0,34,34,81,,,,,,,,,,,,,,,None,None,None,15.87,,,,,,,,,,,,,,,,,,,2019_Mar_13_1614,60.247496717011906,Cloud_Experiment_FR_REAL,001,23,
images/fcloud_D1_6.tif,1.0,0,,,,,,,,,0,35,35,8,,,,,,,,,,,,,,,3,None,2,1.084,,,,,,,,,,,,,,,,,,,2019_Mar_13_1614,60.247496717011906,Cloud_Experiment_FR_REAL,001,23,
images/fcloud65-35_D1.8_5.tif,1.8,1,,,,,,,,,0,36,36,67,,,,,,,,,,,,,,,None,None,None,11.01,,,,,,,,,,,,,,,,,,,2019_Mar_13_1614,60.247496717011906,Cloud_Experiment_FR_REAL,001,23,
images/fcloud80-20_D0.8_4.tif,0.8,2,,,,,,,,,0,37,37,72,,,,,,,,,,,,,,,None,None,None,20.603,,,,,,,,,,,,,,,,,,,2019_Mar_13_1614,60.247496717011906,Cloud_Experiment_FR_REAL,001,23,
images/fcloud65-35_D1.6_6.tif,1.6,1,,,,,,,,,0,38,38,62,,,,,,,,,,,,,,,3,None,2,1.119,,,,,,,,,,,,,,,,,,,2019_Mar_13_1614,60.247496717011906,Cloud_Experiment_FR_REAL,001,23,
images/fcloud65-35_D1_6.tif,1.0,1,,,,,,,,,0,39,39,44,,,,,,,,,,,,,,,1,None,3,0.968,,,,,,,,,,,,,,,,,,,2019_Mar_13_1614,60.247496717011906,Cloud_Experiment_FR_REAL,001,23,
images/fcloud80-20_D1.9_5.tif,1.9,2,,,,,,,,,0,40,40,106,,,,,,,,,,,,,,,None,None,None,10.359,,,,,,,,,,,,,,,,,,,2019_Mar_13_1614,60.247496717011906,Cloud_Experiment_FR_REAL,001,23,
images/fcloud80-20_D1.4_5.tif,1.4,2,,,,,,,,,0,41,41,91,,,,,,,,,,,,,,,2,None,2,1.802,,,,,,,,,,,,,,,,,,,2019_Mar_13_1614,60.247496717011906,Cloud_Experiment_FR_REAL,001,23,
images/fcloud80-20_D0.8_6.tif,0.8,2,,,,,,,,,0,42,42,74,,,,,,,,,,,,,,,1,None,2,1.052,,,,,,,,,,,,,,,,,,,2019_Mar_13_1614,60.247496717011906,Cloud_Experiment_FR_REAL,001,23,
images/fcloud65-35_D1_5.tif,1.0,1,,,,,,,,,0,43,43,43,,,,,,,,,,,,,,,3,space,1,2.422,2.6731189,,,,,,,,,,,,,,,,,,2019_Mar_13_1614,60.247496717011906,Cloud_Experiment_FR_REAL,001,23,
images/fcloud_D1.4_5.tif,1.4,0,,,,,,,,,0,44,44,19,,,,,,,,,,,,,,,2,None,2,0.868,,,,,,,,,,,,,,,,,,,2019_Mar_13_1614,60.247496717011906,Cloud_Experiment_FR_REAL,001,23,
images/fcloud65-35_D1.1_6.tif,1.1,1,,,,,,,,,0,45,45,47,,,,,,,,,,,,,,,4,None,3,1.235,,,,,,,,,,,,,,,,,,,2019_Mar_13_1614,60.247496717011906,Cloud_Experiment_FR_REAL,001,23,
images/fcloud65-35_D1.4_5.tif,1.4,1,,,,,,,,,0,46,46,55,,,,,,,,,,,,,,,3,None,2,1.518,,,,,,,,,,,,,,,,,,,2019_Mar_13_1614,60.247496717011906,Cloud_Experiment_FR_REAL,001,23,
images/fcloud_D1.9_4.tif,1.9,0,,,,,,,,,0,47,47,33,,,,,,,,,,,,,,,None,None,None,11.042,,,,,,,,,,,,,,,,,,,2019_Mar_13_1614,60.247496717011906,Cloud_Experiment_FR_REAL,001,23,
images/fcloud65-35_D1.8_4.tif,1.8,1,,,,,,,,,0,48,48,66,,,,,,,,,,,,,,,None,None,None,20.266,,,,,,,,,,,,,,,,,,,2019_Mar_13_1614,60.247496717011906,Cloud_Experiment_FR_REAL,001,23,
images/fcloud80-20_D0.8_5.tif,0.8,2,,,,,,,,,0,49,49,73,,,,,,,,,,,,,,,None,None,None,29.643,,,,,,,,,,,,,,,,,,,2019_Mar_13_1614,60.247496717011906,Cloud_Experiment_FR_REAL,001,23,
images/fcloud80-20_D0.9_6.tif,0.9,2,,,,,,,,,0,50,50,77,,,,,,,,,,,,,,,None,None,None,39.101,,,,,,,,,,,,,,,,,,,2019_Mar_13_1614,60.247496717011906,Cloud_Experiment_FR_REAL,001,23,
images/fcloud65-35_D1.9_5.tif,1.9,1,,,,,,,,,0,51,51,70,,,,,,,,,,,,,,,1,None,1,1.401,,,,,,,,,,,,,,,,,,,2019_Mar_13_1614,60.247496717011906,Cloud_Experiment_FR_REAL,001,23,
images/fcloud65-35_D0.9_4.tif,0.9,1,,,,,,,,,0,52,52,39,,,,,,,,,,,,,,,None,None,None,14.838,,,,,,,,,,,,,,,,,,,2019_Mar_13_1614,60.247496717011906,Cloud_Experiment_FR_REAL,001,23,
images/fcloud80-20_D1.5_4.tif,1.5,2,,,,,,,,,0,53,53,93,,,,,,,,,,,,,,,2,None,1,2.017,,,,,,,,,,,,,,,,,,,2019_Mar_13_1614,60.247496717011906,Cloud_Experiment_FR_REAL,001,23,
images/fcloud65-35_D1.7_6.tif,1.7,1,,,,,,,,,0,54,54,65,,,,,,,,,,,,,,,1,None,2,0.569,,,,,,,,,,,,,,,,,,,2019_Mar_13_1614,60.247496717011906,Cloud_Experiment_FR_REAL,001,23,
images/fcloud65-35_D1.5_5.tif,1.5,1,,,,,,,,,0,55,55,58,,,,,,,,,,,,,,,2,None,3,0.985,,,,,,,,,,,,,,,,,,,2019_Mar_13_1614,60.247496717011906,Cloud_Experiment_FR_REAL,001,23,
images/fcloud65-35_D0.9_5.tif,0.9,1,,,,,,,,,0,56,56,40,,,,,,,,,,,,,,,3,None,2,1.801,,,,,,,,,,,,,,,,,,,2019_Mar_13_1614,60.247496717011906,Cloud_Experiment_FR_REAL,001,23,
images/fcloud65-35_D0.8_4.tif,0.8,1,,,,,,,,,0,57,57,36,,,,,,,,,,,,,,,3,None,2,0.536,,,,,,,,,,,,,,,,,,,2019_Mar_13_1614,60.247496717011906,Cloud_Experiment_FR_REAL,001,23,
images/fcloud_D1.5_4.tif,1.5,0,,,,,,,,,0,58,58,21,,,,,,,,,,,,,,,3,None,2,0.469,,,,,,,,,,,,,,,,,,,2019_Mar_13_1614,60.247496717011906,Cloud_Experiment_FR_REAL,001,23,
images/fcloud65-35_D1.5_4.tif,1.5,1,,,,,,,,,0,59,59,57,,,,,,,,,,,,,,,None,None,None,10.41,,,,,,,,,,,,,,,,,,,2019_Mar_13_1614,60.247496717011906,Cloud_Experiment_FR_REAL,001,23,
images/fcloud_D1.6_5.tif,1.6,0,,,,,,,,,0,60,60,25,,,,,,,,,,,,,,,None,None,None,19.368,,,,,,,,,,,,,,,,,,,2019_Mar_13_1614,60.247496717011906,Cloud_Experiment_FR_REAL,001,23,
images/fcloud65-35_D1.2_5.tif,1.2,1,,,,,,,,,0,61,61,49,,,,,,,,,,,,,,,None,None,None,28.277,,,,,,,,,,,,,,,,,,,2019_Mar_13_1614,60.247496717011906,Cloud_Experiment_FR_REAL,001,23,
images/fcloud80-20_D1.8_5.tif,1.8,2,,,,,,,,,0,62,62,103,,,,,,,,,,,,,,,None,None,None,51.872,,,,,,,,,,,,,,,,,,,2019_Mar_13_1614,60.247496717011906,Cloud_Experiment_FR_REAL,001,23,
images/fcloud65-35_D1.1_4.tif,1.1,1,,,,,,,,,0,63,63,45,,,,,,,,,,,,,,,None,None,None,61.314,,,,,,,,,,,,,,,,,,,2019_Mar_13_1614,60.247496717011906,Cloud_Experiment_FR_REAL,001,23,
images/fcloud80-20_D1_4.tif,1.0,2,,,,,,,,,0,64,64,78,,,,,,,,,,,,,,,2,None,1,3.068,,,,,,,,,,,,,,,,,,,2019_Mar_13_1614,60.247496717011906,Cloud_Experiment_FR_REAL,001,23,
images/fcloud_D1.4_6.tif,1.4,0,,,,,,,,,0,65,65,20,,,,,,,,,,,,,,,2,None,3,1.034,,,,,,,,,,,,,,,,,,,2019_Mar_13_1614,60.247496717011906,Cloud_Experiment_FR_REAL,001,23,
images/fcloud_D1.1_5.tif,1.1,0,,,,,,,,,0,66,66,10,,,,,,,,,,,,,,,2,None,2,1.219,,,,,,,,,,,,,,,,,,,2019_Mar_13_1614,60.247496717011906,Cloud_Experiment_FR_REAL,001,23,
images/fcloud_D1.2_4.tif,1.2,0,,,,,,,,,0,67,67,12,,,,,,,,,,,,,,,2,None,3,0.486,,,,,,,,,,,,,,,,,,,2019_Mar_13_1614,60.247496717011906,Cloud_Experiment_FR_REAL,001,23,
images/fcloud80-20_D1.1_5.tif,1.1,2,,,,,,,,,0,68,68,82,,,,,,,,,,,,,,,2,None,2,1.852,,,,,,,,,,,,,,,,,,,2019_Mar_13_1614,60.247496717011906,Cloud_Experiment_FR_REAL,001,23,
images/fcloud80-20_D1.4_6.tif,1.4,2,,,,,,,,,0,69,69,92,,,,,,,,,,,,,,,None,None,None,13.439,,,,,,,,,,,,,,,,,,,2019_Mar_13_1614,60.247496717011906,Cloud_Experiment_FR_REAL,001,23,
images/fcloud_D1_4.tif,1.0,0,,,,,,,,,0,70,70,6,,,,,,,,,,,,,,,3,space,2,0.436,3.3027074,,,,,,,,,,,,,,,,,,2019_Mar_13_1614,60.247496717011906,Cloud_Experiment_FR_REAL,001,23,
images/fcloud65-35_D1_4.tif,1.0,1,,,,,,,,,0,71,71,42,,,,,,,,,,,,,,,1,space,1,1.417,5.180369,,,,,,,,,,,,,,,,,,2019_Mar_13_1614,60.247496717011906,Cloud_Experiment_FR_REAL,001,23,
images/fcloud80-20_D1_6.tif,1.0,2,,,,,,,,,0,72,72,80,,,,,,,,,,,,,,,None,None,None,11.125,,,,,,,,,,,,,,,,,,,2019_Mar_13_1614,60.247496717011906,Cloud_Experiment_FR_REAL,001,23,
images/fcloud65-35_D0.8_6.tif,0.8,1,,,,,,,,,0,73,73,38,,,,,,,,,,,,,,,2,None,2,1.401,,,,,,,,,,,,,,,,,,,2019_Mar_13_1614,60.247496717011906,Cloud_Experiment_FR_REAL,001,23,
images/fcloud80-20_D1.7_4.tif,1.7,2,,,,,,,,,0,74,74,99,,,,,,,,,,,,,,,2,space,1,0.984,4.4002952,,,,,,,,,,,,,,,,,,2019_Mar_13_1614,60.247496717011906,Cloud_Experiment_FR_REAL,001,23,
images/fcloud80-20_D1.7_6.tif,1.7,2,,,,,,,,,0,75,75,101,,,,,,,,,,,,,,,3,None,2,0.769,,,,,,,,,,,,,,,,,,,2019_Mar_13_1614,60.247496717011906,Cloud_Experiment_FR_REAL,001,23,
images/fcloud80-20_D0.9_4.tif,0.9,2,,,,,,,,,0,76,76,75,,,,,,,,,,,,,,,2,None,1,1.251,,,,,,,,,,,,,,,,,,,2019_Mar_13_1614,60.247496717011906,Cloud_Experiment_FR_REAL,001,23,
images/fcloud65-35_D1.8_6.tif,1.8,1,,,,,,,,,0,77,77,68,,,,,,,,,,,,,,,3,space,1,0.551,1.7089455,,,,,,,,,,,,,,,,,,2019_Mar_13_1614,60.247496717011906,Cloud_Experiment_FR_REAL,001,23,
images/fcloud_D1.7_6.tif,1.7,0,,,,,,,,,0,78,78,29,,,,,,,,,,,,,,,None,None,None,11.342,,,,,,,,,,,,,,,,,,,2019_Mar_13_1614,60.247496717011906,Cloud_Experiment_FR_REAL,001,23,
images/fcloud80-20_D1.2_4.tif,1.2,2,,,,,,,,,0,79,79,84,,,,,,,,,,,,,,,2,space,1,0.438,5.5630248,,,,,,,,,,,,,,,,,,2019_Mar_13_1614,60.247496717011906,Cloud_Experiment_FR_REAL,001,23,
images/fcloud_D1.5_6.tif,1.5,0,,,,,,,,,0,80,80,23,,,,,,,,,,,,,,,3,None,1,1.636,,,,,,,,,,,,,,,,,,,2019_Mar_13_1614,60.247496717011906,Cloud_Experiment_FR_REAL,001,23,
images/fcloud65-35_D1.3_6.tif,1.3,1,,,,,,,,,0,81,81,53,,,,,,,,,,,,,,,3,space,1,0.635,7.5328257,,,,,,,,,,,,,,,,,,2019_Mar_13_1614,60.247496717011906,Cloud_Experiment_FR_REAL,001,23,
images/fcloud_D0.8_5.tif,0.8,0,,,,,,,,,0,82,82,1,,,,,,,,,,,,,,,3,None,1,0.47,,,,,,,,,,,,,,,,,,,2019_Mar_13_1614,60.247496717011906,Cloud_Experiment_FR_REAL,001,23,
images/fcloud_D1.6_6.tif,1.6,0,,,,,,,,,0,83,83,26,,,,,,,,,,,,,,,3,space,2,1.086,6.4078804,,,,,,,,,,,,,,,,,,2019_Mar_13_1614,60.247496717011906,Cloud_Experiment_FR_REAL,001,23,
images/fcloud_D1.9_5.tif,1.9,0,,,,,,,,,0,84,84,34,,,,,,,,,,,,,,,None,None,None,10.478,,,,,,,,,,,,,,,,,,,2019_Mar_13_1614,60.247496717011906,Cloud_Experiment_FR_REAL,001,23,
images/fcloud_D0.9_5.tif,0.9,0,,,,,,,,,0,85,85,4,,,,,,,,,,,,,,,2,space,3,0.905,1.31611389999,,,,,,,,,,,,,,,,,,2019_Mar_13_1614,60.247496717011906,Cloud_Experiment_FR_REAL,001,23,
images/fcloud_D1_5.tif,1.0,0,,,,,,,,,0,86,86,7,,,,,,,,,,,,,,,3,space,3,1.469,1.3675689,,,,,,,,,,,,,,,,,,2019_Mar_13_1614,60.247496717011906,Cloud_Experiment_FR_REAL,001,23,
images/fcloud80-20_D1.3_5.tif,1.3,2,,,,,,,,,0,87,87,88,,,,,,,,,,,,,,,None,None,None,15.838,,,,,,,,,,,,,,,,,,,2019_Mar_13_1614,60.247496717011906,Cloud_Experiment_FR_REAL,001,23,
images/fcloud80-20_D1.3_4.tif,1.3,2,,,,,,,,,0,88,88,87,,,,,,,,,,,,,,,None,None,None,25.446,,,,,,,,,,,,,,,,,,,2019_Mar_13_1614,60.247496717011906,Cloud_Experiment_FR_REAL,001,23,
images/fcloud80-20_D1.5_5.tif,1.5,2,,,,,,,,,0,89,89,94,,,,,,,,,,,,,,,None,None,None,34.223,,,,,,,,,,,,,,,,,,,2019_Mar_13_1614,60.247496717011906,Cloud_Experiment_FR_REAL,001,23,
images/fcloud_D1.2_5.tif,1.2,0,,,,,,,,,0,90,90,13,,,,,,,,,,,,,,,3,space,3,0.786,1.2541109,,,,,,,,,,,,,,,,,,2019_Mar_13_1614,60.247496717011906,Cloud_Experiment_FR_REAL,001,23,
images/fcloud80-20_D1.3_6.tif,1.3,2,,,,,,,,,0,91,91,89,,,,,,,,,,,,,,,1,space,1,0.919,1.195818,,,,,,,,,,,,,,,,,,2019_Mar_13_1614,60.247496717011906,Cloud_Experiment_FR_REAL,001,23,
images/fcloud65-35_D1.9_6.tif,1.9,1,,,,,,,,,0,92,92,71,,,,,,,,,,,,,,,None,None,None,10.292,,,,,,,,,,,,,,,,,,,2019_Mar_13_1614,60.247496717011906,Cloud_Experiment_FR_REAL,001,23,
images/fcloud_D0.9_6.tif,0.9,0,,,,,,,,,0,93,93,5,,,,,,,,,,,,,,,3,space,2,0.902,1.1972473,,,,,,,,,,,,,,,,,,2019_Mar_13_1614,60.247496717011906,Cloud_Experiment_FR_REAL,001,23,
images/fcloud80-20_D1.8_6.tif,1.8,2,,,,,,,,,0,94,94,104,,,,,,,,,,,,,,,None,None,None,10.125,,,,,,,,,,,,,,,,,,,2019_Mar_13_1614,60.247496717011906,Cloud_Experiment_FR_REAL,001,23,
images/fcloud80-20_D1.6_6.tif,1.6,2,,,,,,,,,0,95,95,98,,,,,,,,,,,,,,,2,space,3,0.668,5.974157,,,,,,,,,,,,,,,,,,2019_Mar_13_1614,60.247496717011906,Cloud_Experiment_FR_REAL,001,23,
images/fcloud80-20_D1.9_4.tif,1.9,2,,,,,,,,,0,96,96,105,,,,,,,,,,,,,,,3,space,1,1.367,6.51752379999,,,,,,,,,,,,,,,,,,2019_Mar_13_1614,60.247496717011906,Cloud_Experiment_FR_REAL,001,23,
images/fcloud_D1.7_4.tif,1.7,0,,,,,,,,,0,97,97,27,,,,,,,,,,,,,,,None,None,None,10.41,,,,,,,,,,,,,,,,,,,2019_Mar_13_1614,60.247496717011906,Cloud_Experiment_FR_REAL,001,23,
images/fcloud80-20_D1.2_6.tif,1.2,2,,,,,,,,,0,98,98,86,,,,,,,,,,,,,,,2,space,1,2.45,2.2583111,,,,,,,,,,,,,,,,,,2019_Mar_13_1614,60.247496717011906,Cloud_Experiment_FR_REAL,001,23,
images/fcloud65-35_D1.7_5.tif,1.7,1,,,,,,,,,0,99,99,64,,,,,,,,,,,,,,,3,space,2,2.051,2.763026,,,,,,,,,,,,,,,,,,2019_Mar_13_1614,60.247496717011906,Cloud_Experiment_FR_REAL,001,23,
images/fcloud_D1.2_6.tif,1.2,0,,,,,,,,,0,100,100,14,,,,,,,,,,,,,,,1,space,2,3.318,6.6261094,,,,,,,,,,,,,,,,,,2019_Mar_13_1614,60.247496717011906,Cloud_Experiment_FR_REAL,001,23,
images/fcloud80-20_D1.6_4.tif,1.6,2,,,,,,,,,0,101,101,96,,,,,,,,,,,,,,,1,space,2,0.484,6.94351690001,,,,,,,,,,,,,,,,,,2019_Mar_13_1614,60.247496717011906,Cloud_Experiment_FR_REAL,001,23,
images/fcloud_D1.3_6.tif,1.3,0,,,,,,,,,0,102,102,17,,,,,,,,,,,,,,,2,space,3,1.769,5.7651417,,,,,,,,,,,,,,,,,,2019_Mar_13_1614,60.247496717011906,Cloud_Experiment_FR_REAL,001,23,
images/fcloud65-35_D1.6_5.tif,1.6,1,,,,,,,,,0,103,103,61,,,,,,,,,,,,,,,2,space,1,0.536,3.3798123,,,,,,,,,,,,,,,,,,2019_Mar_13_1614,60.247496717011906,Cloud_Experiment_FR_REAL,001,23,
images/fcloud65-35_D1.4_4.tif,1.4,1,,,,,,,,,0,104,104,54,,,,,,,,,,,,,,,4,space,3,1.818,1.9568681,,,,,,,,,,,,,,,,,,2019_Mar_13_1614,60.247496717011906,Cloud_Experiment_FR_REAL,001,23,
images/fcloud_D1.6_4.tif,1.6,0,,,,,,,,,0,105,105,24,,,,,,,,,,,,,,,None,None,None,11.493,,,,,,,,,,,,,,,,,,,2019_Mar_13_1614,60.247496717011906,Cloud_Experiment_FR_REAL,001,23,
images/fcloud_D1.8_4.tif,1.8,0,,,,,,,,,0,106,106,30,,,,,,,,,,,,,,,None,None,None,20.599,,,,,,,,,,,,,,,,,,,2019_Mar_13_1614,60.247496717011906,Cloud_Experiment_FR_REAL,001,23,
images/fcloud_D1.3_5.tif,1.3,0,,,,,,,,,0,107,107,16,,,,,,,,,,,,,,,3,space,1,1.95,3.3584212,,,,,,,,,,,,,,,,,,2019_Mar_13_1614,60.247496717011906,Cloud_Experiment_FR_REAL,001,23,
,,,,,,,,,,,,,,,,,,,,,,,,,,,,,,,,,,,,,,,,,,,,,,space,3.9312939,,,,2019_Mar_13_1614,60.247496717011906,Cloud_Experiment_FR_REAL,001,23,
,,,,,,,,,,,,,,,,,,,,,,,,,3,7.024,,,,,,,,,,,,,,,,,,,,,,,,,2019_Mar_13_1614,60.247496717011906,Cloud_Experiment_FR_REAL,001,23,
,,,,,,,,,,,,,,,,,,,,,,,,,,,,,,,,,,2,,,,,,,,,,,,,,,,,2019_Mar_13_1614,60.247496717011906,Cloud_Experiment_FR_REAL,001,23,
,,,,,,,,,,,,,,,,,,,,,,,,,,,,,,,,,,,2,,,,,,,,,,,,,,,,2019_Mar_13_1614,60.247496717011906,Cloud_Experiment_FR_REAL,001,23,
,,,,,,,,,,,,,,,,,,,,,,,,,,,,,,,,,,,,3,,,,,,,,,,,,,,,2019_Mar_13_1614,60.247496717011906,Cloud_Experiment_FR_REAL,001,23,
,,,,,,,,,,,,,,,,,,,,,,,,,,,,,,,,,,,,,3,,,,,,,,,,,,,,2019_Mar_13_1614,60.247496717011906,Cloud_Experiment_FR_REAL,001,23,
,,,,,,,,,,,,,,,,,,,,,,,,,,,,,,,,,,,,,,7,,,,,,,,,,,,,2019_Mar_13_1614,60.247496717011906,Cloud_Experiment_FR_REAL,001,23,
,,,,,,,,,,,,,,,,,,,,,,,,,,,,,,,,,,,,,,,3,,,,,,,,,,,,2019_Mar_13_1614,60.247496717011906,Cloud_Experiment_FR_REAL,001,23,
,,,,,,,,,,,,,,,,,,,,,,,,,,,,,,,,,,,,,,,,7,,,,,,,,,,,2019_Mar_13_1614,60.247496717011906,Cloud_Experiment_FR_REAL,001,23,
,,,,,,,,,,,,,,,,,,,,,,,,,,,,,,,,,,,,,,,,,7,,,,,,,,,,2019_Mar_13_1614,60.247496717011906,Cloud_Experiment_FR_REAL,001,23,
,,,,,,,,,,,,,,,,,,,,,,,,,,,,,,,,,,,,,,,,,,7,,,,,,,,,2019_Mar_13_1614,60.247496717011906,Cloud_Experiment_FR_REAL,001,23,
,,,,,,,,,,,,,,,,,,,,,,,,,,,,,,,,,,,,,,,,,,,3,,,,,,,,2019_Mar_13_1614,60.247496717011906,Cloud_Experiment_FR_REAL,001,23,
,,,,,,,,,,,,,,,,,,,,,,,,,,,,,,,,,,,,,,,,,,,,,,,,space,508.074536,,2019_Mar_13_1614,60.247496717011906,Cloud_Experiment_FR_REAL,001,23,
images/fcloud80-20_D1.5_8.tif,1.5,2,,,,,,,,,,,,,0,0,0,125,,,,,,,,,,,None,None,None,592.238,,,,,,,,,,,,,,,,,,,2019_Mar_13_1614,60.247496717011906,Cloud_Experiment_FR_REAL,001,23,
images/fcloud80-20_D1.1_8.tif,1.1,2,,,,,,,,,,,,,0,1,1,109,,,,,,,,,,,None,None,None,604.79,,,,,,,,,,,,,,,,,,,2019_Mar_13_1614,60.247496717011906,Cloud_Experiment_FR_REAL,001,23,
images/fcloud80-20_D0.9_8.tif,0.9,2,,,,,,,,,,,,,0,2,2,101,,,,,,,,,,,None,None,None,614.501,,,,,,,,,,,,,,,,,,,2019_Mar_13_1614,60.247496717011906,Cloud_Experiment_FR_REAL,001,23,
images/fcloud80-20_D1.2_8.tif,1.2,2,,,,,,,,,,,,,0,3,3,113,,,,,,,,,,,1,None,1,0.519,,,,,,,,,,,,,,,,,,,2019_Mar_13_1614,60.247496717011906,Cloud_Experiment_FR_REAL,001,23,
images/fcloud_D1_10.tif,1.0,0,,,,,,,,,,,,,0,4,4,11,,,,,,,,,,,2,None,1,0.637,,,,,,,,,,,,,,,,,,,2019_Mar_13_1614,60.247496717011906,Cloud_Experiment_FR_REAL,001,23,
images/fcloud_D1.2_7.tif,1.2,0,,,,,,,,,,,,,0,5,5,16,,,,,,,,,,,None,None,None,14.206,,,,,,,,,,,,,,,,,,,2019_Mar_13_1614,60.247496717011906,Cloud_Experiment_FR_REAL,001,23,
images/fcloud_D1.5_9.tif,1.5,0,,,,,,,,,,,,,0,6,6,30,,,,,,,,,,,None,None,None,32.308,,,,,,,,,,,,,,,,,,,2019_Mar_13_1614,60.247496717011906,Cloud_Experiment_FR_REAL,001,23,
images/fcloud80-20_D1.3_9.tif,1.3,2,,,,,,,,,,,,,0,7,7,118,,,,,,,,,,,None,None,None,41.499,,,,,,,,,,,,,,,,,,,2019_Mar_13_1614,60.247496717011906,Cloud_Experiment_FR_REAL,001,23,
images/fcloud80-20_D0.8_7.tif,0.8,2,,,,,,,,,,,,,0,8,8,96,,,,,,,,,,,None,None,None,51.824,,,,,,,,,,,,,,,,,,,2019_Mar_13_1614,60.247496717011906,Cloud_Experiment_FR_REAL,001,23,
images/fcloud80-20_D0.8_9.tif,0.8,2,,,,,,,,,,,,,0,9,9,98,,,,,,,,,,,None,None,None,62.713,,,,,,,,,,,,,,,,,,,2019_Mar_13_1614,60.247496717011906,Cloud_Experiment_FR_REAL,001,23,
images/fcloud65-35_D1_9.tif,1.0,1,,,,,,,,,,,,,0,10,10,58,,,,,,,,,,,2,None,2,1.55,,,,,,,,,,,,,,,,,,,2019_Mar_13_1614,60.247496717011906,Cloud_Experiment_FR_REAL,001,23,
images/fcloud65-35_D0.9_7.tif,0.9,1,,,,,,,,,,,,,0,11,11,52,,,,,,,,,,,1,None,1,1.652,,,,,,,,,,,,,,,,,,,2019_Mar_13_1614,60.247496717011906,Cloud_Experiment_FR_REAL,001,23,
images/fcloud80-20_D0.9_10.tif,0.9,2,,,,,,,,,,,,,0,12,12,103,,,,,,,,,,,None,None,None,15.754,,,,,,,,,,,,,,,,,,,2019_Mar_13_1614,60.247496717011906,Cloud_Experiment_FR_REAL,001,23,
images/fcloud80-20_D1_7.tif,1.0,2,,,,,,,,,,,,,0,13,13,104,,,,,,,,,,,None,None,None,25.729,,,,,,,,,,,,,,,,,,,2019_Mar_13_1614,60.247496717011906,Cloud_Experiment_FR_REAL,001,23,
images/fcloud65-35_D1.7_10.tif,1.7,1,,,,,,,,,,,,,0,14,14,87,,,,,,,,,,,None,None,None,53.154,,,,,,,,,,,,,,,,,,,2019_Mar_13_1614,60.247496717011906,Cloud_Experiment_FR_REAL,001,23,
images/fcloud65-35_D0.8_7.tif,0.8,1,,,,,,,,,,,,,0,15,15,48,,,,,,,,,,,None,None,None,62.48,,,,,,,,,,,,,,,,,,,2019_Mar_13_1614,60.247496717011906,Cloud_Experiment_FR_REAL,001,23,
images/fcloud80-20_D1.9_8.tif,1.9,2,,,,,,,,,,,,,0,16,16,141,,,,,,,,,,,1,None,1,1.168,,,,,,,,,,,,,,,,,,,2019_Mar_13_1614,60.247496717011906,Cloud_Experiment_FR_REAL,001,23,
images/fcloud80-20_D1.8_7.tif,1.8,2,,,,,,,,,,,,,0,17,17,136,,,,,,,,,,,1,None,1,1.701,,,,,,,,,,,,,,,,,,,2019_Mar_13_1614,60.247496717011906,Cloud_Experiment_FR_REAL,001,23,
images/fcloud_D1.2_8.tif,1.2,0,,,,,,,,,,,,,0,18,18,17,,,,,,,,,,,3,None,1,0.72,,,,,,,,,,,,,,,,,,,2019_Mar_13_1614,60.247496717011906,Cloud_Experiment_FR_REAL,001,23,
images/fcloud65-35_D1.6_9.tif,1.6,1,,,,,,,,,,,,,0,19,19,82,,,,,,,,,,,2,space,1,0.651,3.8143015,,,,,,,,,,,,,,,,,,2019_Mar_13_1614,60.247496717011906,Cloud_Experiment_FR_REAL,001,23,
images/fcloud_D1.9_7.tif,1.9,0,,,,,,,,,,,,,0,20,20,44,,,,,,,,,,,None,None,None,11.241,,,,,,,,,,,,,,,,,,,2019_Mar_13_1614,60.247496717011906,Cloud_Experiment_FR_REAL,001,23,
images/fcloud65-35_D1.1_8.tif,1.1,1,,,,,,,,,,,,,0,21,21,61,,,,,,,,,,,None,None,None,20.467,,,,,,,,,,,,,,,,,,,2019_Mar_13_1614,60.247496717011906,Cloud_Experiment_FR_REAL,001,23,
images/fcloud_D1.4_9.tif,1.4,0,,,,,,,,,,,,,0,22,22,26,,,,,,,,,,,None,None,None,30.109,,,,,,,,,,,,,,,,,,,2019_Mar_13_1614,60.247496717011906,Cloud_Experiment_FR_REAL,001,23,
images/fcloud65-35_D1.7_9.tif,1.7,1,,,,,,,,,,,,,0,23,23,86,,,,,,,,,,,1,None,1,1.402,,,,,,,,,,,,,,,,,,,2019_Mar_13_1614,60.247496717011906,Cloud_Experiment_FR_REAL,001,23,
images/fcloud_D0.9_10.tif,0.9,0,,,,,,,,,,,,,0,24,24,7,,,,,,,,,,,2,space,3,1.551,6.9979929,,,,,,,,,,,,,,,,,,2019_Mar_13_1614,60.247496717011906,Cloud_Experiment_FR_REAL,001,23,
images/fcloud_D1.7_7.tif,1.7,0,,,,,,,,,,,,,0,25,25,36,,,,,,,,,,,None,None,None,11.69,,,,,,,,,,,,,,,,,,,2019_Mar_13_1614,60.247496717011906,Cloud_Experiment_FR_REAL,001,23,
images/fcloud65-35_D1.4_8.tif,1.4,1,,,,,,,,,,,,,0,26,26,73,,,,,,,,,,,1,space,3,1.034,5.8299792,,,,,,,,,,,,,,,,,,2019_Mar_13_1614,60.247496717011906,Cloud_Experiment_FR_REAL,001,23,
images/fcloud80-20_D1.2_9.tif,1.2,2,,,,,,,,,,,,,0,27,27,114,,,,,,,,,,,3,None,1,0.787,,,,,,,,,,,,,,,,,,,2019_Mar_13_1614,60.247496717011906,Cloud_Experiment_FR_REAL,001,23,
images/fcloud65-35_D1.2_8.tif,1.2,1,,,,,,,,,,,,,0,28,28,65,,,,,,,,,,,2,space,1,0.652,2.1975898,,,,,,,,,,,,,,,,,,2019_Mar_13_1614,60.247496717011906,Cloud_Experiment_FR_REAL,001,23,
images/fcloud_D0.9_9.tif,0.9,0,,,,,,,,,,,,,0,29,29,6,,,,,,,,,,,4,None,3,0.736,,,,,,,,,,,,,,,,,,,2019_Mar_13_1614,60.247496717011906,Cloud_Experiment_FR_REAL,001,23,
images/fcloud80-20_D1.5_9.tif,1.5,2,,,,,,,,,,,,,0,30,30,126,,,,,,,,,,,3,None,2,0.983,,,,,,,,,,,,,,,,,,,2019_Mar_13_1614,60.247496717011906,Cloud_Experiment_FR_REAL,001,23,
images/fcloud65-35_D1.8_9.tif,1.8,1,,,,,,,,,,,,,0,31,31,90,,,,,,,,,,,2,None,1,0.535,,,,,,,,,,,,,,,,,,,2019_Mar_13_1614,60.247496717011906,Cloud_Experiment_FR_REAL,001,23,
images/fcloud_D1.1_9.tif,1.1,0,,,,,,,,,,,,,0,32,32,14,,,,,,,,,,,3,space,2,0.568,1.260873,,,,,,,,,,,,,,,,,,2019_Mar_13_1614,60.247496717011906,Cloud_Experiment_FR_REAL,001,23,
images/fcloud_D1_8.tif,1.0,0,,,,,,,,,,,,,0,33,33,9,,,,,,,,,,,2,None,3,2.2,,,,,,,,,,,,,,,,,,,2019_Mar_13_1614,60.247496717011906,Cloud_Experiment_FR_REAL,001,23,
images/fcloud80-20_D1.6_7.tif,1.6,2,,,,,,,,,,,,,0,34,34,128,,,,,,,,,,,2,None,3,1.517,,,,,,,,,,,,,,,,,,,2019_Mar_13_1614,60.247496717011906,Cloud_Experiment_FR_REAL,001,23,
images/fcloud_D1.9_10.tif,1.9,0,,,,,,,,,,,,,0,35,35,47,,,,,,,,,,,2,None,1,0.454,,,,,,,,,,,,,,,,,,,2019_Mar_13_1614,60.247496717011906,Cloud_Experiment_FR_REAL,001,23,
images/fcloud65-35_D1.2_10.tif,1.2,1,,,,,,,,,,,,,0,36,36,67,,,,,,,,,,,2,None,1,0.753,,,,,,,,,,,,,,,,,,,2019_Mar_13_1614,60.247496717011906,Cloud_Experiment_FR_REAL,001,23,
images/fcloud80-20_D0.8_8.tif,0.8,2,,,,,,,,,,,,,0,37,37,97,,,,,,,,,,,2,None,4,1.002,,,,,,,,,,,,,,,,,,,2019_Mar_13_1614,60.247496717011906,Cloud_Experiment_FR_REAL,001,23,
images/fcloud65-35_D1_7.tif,1.0,1,,,,,,,,,,,,,0,38,38,56,,,,,,,,,,,2,None,1,0.419,,,,,,,,,,,,,,,,,,,2019_Mar_13_1614,60.247496717011906,Cloud_Experiment_FR_REAL,001,23,
images/fcloud65-35_D1.6_8.tif,1.6,1,,,,,,,,,,,,,0,39,39,81,,,,,,,,,,,None,None,None,10.193,,,,,,,,,,,,,,,,,,,2019_Mar_13_1614,60.247496717011906,Cloud_Experiment_FR_REAL,001,23,
images/fcloud_D0.8_10.tif,0.8,0,,,,,,,,,,,,,0,40,40,3,,,,,,,,,,,1,None,3,0.586,,,,,,,,,,,,,,,,,,,2019_Mar_13_1614,60.247496717011906,Cloud_Experiment_FR_REAL,001,23,
images/fcloud65-35_D1.2_7.tif,1.2,1,,,,,,,,,,,,,0,41,41,64,,,,,,,,,,,None,None,None,8.977,,,,,,,,,,,,,,,,,,,2019_Mar_13_1614,60.247496717011906,Cloud_Experiment_FR_REAL,001,23,
images/fcloud65-35_D1.9_10.tif,1.9,1,,,,,,,,,,,,,0,42,42,95,,,,,,,,,,,None,None,None,17.252,,,,,,,,,,,,,,,,,,,2019_Mar_13_1614,60.247496717011906,Cloud_Experiment_FR_REAL,001,23,
images/fcloud80-20_D1.2_7.tif,1.2,2,,,,,,,,,,,,,0,43,43,112,,,,,,,,,,,None,None,None,32.639,,,,,,,,,,,,,,,,,,,2019_Mar_13_1614,60.247496717011906,Cloud_Experiment_FR_REAL,001,23,
images/fcloud_D1.4_8.tif,1.4,0,,,,,,,,,,,,,0,44,44,25,,,,,,,,,,,2,space,5,0.435,2.15281129999,,,,,,,,,,,,,,,,,,2019_Mar_13_1614,60.247496717011906,Cloud_Experiment_FR_REAL,001,23,
images/fcloud80-20_D1.2_10.tif,1.2,2,,,,,,,,,,,,,0,45,45,115,,,,,,,,,,,1,None,1,0.419,,,,,,,,,,,,,,,,,,,2019_Mar_13_1614,60.247496717011906,Cloud_Experiment_FR_REAL,001,23,
images/fcloud_D1.5_7.tif,1.5,0,,,,,,,,,,,,,0,46,46,28,,,,,,,,,,,2,space,1,0.453,1.0622548,,,,,,,,,,,,,,,,,,2019_Mar_13_1614,60.247496717011906,Cloud_Experiment_FR_REAL,001,23,
images/fcloud80-20_D1.8_9.tif,1.8,2,,,,,,,,,,,,,0,47,47,138,,,,,,,,,,,None,None,None,10.142,,,,,,,,,,,,,,,,,,,2019_Mar_13_1614,60.247496717011906,Cloud_Experiment_FR_REAL,001,23,
images/fcloud80-20_D1.8_10.tif,1.8,2,,,,,,,,,,,,,0,48,48,139,,,,,,,,,,,None,None,None,19.602,,,,,,,,,,,,,,,,,,,2019_Mar_13_1614,60.247496717011906,Cloud_Experiment_FR_REAL,001,23,
images/fcloud_D1.2_9.tif,1.2,0,,,,,,,,,,,,,0,49,49,18,,,,,,,,,,,1,None,1,1.519,,,,,,,,,,,,,,,,,,,2019_Mar_13_1614,60.247496717011906,Cloud_Experiment_FR_REAL,001,23,
images/fcloud_D1.3_8.tif,1.3,0,,,,,,,,,,,,,0,50,50,21,,,,,,,,,,,4,None,1,1.469,,,,,,,,,,,,,,,,,,,2019_Mar_13_1614,60.247496717011906,Cloud_Experiment_FR_REAL,001,23,
images/fcloud65-35_D1.3_9.tif,1.3,1,,,,,,,,,,,,,0,51,51,70,,,,,,,,,,,3,space,1,0.734,1.2649228,,,,,,,,,,,,,,,,,,2019_Mar_13_1614,60.247496717011906,Cloud_Experiment_FR_REAL,001,23,
images/fcloud80-20_D1.3_10.tif,1.3,2,,,,,,,,,,,,,0,52,52,119,,,,,,,,,,,1,None,1,0.452,,,,,,,,,,,,,,,,,,,2019_Mar_13_1614,60.247496717011906,Cloud_Experiment_FR_REAL,001,23,
images/fcloud65-35_D1.5_9.tif,1.5,1,,,,,,,,,,,,,0,53,53,78,,,,,,,,,,,3,None,2,0.685,,,,,,,,,,,,,,,,,,,2019_Mar_13_1614,60.247496717011906,Cloud_Experiment_FR_REAL,001,23,
images/fcloud_D1.7_8.tif,1.7,0,,,,,,,,,,,,,0,54,54,37,,,,,,,,,,,None,None,None,10.707,,,,,,,,,,,,,,,,,,,2019_Mar_13_1614,60.247496717011906,Cloud_Experiment_FR_REAL,001,23,
images/fcloud65-35_D1.4_7.tif,1.4,1,,,,,,,,,,,,,0,55,55,72,,,,,,,,,,,None,None,None,22.233,,,,,,,,,,,,,,,,,,,2019_Mar_13_1614,60.247496717011906,Cloud_Experiment_FR_REAL,001,23,
images/fcloud80-20_D1_8.tif,1.0,2,,,,,,,,,,,,,0,56,56,105,,,,,,,,,,,None,None,None,31.741,,,,,,,,,,,,,,,,,,,2019_Mar_13_1614,60.247496717011906,Cloud_Experiment_FR_REAL,001,23,
images/fcloud65-35_D1.5_7.tif,1.5,1,,,,,,,,,,,,,0,57,57,76,,,,,,,,,,,None,None,None,41.032,,,,,,,,,,,,,,,,,,,2019_Mar_13_1614,60.247496717011906,Cloud_Experiment_FR_REAL,001,23,
images/fcloud_D1.6_7.tif,1.6,0,,,,,,,,,,,,,0,58,58,32,,,,,,,,,,,2,space,1,2.049,1.8360905,,,,,,,,,,,,,,,,,,2019_Mar_13_1614,60.247496717011906,Cloud_Experiment_FR_REAL,001,23,
images/fcloud_D1.8_10.tif,1.8,0,,,,,,,,,,,,,0,59,59,43,,,,,,,,,,,None,None,None,11.224,,,,,,,,,,,,,,,,,,,2019_Mar_13_1614,60.247496717011906,Cloud_Experiment_FR_REAL,001,23,
images/fcloud_D1.8_7.tif,1.8,0,,,,,,,,,,,,,0,60,60,40,,,,,,,,,,,None,None,None,20.917,,,,,,,,,,,,,,,,,,,2019_Mar_13_1614,60.247496717011906,Cloud_Experiment_FR_REAL,001,23,
images/fcloud65-35_D0.9_8.tif,0.9,1,,,,,,,,,,,,,0,61,61,53,,,,,,,,,,,None,None,None,31.006,,,,,,,,,,,,,,,,,,,2019_Mar_13_1614,60.247496717011906,Cloud_Experiment_FR_REAL,001,23,
images/fcloud80-20_D1.8_8.tif,1.8,2,,,,,,,,,,,,,0,62,62,137,,,,,,,,,,,None,None,None,40.265,,,,,,,,,,,,,,,,,,,2019_Mar_13_1614,60.247496717011906,Cloud_Experiment_FR_REAL,001,23,
images/fcloud65-35_D1.9_7.tif,1.9,1,,,,,,,,,,,,,0,63,63,92,,,,,,,,,,,2,space,1,1.317,5.7036159,,,,,,,,,,,,,,,,,,2019_Mar_13_1614,60.247496717011906,Cloud_Experiment_FR_REAL,001,23,
images/fcloud_D1_9.tif,1.0,0,,,,,,,,,,,,,0,64,64,10,,,,,,,,,,,2,None,3,0.753,,,,,,,,,,,,,,,,,,,2019_Mar_13_1614,60.247496717011906,Cloud_Experiment_FR_REAL,001,23,
images/fcloud65-35_D1.3_7.tif,1.3,1,,,,,,,,,,,,,0,65,65,68,,,,,,,,,,,1,None,2,0.669,,,,,,,,,,,,,,,,,,,2019_Mar_13_1614,60.247496717011906,Cloud_Experiment_FR_REAL,001,23,
images/fcloud65-35_D1.7_7.tif,1.7,1,,,,,,,,,,,,,0,66,66,84,,,,,,,,,,,None,None,None,10.161,,,,,,,,,,,,,,,,,,,2019_Mar_13_1614,60.247496717011906,Cloud_Experiment_FR_REAL,001,23,
images/fcloud80-20_D1.4_9.tif,1.4,2,,,,,,,,,,,,,0,67,67,122,,,,,,,,,,,None,None,None,19.118,,,,,,,,,,,,,,,,,,,2019_Mar_13_1614,60.247496717011906,Cloud_Experiment_FR_REAL,001,23,
images/fcloud80-20_D0.8_10.tif,0.8,2,,,,,,,,,,,,,0,68,68,99,,,,,,,,,,,None,None,None,28.328,,,,,,,,,,,,,,,,,,,2019_Mar_13_1614,60.247496717011906,Cloud_Experiment_FR_REAL,001,23,
images/fcloud_D0.9_8.tif,0.9,0,,,,,,,,,,,,,0,69,69,5,,,,,,,,,,,1,space,2,0.42,0.760698999999,,,,,,,,,,,,,,,,,,2019_Mar_13_1614,60.247496717011906,Cloud_Experiment_FR_REAL,001,23,
images/fcloud_D1.1_10.tif,1.1,0,,,,,,,,,,,,,0,70,70,15,,,,,,,,,,,3,None,1,0.419,,,,,,,,,,,,,,,,,,,2019_Mar_13_1614,60.247496717011906,Cloud_Experiment_FR_REAL,001,23,
images/fcloud65-35_D1.4_9.tif,1.4,1,,,,,,,,,,,,,0,71,71,74,,,,,,,,,,,None,None,None,8.844,,,,,,,,,,,,,,,,,,,2019_Mar_13_1614,60.247496717011906,Cloud_Experiment_FR_REAL,001,23,
images/fcloud80-20_D1.1_9.tif,1.1,2,,,,,,,,,,,,,0,72,72,110,,,,,,,,,,,None,None,None,18.368,,,,,,,,,,,,,,,,,,,2019_Mar_13_1614,60.247496717011906,Cloud_Experiment_FR_REAL,001,23,
images/fcloud_D1.6_9.tif,1.6,0,,,,,,,,,,,,,0,73,73,34,,,,,,,,,,,None,None,None,27.43,,,,,,,,,,,,,,,,,,,2019_Mar_13_1614,60.247496717011906,Cloud_Experiment_FR_REAL,001,23,
images/fcloud80-20_D1.6_9.tif,1.6,2,,,,,,,,,,,,,0,74,74,130,,,,,,,,,,,1,None,2,1.135,,,,,,,,,,,,,,,,,,,2019_Mar_13_1614,60.247496717011906,Cloud_Experiment_FR_REAL,001,23,
images/fcloud65-35_D1.8_7.tif,1.8,1,,,,,,,,,,,,,0,75,75,88,,,,,,,,,,,None,None,None,11.875,,,,,,,,,,,,,,,,,,,2019_Mar_13_1614,60.247496717011906,Cloud_Experiment_FR_REAL,001,23,
images/fcloud65-35_D1.2_9.tif,1.2,1,,,,,,,,,,,,,0,76,76,66,,,,,,,,,,,None,None,None,24.097,,,,,,,,,,,,,,,,,,,2019_Mar_13_1614,60.247496717011906,Cloud_Experiment_FR_REAL,001,23,
images/fcloud80-20_D1.3_7.tif,1.3,2,,,,,,,,,,,,,0,77,77,116,,,,,,,,,,,None,None,None,33.356,,,,,,,,,,,,,,,,,,,2019_Mar_13_1614,60.247496717011906,Cloud_Experiment_FR_REAL,001,23,
images/fcloud65-35_D1.8_10.tif,1.8,1,,,,,,,,,,,,,0,78,78,91,,,,,,,,,,,None,None,None,43.598,,,,,,,,,,,,,,,,,,,2019_Mar_13_1614,60.247496717011906,Cloud_Experiment_FR_REAL,001,23,
images/fcloud65-35_D1.3_10.tif,1.3,1,,,,,,,,,,,,,0,79,79,71,,,,,,,,,,,None,None,None,52.855,,,,,,,,,,,,,,,,,,,2019_Mar_13_1614,60.247496717011906,Cloud_Experiment_FR_REAL,001,23,
images/fcloud_D1.4_7.tif,1.4,0,,,,,,,,,,,,,0,80,80,24,,,,,,,,,,,None,None,None,62.213,,,,,,,,,,,,,,,,,,,2019_Mar_13_1614,60.247496717011906,Cloud_Experiment_FR_REAL,001,23,
images/fcloud80-20_D1.5_10.tif,1.5,2,,,,,,,,,,,,,0,81,81,127,,,,,,,,,,,None,None,None,79.465,,,,,,,,,,,,,,,,,,,2019_Mar_13_1614,60.247496717011906,Cloud_Experiment_FR_REAL,001,23,
images/fcloud80-20_D1.3_8.tif,1.3,2,,,,,,,,,,,,,0,82,82,117,,,,,,,,,,,2,None,1,1.151,,,,,,,,,,,,,,,,,,,2019_Mar_13_1614,60.247496717011906,Cloud_Experiment_FR_REAL,001,23,
images/fcloud65-35_D1.9_9.tif,1.9,1,,,,,,,,,,,,,0,83,83,94,,,,,,,,,,,1,None,1,0.602,,,,,,,,,,,,,,,,,,,2019_Mar_13_1614,60.247496717011906,Cloud_Experiment_FR_REAL,001,23,
images/fcloud65-35_D1.1_9.tif,1.1,1,,,,,,,,,,,,,0,84,84,62,,,,,,,,,,,1,space,2,0.652,6.343066,,,,,,,,,,,,,,,,,,2019_Mar_13_1614,60.247496717011906,Cloud_Experiment_FR_REAL,001,23,
images/fcloud65-35_D0.8_9.tif,0.8,1,,,,,,,,,,,,,0,85,85,50,,,,,,,,,,,1,None,2,0.668,,,,,,,,,,,,,,,,,,,2019_Mar_13_1614,60.247496717011906,Cloud_Experiment_FR_REAL,001,23,
images/fcloud_D1.3_10.tif,1.3,0,,,,,,,,,,,,,0,86,86,23,,,,,,,,,,,1,space,2,0.536,2.0786317,,,,,,,,,,,,,,,,,,2019_Mar_13_1614,60.247496717011906,Cloud_Experiment_FR_REAL,001,23,
images/fcloud80-20_D1.1_7.tif,1.1,2,,,,,,,,,,,,,0,87,87,108,,,,,,,,,,,1,space,2,0.519,6.0072029,,,,,,,,,,,,,,,,,,2019_Mar_13_1614,60.247496717011906,Cloud_Experiment_FR_REAL,001,23,
images/fcloud_D1.8_8.tif,1.8,0,,,,,,,,,,,,,0,88,88,41,,,,,,,,,,,1,space,2,1.601,2.2359492,,,,,,,,,,,,,,,,,,2019_Mar_13_1614,60.247496717011906,Cloud_Experiment_FR_REAL,001,23,
images/fcloud_D1.1_8.tif,1.1,0,,,,,,,,,,,,,0,89,89,13,,,,,,,,,,,1,space,2,0.453,1.18909370001,,,,,,,,,,,,,,,,,,2019_Mar_13_1614,60.247496717011906,Cloud_Experiment_FR_REAL,001,23,
images/fcloud65-35_D1.1_7.tif,1.1,1,,,,,,,,,,,,,0,90,90,60,,,,,,,,,,,1,None,2,0.451,,,,,,,,,,,,,,,,,,,2019_Mar_13_1614,60.247496717011906,Cloud_Experiment_FR_REAL,001,23,
images/fcloud65-35_D1.4_10.tif,1.4,1,,,,,,,,,,,,,0,91,91,75,,,,,,,,,,,None,None,None,18.503,,,,,,,,,,,,,,,,,,,2019_Mar_13_1614,60.247496717011906,Cloud_Experiment_FR_REAL,001,23,
images/fcloud80-20_D1.7_8.tif,1.7,2,,,,,,,,,,,,,0,92,92,133,,,,,,,,,,,None,None,None,32.705,,,,,,,,,,,,,,,,,,,2019_Mar_13_1614,60.247496717011906,Cloud_Experiment_FR_REAL,001,23,
images/fcloud_D1.3_9.tif,1.3,0,,,,,,,,,,,,,0,93,93,22,,,,,,,,,,,None,space,None,41.964,1.8489054,,,,,,,,,,,,,,,,,,2019_Mar_13_1614,60.247496717011906,Cloud_Experiment_FR_REAL,001,23,
images/fcloud_D1.8_9.tif,1.8,0,,,,,,,,,,,,,0,94,94,42,,,,,,,,,,,1,space,1,1.185,5.1567781,,,,,,,,,,,,,,,,,,2019_Mar_13_1614,60.247496717011906,Cloud_Experiment_FR_REAL,001,23,
images/fcloud_D1.5_8.tif,1.5,0,,,,,,,,,,,,,0,95,95,29,,,,,,,,,,,2,None,1,1.385,,,,,,,,,,,,,,,,,,,2019_Mar_13_1614,60.247496717011906,Cloud_Experiment_FR_REAL,001,23,
images/fcloud80-20_D1.5_7.tif,1.5,2,,,,,,,,,,,,,0,96,96,124,,,,,,,,,,,None,None,None,11.027,,,,,,,,,,,,,,,,,,,2019_Mar_13_1614,60.247496717011906,Cloud_Experiment_FR_REAL,001,23,
images/fcloud_D0.8_9.tif,0.8,0,,,,,,,,,,,,,0,97,97,2,,,,,,,,,,,1,None,2,0.553,,,,,,,,,,,,,,,,,,,2019_Mar_13_1614,60.247496717011906,Cloud_Experiment_FR_REAL,001,23,
images/fcloud_D0.8_8.tif,0.8,0,,,,,,,,,,,,,0,98,98,1,,,,,,,,,,,2,None,1,0.405,,,,,,,,,,,,,,,,,,,2019_Mar_13_1614,60.247496717011906,Cloud_Experiment_FR_REAL,001,23,
images/fcloud65-35_D1.6_10.tif,1.6,1,,,,,,,,,,,,,0,99,99,83,,,,,,,,,,,2,None,1,0.768,,,,,,,,,,,,,,,,,,,2019_Mar_13_1614,60.247496717011906,Cloud_Experiment_FR_REAL,001,23,
images/fcloud_D1.4_10.tif,1.4,0,,,,,,,,,,,,,0,100,100,27,,,,,,,,,,,None,None,None,14.905,,,,,,,,,,,,,,,,,,,2019_Mar_13_1614,60.247496717011906,Cloud_Experiment_FR_REAL,001,23,
images/fcloud_D1.6_10.tif,1.6,0,,,,,,,,,,,,,0,101,101,35,,,,,,,,,,,2,None,1,0.485,,,,,,,,,,,,,,,,,,,2019_Mar_13_1614,60.247496717011906,Cloud_Experiment_FR_REAL,001,23,
images/fcloud80-20_D1.9_7.tif,1.9,2,,,,,,,,,,,,,0,102,102,140,,,,,,,,,,,1,None,1,1.221,,,,,,,,,,,,,,,,,,,2019_Mar_13_1614,60.247496717011906,Cloud_Experiment_FR_REAL,001,23,
images/fcloud_D1.7_9.tif,1.7,0,,,,,,,,,,,,,0,103,103,38,,,,,,,,,,,None,None,None,10.259,,,,,,,,,,,,,,,,,,,2019_Mar_13_1614,60.247496717011906,Cloud_Experiment_FR_REAL,001,23,
images/fcloud80-20_D0.9_9.tif,0.9,2,,,,,,,,,,,,,0,104,104,102,,,,,,,,,,,None,None,None,18.902,,,,,,,,,,,,,,,,,,,2019_Mar_13_1614,60.247496717011906,Cloud_Experiment_FR_REAL,001,23,
images/fcloud80-20_D1.1_10.tif,1.1,2,,,,,,,,,,,,,0,105,105,111,,,,,,,,,,,1,space,1,0.417,5.8035282,,,,,,,,,,,,,,,,,,2019_Mar_13_1614,60.247496717011906,Cloud_Experiment_FR_REAL,001,23,
images/fcloud65-35_D0.9_9.tif,0.9,1,,,,,,,,,,,,,0,106,106,54,,,,,,,,,,,None,None,None,10.574,,,,,,,,,,,,,,,,,,,2019_Mar_13_1614,60.247496717011906,Cloud_Experiment_FR_REAL,001,23,
images/fcloud80-20_D1.6_10.tif,1.6,2,,,,,,,,,,,,,0,107,107,131,,,,,,,,,,,None,None,None,19.566,,,,,,,,,,,,,,,,,,,2019_Mar_13_1614,60.247496717011906,Cloud_Experiment_FR_REAL,001,23,
images/fcloud_D1.9_8.tif,1.9,0,,,,,,,,,,,,,0,108,108,45,,,,,,,,,,,2,space,1,0.651,1.630384,,,,,,,,,,,,,,,,,,2019_Mar_13_1614,60.247496717011906,Cloud_Experiment_FR_REAL,001,23,
images/fcloud_D1.7_10.tif,1.7,0,,,,,,,,,,,,,0,109,109,39,,,,,,,,,,,1,None,2,0.951,,,,,,,,,,,,,,,,,,,2019_Mar_13_1614,60.247496717011906,Cloud_Experiment_FR_REAL,001,23,
images/fcloud65-35_D1.6_7.tif,1.6,1,,,,,,,,,,,,,0,110,110,80,,,,,,,,,,,None,None,None,9.894,,,,,,,,,,,,,,,,,,,2019_Mar_13_1614,60.247496717011906,Cloud_Experiment_FR_REAL,001,23,
images/fcloud65-35_D1.9_8.tif,1.9,1,,,,,,,,,,,,,0,111,111,93,,,,,,,,,,,None,None,None,18.868,,,,,,,,,,,,,,,,,,,2019_Mar_13_1614,60.247496717011906,Cloud_Experiment_FR_REAL,001,23,
images/fcloud80-20_D0.9_7.tif,0.9,2,,,,,,,,,,,,,0,112,112,100,,,,,,,,,,,1,space,1,0.685,1.4625705,,,,,,,,,,,,,,,,,,2019_Mar_13_1614,60.247496717011906,Cloud_Experiment_FR_REAL,001,23,
images/fcloud65-35_D1.8_8.tif,1.8,1,,,,,,,,,,,,,0,113,113,89,,,,,,,,,,,None,None,None,9.043,,,,,,,,,,,,,,,,,,,2019_Mar_13_1614,60.247496717011906,Cloud_Experiment_FR_REAL,001,23,
images/fcloud65-35_D1.3_8.tif,1.3,1,,,,,,,,,,,,,0,114,114,69,,,,,,,,,,,1,space,3,0.868,3.4901893,,,,,,,,,,,,,,,,,,2019_Mar_13_1614,60.247496717011906,Cloud_Experiment_FR_REAL,001,23,
images/fcloud80-20_D1.4_7.tif,1.4,2,,,,,,,,,,,,,0,115,115,120,,,,,,,,,,,2,None,1,1.736,,,,,,,,,,,,,,,,,,,2019_Mar_13_1614,60.247496717011906,Cloud_Experiment_FR_REAL,001,23,
images/fcloud65-35_D0.8_10.tif,0.8,1,,,,,,,,,,,,,0,116,116,51,,,,,,,,,,,1,space,2,0.483,4.0803077,,,,,,,,,,,,,,,,,,2019_Mar_13_1614,60.247496717011906,Cloud_Experiment_FR_REAL,001,23,
images/fcloud80-20_D1.7_7.tif,1.7,2,,,,,,,,,,,,,0,117,117,132,,,,,,,,,,,None,None,None,9.175,,,,,,,,,,,,,,,,,,,2019_Mar_13_1614,60.247496717011906,Cloud_Experiment_FR_REAL,001,23,
images/fcloud_D0.8_7.tif,0.8,0,,,,,,,,,,,,,0,118,118,0,,,,,,,,,,,2,space,3,0.718,6.72234019999,,,,,,,,,,,,,,,,,,2019_Mar_13_1614,60.247496717011906,Cloud_Experiment_FR_REAL,001,23,
images/fcloud65-35_D1_8.tif,1.0,1,,,,,,,,,,,,,0,119,119,57,,,,,,,,,,,1,None,2,0.683,,,,,,,,,,,,,,,,,,,2019_Mar_13_1614,60.247496717011906,Cloud_Experiment_FR_REAL,001,23,
images/fcloud65-35_D0.9_10.tif,0.9,1,,,,,,,,,,,,,0,120,120,55,,,,,,,,,,,2,space,1,0.471,4.6772522,,,,,,,,,,,,,,,,,,2019_Mar_13_1614,60.247496717011906,Cloud_Experiment_FR_REAL,001,23,
images/fcloud80-20_D1.7_10.tif,1.7,2,,,,,,,,,,,,,0,121,121,135,,,,,,,,,,,None,None,None,9.758,,,,,,,,,,,,,,,,,,,2019_Mar_13_1614,60.247496717011906,Cloud_Experiment_FR_REAL,001,23,
images/fcloud65-35_D1_10.tif,1.0,1,,,,,,,,,,,,,0,122,122,59,,,,,,,,,,,1,None,2,1.102,,,,,,,,,,,,,,,,,,,2019_Mar_13_1614,60.247496717011906,Cloud_Experiment_FR_REAL,001,23,
images/fcloud65-35_D1.1_10.tif,1.1,1,,,,,,,,,,,,,0,123,123,63,,,,,,,,,,,2,None,1,0.985,,,,,,,,,,,,,,,,,,,2019_Mar_13_1614,60.247496717011906,Cloud_Experiment_FR_REAL,001,23,
images/fcloud80-20_D1.7_9.tif,1.7,2,,,,,,,,,,,,,0,124,124,134,,,,,,,,,,,None,None,None,11.242,,,,,,,,,,,,,,,,,,,2019_Mar_13_1614,60.247496717011906,Cloud_Experiment_FR_REAL,001,23,
images/fcloud80-20_D1_10.tif,1.0,2,,,,,,,,,,,,,0,125,125,107,,,,,,,,,,,None,None,None,26.613,,,,,,,,,,,,,,,,,,,2019_Mar_13_1614,60.247496717011906,Cloud_Experiment_FR_REAL,001,23,
images/fcloud_D1_7.tif,1.0,0,,,,,,,,,,,,,0,126,126,8,,,,,,,,,,,2,None,3,1.067,,,,,,,,,,,,,,,,,,,2019_Mar_13_1614,60.247496717011906,Cloud_Experiment_FR_REAL,001,23,
images/fcloud80-20_D1.9_9.tif,1.9,2,,,,,,,,,,,,,0,127,127,142,,,,,,,,,,,None,None,None,11.274,,,,,,,,,,,,,,,,,,,2019_Mar_13_1614,60.247496717011906,Cloud_Experiment_FR_REAL,001,23,
images/fcloud_D1.2_10.tif,1.2,0,,,,,,,,,,,,,0,128,128,19,,,,,,,,,,,1,None,2,0.486,,,,,,,,,,,,,,,,,,,2019_Mar_13_1614,60.247496717011906,Cloud_Experiment_FR_REAL,001,23,
images/fcloud80-20_D1_9.tif,1.0,2,,,,,,,,,,,,,0,129,129,106,,,,,,,,,,,None,None,None,17.769,,,,,,,,,,,,,,,,,,,2019_Mar_13_1614,60.247496717011906,Cloud_Experiment_FR_REAL,001,23,
images/fcloud_D1.9_9.tif,1.9,0,,,,,,,,,,,,,0,130,130,46,,,,,,,,,,,2,space,3,0.836,6.4950002,,,,,,,,,,,,,,,,,,2019_Mar_13_1614,60.247496717011906,Cloud_Experiment_FR_REAL,001,23,
images/fcloud80-20_D1.6_8.tif,1.6,2,,,,,,,,,,,,,0,131,131,129,,,,,,,,,,,None,None,None,9.277,,,,,,,,,,,,,,,,,,,2019_Mar_13_1614,60.247496717011906,Cloud_Experiment_FR_REAL,001,23,
images/fcloud65-35_D1.5_8.tif,1.5,1,,,,,,,,,,,,,0,132,132,77,,,,,,,,,,,None,None,None,24.747,,,,,,,,,,,,,,,,,,,2019_Mar_13_1614,60.247496717011906,Cloud_Experiment_FR_REAL,001,23,
images/fcloud_D1.5_10.tif,1.5,0,,,,,,,,,,,,,0,133,133,31,,,,,,,,,,,2,space,3,1.135,2.0280129,,,,,,,,,,,,,,,,,,2019_Mar_13_1614,60.247496717011906,Cloud_Experiment_FR_REAL,001,23,
images/fcloud65-35_D1.5_10.tif,1.5,1,,,,,,,,,,,,,0,134,134,79,,,,,,,,,,,2,space,1,1.369,2.4053394,,,,,,,,,,,,,,,,,,2019_Mar_13_1614,60.247496717011906,Cloud_Experiment_FR_REAL,001,23,
images/fcloud65-35_D1.7_8.tif,1.7,1,,,,,,,,,,,,,0,135,135,85,,,,,,,,,,,None,None,None,21.232,,,,,,,,,,,,,,,,,,,2019_Mar_13_1614,60.247496717011906,Cloud_Experiment_FR_REAL,001,23,
images/fcloud80-20_D1.4_8.tif,1.4,2,,,,,,,,,,,,,0,136,136,121,,,,,,,,,,,None,None,None,31.841,,,,,,,,,,,,,,,,,,,2019_Mar_13_1614,60.247496717011906,Cloud_Experiment_FR_REAL,001,23,
images/fcloud80-20_D1.4_10.tif,1.4,2,,,,,,,,,,,,,0,137,137,123,,,,,,,,,,,None,None,None,43.896,,,,,,,,,,,,,,,,,,,2019_Mar_13_1614,60.247496717011906,Cloud_Experiment_FR_REAL,001,23,
images/fcloud_D0.9_7.tif,0.9,0,,,,,,,,,,,,,0,138,138,4,,,,,,,,,,,1,None,2,0.553,,,,,,,,,,,,,,,,,,,2019_Mar_13_1614,60.247496717011906,Cloud_Experiment_FR_REAL,001,23,
images/fcloud_D1.3_7.tif,1.3,0,,,,,,,,,,,,,0,139,139,20,,,,,,,,,,,1,None,1,0.584,,,,,,,,,,,,,,,,,,,2019_Mar_13_1614,60.247496717011906,Cloud_Experiment_FR_REAL,001,23,
images/fcloud_D1.6_8.tif,1.6,0,,,,,,,,,,,,,0,140,140,33,,,,,,,,,,,2,None,3,1.501,,,,,,,,,,,,,,,,,,,2019_Mar_13_1614,60.247496717011906,Cloud_Experiment_FR_REAL,001,23,
images/fcloud80-20_D1.9_10.tif,1.9,2,,,,,,,,,,,,,0,141,141,143,,,,,,,,,,,None,None,None,11.16,,,,,,,,,,,,,,,,,,,2019_Mar_13_1614,60.247496717011906,Cloud_Experiment_FR_REAL,001,23,
images/fcloud_D1.1_7.tif,1.1,0,,,,,,,,,,,,,0,142,142,12,,,,,,,,,,,3,space,2,0.52,1.6635888,,,,,,,,,,,,,,,,,,2019_Mar_13_1614,60.247496717011906,Cloud_Experiment_FR_REAL,001,23,
images/fcloud65-35_D0.8_8.tif,0.8,1,,,,,,,,,,,,,0,143,143,49,,,,,,,,,,,None,None,None,13.705,,,,,,,,,,,,,,,,,,,2019_Mar_13_1614,60.247496717011906,Cloud_Experiment_FR_REAL,001,23,
,,,,,,,,,,,,,,,,,,,,,,,,,1,9.787,,,,,,,,,,,,,,,,,,,,,,,,,2019_Mar_13_1614,60.247496717011906,Cloud_Experiment_FR_REAL,001,23,
,,,,,,,,,,,,,,,,,,,,,,,,,,,,,,,,,,1,,,,,,,,,,,,,,,,,2019_Mar_13_1614,60.247496717011906,Cloud_Experiment_FR_REAL,001,23,
,,,,,,,,,,,,,,,,,,,,,,,,,,,,,,,,,,,1,,,,,,,,,,,,,,,,2019_Mar_13_1614,60.247496717011906,Cloud_Experiment_FR_REAL,001,23,
,,,,,,,,,,,,,,,,,,,,,,,,,,,,,,,,,,,,1,,,,,,,,,,,,,,,2019_Mar_13_1614,60.247496717011906,Cloud_Experiment_FR_REAL,001,23,
,,,,,,,,,,,,,,,,,,,,,,,,,,,,,,,,,,,,,1,,,,,,,,,,,,,,2019_Mar_13_1614,60.247496717011906,Cloud_Experiment_FR_REAL,001,23,
,,,,,,,,,,,,,,,,,,,,,,,,,,,,,,,,,,,,,,1,,,,,,,,,,,,,2019_Mar_13_1614,60.247496717011906,Cloud_Experiment_FR_REAL,001,23,
,,,,,,,,,,,,,,,,,,,,,,,,,,,,,,,,,,,,,,,1,,,,,,,,,,,,2019_Mar_13_1614,60.247496717011906,Cloud_Experiment_FR_REAL,001,23,
,,,,,,,,,,,,,,,,,,,,,,,,,,,,,,,,,,,,,,,,1,,,,,,,,,,,2019_Mar_13_1614,60.247496717011906,Cloud_Experiment_FR_REAL,001,23,
,,,,,,,,,,,,,,,,,,,,,,,,,,,,,,,,,,,,,,,,,7,,,,,,,,,,2019_Mar_13_1614,60.247496717011906,Cloud_Experiment_FR_REAL,001,23,
,,,,,,,,,,,,,,,,,,,,,,,,,,,,,,,,,,,,,,,,,,1,,,,,,,,,2019_Mar_13_1614,60.247496717011906,Cloud_Experiment_FR_REAL,001,23,
,,,,,,,,,,,,,,,,,,,,,,,,,,,,,,,,,,,,,,,,,,,1,,,,,,,,2019_Mar_13_1614,60.247496717011906,Cloud_Experiment_FR_REAL,001,23,
,,,,,,,,,,,,,,,,,,,,,,,,,,,,,,,,,,,,,,,,,,,,,,,,,,1,2019_Mar_13_1614,60.247496717011906,Cloud_Experiment_FR_REAL,001,23,
