ImageFile,FD,Contrast,trials_4.thisRepN,trials_4.thisTrialN,trials_4.thisN,trials_4.thisIndex,trials.thisRepN,trials.thisTrialN,trials.thisN,trials.thisIndex,trials_2.thisRepN,trials_2.thisTrialN,trials_2.thisN,trials_2.thisIndex,trials_3.thisRepN,trials_3.thisTrialN,trials_3.thisN,trials_3.thisIndex,end_instructions.keys,end_instructions.rt,key_resp_4.keys,key_resp_4.rt,key_resp_6.keys,key_resp_6.rt,Fatigue.response,Fatigue.rt,key_resp_5.keys,key_resp_5.rt,n_objets.response,reaction_time.keys,vividness.response,vividness.rt,reaction_time.rt,Flow01.response,Flow02.response,Flow03.response,Flow04.response,Flow05.response,Flow06.response,Flow07.response,Flow08.response,Flow09.response,Flow10.response,key_resp_2.keys,key_resp_2.rt,key_resp_8.keys,key_resp_8.rt,key_resp_3.keys,key_resp_3.rt,Redondance_question.response,date,frameRate,expName,session,participant,
,,,,,,,,,,,,,,,,,,,space,11.1713603,,,,,,,,,,,,,,,,,,,,,,,,,,,,,,,2019_Mar_13_1756,60.08781233042441,Cloud_Experiment_FR_REAL,001,24,
,,,,,,,,,,,,,,,,,,,,,space,109.373798,,,,,,,,,,,,,,,,,,,,,,,,,,,,,2019_Mar_13_1756,60.08781233042441,Cloud_Experiment_FR_REAL,001,24,
,,,,,,,,,,,,,,,,,,,,,,,space,192.8678779,,,,,,,,,,,,,,,,,,,,,,,,,,,2019_Mar_13_1756,60.08781233042441,Cloud_Experiment_FR_REAL,001,24,
,,,,,,,,,,,,,,,,,,,,,,,,,7,14.915,,,,,,,,,,,,,,,,,,,,,,,,,2019_Mar_13_1756,60.08781233042441,Cloud_Experiment_FR_REAL,001,24,
,,,,,,,,,,,,,,,,,,,,,,,,,,,space,4.43135319999,,,,,,,,,,,,,,,,,,,,,,,2019_Mar_13_1756,60.08781233042441,Cloud_Experiment_FR_REAL,001,24,
pratique/fcloud80-20_D1.8_30,1.8,2,0,0,0,4,,,,,,,,,,,,,,,,,,,,,,,None,None,None,347.424,,,,,,,,,,,,,,,,,,,2019_Mar_13_1756,60.08781233042441,Cloud_Experiment_FR_REAL,001,24,
pratique/fcloud65-35_D1.6_30,1.6,1,0,1,1,2,,,,,,,,,,,,,,,,,,,,,,,None,None,None,357.68,,,,,,,,,,,,,,,,,,,2019_Mar_13_1756,60.08781233042441,Cloud_Experiment_FR_REAL,001,24,
pratique/fcloud_D1.6_28,1.6,0,0,2,2,5,,,,,,,,,,,,,,,,,,,,,,,1,space,1,5.398,4.1669196,,,,,,,,,,,,,,,,,,2019_Mar_13_1756,60.08781233042441,Cloud_Experiment_FR_REAL,001,24,
pratique/fcloud65-35_D1.9_29,1.9,1,0,3,3,7,,,,,,,,,,,,,,,,,,,,,,,None,None,None,15.055,,,,,,,,,,,,,,,,,,,2019_Mar_13_1756,60.08781233042441,Cloud_Experiment_FR_REAL,001,24,
pratique/fcloud80-20_D1_30,1.0,2,0,4,4,9,,,,,,,,,,,,,,,,,,,,,,,1,None,1,5.065,,,,,,,,,,,,,,,,,,,2019_Mar_13_1756,60.08781233042441,Cloud_Experiment_FR_REAL,001,24,
pratique/fcloud65-35_D1.2_30,1.2,1,0,5,5,3,,,,,,,,,,,,,,,,,,,,,,,None,None,None,15.588,,,,,,,,,,,,,,,,,,,2019_Mar_13_1756,60.08781233042441,Cloud_Experiment_FR_REAL,001,24,
pratique/fcloud80-20_D1.5_30,1.5,2,0,6,6,8,,,,,,,,,,,,,,,,,,,,,,,2,space,2,5.334,5.9634452,,,,,,,,,,,,,,,,,,2019_Mar_13_1756,60.08781233042441,Cloud_Experiment_FR_REAL,001,24,
pratique/fcloud_D0.8_30,0.8,0,0,7,7,0,,,,,,,,,,,,,,,,,,,,,,,2,space,2,5.514,7.4103405,,,,,,,,,,,,,,,,,,2019_Mar_13_1756,60.08781233042441,Cloud_Experiment_FR_REAL,001,24,
pratique/fcloud65-35_D1.3_30,1.3,1,0,8,8,6,,,,,,,,,,,,,,,,,,,,,,,1,space,3,3.433,7.0412677,,,,,,,,,,,,,,,,,,2019_Mar_13_1756,60.08781233042441,Cloud_Experiment_FR_REAL,001,24,
pratique/fcloud_D1.4_30,1.4,0,0,9,9,1,,,,,,,,,,,,,,,,,,,,,,,None,None,None,16.387,,,,,,,,,,,,,,,,,,,2019_Mar_13_1756,60.08781233042441,Cloud_Experiment_FR_REAL,001,24,
,,,,,,,,,,,,,,,,,,,,,,,,,,,,,,,,,,1,,,,,,,,,,,,,,,,,2019_Mar_13_1756,60.08781233042441,Cloud_Experiment_FR_REAL,001,24,
,,,,,,,,,,,,,,,,,,,,,,,,,,,,,,,,,,,2,,,,,,,,,,,,,,,,2019_Mar_13_1756,60.08781233042441,Cloud_Experiment_FR_REAL,001,24,
,,,,,,,,,,,,,,,,,,,,,,,,,,,,,,,,,,,,1,,,,,,,,,,,,,,,2019_Mar_13_1756,60.08781233042441,Cloud_Experiment_FR_REAL,001,24,
,,,,,,,,,,,,,,,,,,,,,,,,,,,,,,,,,,,,,2,,,,,,,,,,,,,,2019_Mar_13_1756,60.08781233042441,Cloud_Experiment_FR_REAL,001,24,
,,,,,,,,,,,,,,,,,,,,,,,,,,,,,,,,,,,,,,2,,,,,,,,,,,,,2019_Mar_13_1756,60.08781233042441,Cloud_Experiment_FR_REAL,001,24,
,,,,,,,,,,,,,,,,,,,,,,,,,,,,,,,,,,,,,,,2,,,,,,,,,,,,2019_Mar_13_1756,60.08781233042441,Cloud_Experiment_FR_REAL,001,24,
,,,,,,,,,,,,,,,,,,,,,,,,,,,,,,,,,,,,,,,,2,,,,,,,,,,,2019_Mar_13_1756,60.08781233042441,Cloud_Experiment_FR_REAL,001,24,
,,,,,,,,,,,,,,,,,,,,,,,,,,,,,,,,,,,,,,,,,4,,,,,,,,,,2019_Mar_13_1756,60.08781233042441,Cloud_Experiment_FR_REAL,001,24,
,,,,,,,,,,,,,,,,,,,,,,,,,,,,,,,,,,,,,,,,,,1,,,,,,,,,2019_Mar_13_1756,60.08781233042441,Cloud_Experiment_FR_REAL,001,24,
,,,,,,,,,,,,,,,,,,,,,,,,,,,,,,,,,,,,,,,,,,,6,,,,,,,,2019_Mar_13_1756,60.08781233042441,Cloud_Experiment_FR_REAL,001,24,
,,,,,,,,,,,,,,,,,,,,,,,,,,,,,,,,,,,,,,,,,,,,space,4.9124684,,,,,,2019_Mar_13_1756,60.08781233042441,Cloud_Experiment_FR_REAL,001,24,
images/fcloud80-20_D0.8_1.tif,0.8,2,,,,,0,0,0,72,,,,,,,,,,,,,,,,,,,1,space,5,10.444,5.9003056,,,,,,,,,,,,,,,,,,2019_Mar_13_1756,60.08781233042441,Cloud_Experiment_FR_REAL,001,24,
images/fcloud65-35_D0.8_3.tif,0.8,1,,,,,0,1,1,38,,,,,,,,,,,,,,,,,,,1,space,3,6.431,6.69085940001,,,,,,,,,,,,,,,,,,2019_Mar_13_1756,60.08781233042441,Cloud_Experiment_FR_REAL,001,24,
images/fcloud80-20_D1.7_1.tif,1.7,2,,,,,0,2,2,99,,,,,,,,,,,,,,,,,,,1,None,1,5.58,,,,,,,,,,,,,,,,,,,2019_Mar_13_1756,60.08781233042441,Cloud_Experiment_FR_REAL,001,24,
images/fcloud65-35_D1.9_1.tif,1.9,1,,,,,0,3,3,69,,,,,,,,,,,,,,,,,,,None,None,None,17.587,,,,,,,,,,,,,,,,,,,2019_Mar_13_1756,60.08781233042441,Cloud_Experiment_FR_REAL,001,24,
images/fcloud65-35_D0.9_1.tif,0.9,1,,,,,0,4,4,39,,,,,,,,,,,,,,,,,,,1,None,1,0.869,,,,,,,,,,,,,,,,,,,2019_Mar_13_1756,60.08781233042441,Cloud_Experiment_FR_REAL,001,24,
images/fcloud_D1.3_3.tif,1.3,0,,,,,0,5,5,17,,,,,,,,,,,,,,,,,,,1,space,5,2.116,7.1720038,,,,,,,,,,,,,,,,,,2019_Mar_13_1756,60.08781233042441,Cloud_Experiment_FR_REAL,001,24,
images/fcloud80-20_D1.5_3.tif,1.5,2,,,,,0,6,6,95,,,,,,,,,,,,,,,,,,,None,None,None,11.757,,,,,,,,,,,,,,,,,,,2019_Mar_13_1756,60.08781233042441,Cloud_Experiment_FR_REAL,001,24,
images/fcloud80-20_D1.6_2.tif,1.6,2,,,,,0,7,7,97,,,,,,,,,,,,,,,,,,,None,None,None,20.683,,,,,,,,,,,,,,,,,,,2019_Mar_13_1756,60.08781233042441,Cloud_Experiment_FR_REAL,001,24,
images/fcloud65-35_D1.2_2.tif,1.2,1,,,,,0,8,8,49,,,,,,,,,,,,,,,,,,,2,None,4,8.395,,,,,,,,,,,,,,,,,,,2019_Mar_13_1756,60.08781233042441,Cloud_Experiment_FR_REAL,001,24,
images/fcloud65-35_D1.2_1.tif,1.2,1,,,,,0,9,9,48,,,,,,,,,,,,,,,,,,,None,None,None,17.635,,,,,,,,,,,,,,,,,,,2019_Mar_13_1756,60.08781233042441,Cloud_Experiment_FR_REAL,001,24,
images/fcloud_D1.8_1.tif,1.8,0,,,,,0,10,10,30,,,,,,,,,,,,,,,,,,,1,None,5,0.986,,,,,,,,,,,,,,,,,,,2019_Mar_13_1756,60.08781233042441,Cloud_Experiment_FR_REAL,001,24,
images/fcloud80-20_D1.9_3.tif,1.9,2,,,,,0,11,11,107,,,,,,,,,,,,,,,,,,,2,None,4,2.167,,,,,,,,,,,,,,,,,,,2019_Mar_13_1756,60.08781233042441,Cloud_Experiment_FR_REAL,001,24,
images/fcloud80-20_D0.9_3.tif,0.9,2,,,,,0,12,12,77,,,,,,,,,,,,,,,,,,,1,None,1,0.435,,,,,,,,,,,,,,,,,,,2019_Mar_13_1756,60.08781233042441,Cloud_Experiment_FR_REAL,001,24,
images/fcloud_D1.8_3.tif,1.8,0,,,,,0,13,13,32,,,,,,,,,,,,,,,,,,,1,None,4,3.767,,,,,,,,,,,,,,,,,,,2019_Mar_13_1756,60.08781233042441,Cloud_Experiment_FR_REAL,001,24,
images/fcloud80-20_D1.5_2.tif,1.5,2,,,,,0,14,14,94,,,,,,,,,,,,,,,,,,,1,None,3,1.634,,,,,,,,,,,,,,,,,,,2019_Mar_13_1756,60.08781233042441,Cloud_Experiment_FR_REAL,001,24,
images/fcloud_D1.7_2.tif,1.7,0,,,,,0,15,15,28,,,,,,,,,,,,,,,,,,,2,None,3,0.752,,,,,,,,,,,,,,,,,,,2019_Mar_13_1756,60.08781233042441,Cloud_Experiment_FR_REAL,001,24,
images/fcloud_D1.9_3.tif,1.9,0,,,,,0,16,16,35,,,,,,,,,,,,,,,,,,,1,None,2,0.935,,,,,,,,,,,,,,,,,,,2019_Mar_13_1756,60.08781233042441,Cloud_Experiment_FR_REAL,001,24,
images/fcloud_D1.4_2.tif,1.4,0,,,,,0,17,17,19,,,,,,,,,,,,,,,,,,,2,None,5,1.386,,,,,,,,,,,,,,,,,,,2019_Mar_13_1756,60.08781233042441,Cloud_Experiment_FR_REAL,001,24,
images/fcloud80-20_D1.1_2.tif,1.1,2,,,,,0,18,18,82,,,,,,,,,,,,,,,,,,,None,None,None,10.542,,,,,,,,,,,,,,,,,,,2019_Mar_13_1756,60.08781233042441,Cloud_Experiment_FR_REAL,001,24,
images/fcloud65-35_D1.9_3.tif,1.9,1,,,,,0,19,19,71,,,,,,,,,,,,,,,,,,,1,None,1,1.368,,,,,,,,,,,,,,,,,,,2019_Mar_13_1756,60.08781233042441,Cloud_Experiment_FR_REAL,001,24,
images/fcloud65-35_D1.1_2.tif,1.1,1,,,,,0,20,20,46,,,,,,,,,,,,,,,,,,,1,None,3,0.586,,,,,,,,,,,,,,,,,,,2019_Mar_13_1756,60.08781233042441,Cloud_Experiment_FR_REAL,001,24,
images/fcloud65-35_D1.2_3.tif,1.2,1,,,,,0,21,21,50,,,,,,,,,,,,,,,,,,,None,None,None,9.943,,,,,,,,,,,,,,,,,,,2019_Mar_13_1756,60.08781233042441,Cloud_Experiment_FR_REAL,001,24,
images/fcloud_D0.9_2.tif,0.9,0,,,,,0,22,22,4,,,,,,,,,,,,,,,,,,,2,None,4,0.619,,,,,,,,,,,,,,,,,,,2019_Mar_13_1756,60.08781233042441,Cloud_Experiment_FR_REAL,001,24,
images/fcloud_D0.9_1.tif,0.9,0,,,,,0,23,23,3,,,,,,,,,,,,,,,,,,,3,None,5,0.601,,,,,,,,,,,,,,,,,,,2019_Mar_13_1756,60.08781233042441,Cloud_Experiment_FR_REAL,001,24,
images/fcloud_D1.2_2.tif,1.2,0,,,,,0,24,24,13,,,,,,,,,,,,,,,,,,,2,None,3,0.584,,,,,,,,,,,,,,,,,,,2019_Mar_13_1756,60.08781233042441,Cloud_Experiment_FR_REAL,001,24,
images/fcloud_D1.3_2.tif,1.3,0,,,,,0,25,25,16,,,,,,,,,,,,,,,,,,,3,None,4,0.72,,,,,,,,,,,,,,,,,,,2019_Mar_13_1756,60.08781233042441,Cloud_Experiment_FR_REAL,001,24,
images/fcloud_D1.7_3.tif,1.7,0,,,,,0,26,26,29,,,,,,,,,,,,,,,,,,,2,None,4,0.618,,,,,,,,,,,,,,,,,,,2019_Mar_13_1756,60.08781233042441,Cloud_Experiment_FR_REAL,001,24,
images/fcloud80-20_D1_3.tif,1.0,2,,,,,0,27,27,80,,,,,,,,,,,,,,,,,,,1,space,4,2.85,7.6498963,,,,,,,,,,,,,,,,,,2019_Mar_13_1756,60.08781233042441,Cloud_Experiment_FR_REAL,001,24,
images/fcloud80-20_D0.9_1.tif,0.9,2,,,,,0,28,28,75,,,,,,,,,,,,,,,,,,,None,None,None,11.909,,,,,,,,,,,,,,,,,,,2019_Mar_13_1756,60.08781233042441,Cloud_Experiment_FR_REAL,001,24,
images/fcloud80-20_D1.4_2.tif,1.4,2,,,,,0,29,29,91,,,,,,,,,,,,,,,,,,,1,None,3,0.868,,,,,,,,,,,,,,,,,,,2019_Mar_13_1756,60.08781233042441,Cloud_Experiment_FR_REAL,001,24,
images/fcloud_D1.5_1.tif,1.5,0,,,,,0,30,30,21,,,,,,,,,,,,,,,,,,,2,None,5,0.701,,,,,,,,,,,,,,,,,,,2019_Mar_13_1756,60.08781233042441,Cloud_Experiment_FR_REAL,001,24,
images/fcloud_D1.6_2.tif,1.6,0,,,,,0,31,31,25,,,,,,,,,,,,,,,,,,,1,None,3,0.985,,,,,,,,,,,,,,,,,,,2019_Mar_13_1756,60.08781233042441,Cloud_Experiment_FR_REAL,001,24,
images/fcloud65-35_D1.1_1.tif,1.1,1,,,,,0,32,32,45,,,,,,,,,,,,,,,,,,,1,None,5,1.551,,,,,,,,,,,,,,,,,,,2019_Mar_13_1756,60.08781233042441,Cloud_Experiment_FR_REAL,001,24,
images/fcloud_D1.1_1.tif,1.1,0,,,,,0,33,33,9,,,,,,,,,,,,,,,,,,,2,None,5,1.252,,,,,,,,,,,,,,,,,,,2019_Mar_13_1756,60.08781233042441,Cloud_Experiment_FR_REAL,001,24,
images/fcloud_D1.6_1.tif,1.6,0,,,,,0,34,34,24,,,,,,,,,,,,,,,,,,,None,None,None,10.942,,,,,,,,,,,,,,,,,,,2019_Mar_13_1756,60.08781233042441,Cloud_Experiment_FR_REAL,001,24,
images/fcloud65-35_D1.8_1.tif,1.8,1,,,,,0,35,35,66,,,,,,,,,,,,,,,,,,,None,None,None,19.518,,,,,,,,,,,,,,,,,,,2019_Mar_13_1756,60.08781233042441,Cloud_Experiment_FR_REAL,001,24,
images/fcloud80-20_D0.8_3.tif,0.8,2,,,,,0,36,36,74,,,,,,,,,,,,,,,,,,,1,space,2,0.651,7.7475767,,,,,,,,,,,,,,,,,,2019_Mar_13_1756,60.08781233042441,Cloud_Experiment_FR_REAL,001,24,
images/fcloud80-20_D1.3_2.tif,1.3,2,,,,,0,37,37,88,,,,,,,,,,,,,,,,,,,1,space,4,2.267,7.7285845,,,,,,,,,,,,,,,,,,2019_Mar_13_1756,60.08781233042441,Cloud_Experiment_FR_REAL,001,24,
images/fcloud_D1.1_2.tif,1.1,0,,,,,0,38,38,10,,,,,,,,,,,,,,,,,,,2,None,5,0.817,,,,,,,,,,,,,,,,,,,2019_Mar_13_1756,60.08781233042441,Cloud_Experiment_FR_REAL,001,24,
images/fcloud_D1_3.tif,1.0,0,,,,,0,39,39,8,,,,,,,,,,,,,,,,,,,2,None,5,0.92,,,,,,,,,,,,,,,,,,,2019_Mar_13_1756,60.08781233042441,Cloud_Experiment_FR_REAL,001,24,
images/fcloud65-35_D0.8_2.tif,0.8,1,,,,,0,40,40,37,,,,,,,,,,,,,,,,,,,None,None,None,9.96,,,,,,,,,,,,,,,,,,,2019_Mar_13_1756,60.08781233042441,Cloud_Experiment_FR_REAL,001,24,
images/fcloud_D0.8_3.tif,0.8,0,,,,,0,41,41,2,,,,,,,,,,,,,,,,,,,1,None,5,0.603,,,,,,,,,,,,,,,,,,,2019_Mar_13_1756,60.08781233042441,Cloud_Experiment_FR_REAL,001,24,
images/fcloud65-35_D0.9_2.tif,0.9,1,,,,,0,42,42,40,,,,,,,,,,,,,,,,,,,1,None,1,0.918,,,,,,,,,,,,,,,,,,,2019_Mar_13_1756,60.08781233042441,Cloud_Experiment_FR_REAL,001,24,
images/fcloud65-35_D1.7_1.tif,1.7,1,,,,,0,43,43,63,,,,,,,,,,,,,,,,,,,None,None,None,10.176,,,,,,,,,,,,,,,,,,,2019_Mar_13_1756,60.08781233042441,Cloud_Experiment_FR_REAL,001,24,
images/fcloud65-35_D1.5_1.tif,1.5,1,,,,,0,44,44,57,,,,,,,,,,,,,,,,,,,1,None,3,2.238,,,,,,,,,,,,,,,,,,,2019_Mar_13_1756,60.08781233042441,Cloud_Experiment_FR_REAL,001,24,
images/fcloud_D1.5_2.tif,1.5,0,,,,,0,45,45,22,,,,,,,,,,,,,,,,,,,1,None,3,0.602,,,,,,,,,,,,,,,,,,,2019_Mar_13_1756,60.08781233042441,Cloud_Experiment_FR_REAL,001,24,
images/fcloud65-35_D0.9_3.tif,0.9,1,,,,,0,46,46,41,,,,,,,,,,,,,,,,,,,1,None,5,0.502,,,,,,,,,,,,,,,,,,,2019_Mar_13_1756,60.08781233042441,Cloud_Experiment_FR_REAL,001,24,
images/fcloud_D1.6_3.tif,1.6,0,,,,,0,47,47,26,,,,,,,,,,,,,,,,,,,2,None,5,1.717,,,,,,,,,,,,,,,,,,,2019_Mar_13_1756,60.08781233042441,Cloud_Experiment_FR_REAL,001,24,
images/fcloud_D0.8_1.tif,0.8,0,,,,,0,48,48,0,,,,,,,,,,,,,,,,,,,2,None,4,1.818,,,,,,,,,,,,,,,,,,,2019_Mar_13_1756,60.08781233042441,Cloud_Experiment_FR_REAL,001,24,
images/fcloud80-20_D1.6_3.tif,1.6,2,,,,,0,49,49,98,,,,,,,,,,,,,,,,,,,None,None,None,10.392,,,,,,,,,,,,,,,,,,,2019_Mar_13_1756,60.08781233042441,Cloud_Experiment_FR_REAL,001,24,
images/fcloud_D1.1_3.tif,1.1,0,,,,,0,50,50,11,,,,,,,,,,,,,,,,,,,None,None,None,19.32,,,,,,,,,,,,,,,,,,,2019_Mar_13_1756,60.08781233042441,Cloud_Experiment_FR_REAL,001,24,
images/fcloud80-20_D1.1_1.tif,1.1,2,,,,,0,51,51,81,,,,,,,,,,,,,,,,,,,None,None,None,28.01,,,,,,,,,,,,,,,,,,,2019_Mar_13_1756,60.08781233042441,Cloud_Experiment_FR_REAL,001,24,
images/fcloud80-20_D1.2_3.tif,1.2,2,,,,,0,52,52,86,,,,,,,,,,,,,,,,,,,1,None,5,0.436,,,,,,,,,,,,,,,,,,,2019_Mar_13_1756,60.08781233042441,Cloud_Experiment_FR_REAL,001,24,
images/fcloud_D0.8_2.tif,0.8,0,,,,,0,53,53,1,,,,,,,,,,,,,,,,,,,2,None,4,0.652,,,,,,,,,,,,,,,,,,,2019_Mar_13_1756,60.08781233042441,Cloud_Experiment_FR_REAL,001,24,
images/fcloud65-35_D1_2.tif,1.0,1,,,,,0,54,54,43,,,,,,,,,,,,,,,,,,,None,None,None,9.46,,,,,,,,,,,,,,,,,,,2019_Mar_13_1756,60.08781233042441,Cloud_Experiment_FR_REAL,001,24,
images/fcloud_D1_2.tif,1.0,0,,,,,0,55,55,7,,,,,,,,,,,,,,,,,,,3,None,5,0.602,,,,,,,,,,,,,,,,,,,2019_Mar_13_1756,60.08781233042441,Cloud_Experiment_FR_REAL,001,24,
images/fcloud_D1.7_1.tif,1.7,0,,,,,0,56,56,27,,,,,,,,,,,,,,,,,,,1,None,4,0.919,,,,,,,,,,,,,,,,,,,2019_Mar_13_1756,60.08781233042441,Cloud_Experiment_FR_REAL,001,24,
images/fcloud_D1.9_2.tif,1.9,0,,,,,0,57,57,34,,,,,,,,,,,,,,,,,,,1,None,3,0.418,,,,,,,,,,,,,,,,,,,2019_Mar_13_1756,60.08781233042441,Cloud_Experiment_FR_REAL,001,24,
images/fcloud65-35_D1.8_2.tif,1.8,1,,,,,0,58,58,67,,,,,,,,,,,,,,,,,,,1,None,3,1.367,,,,,,,,,,,,,,,,,,,2019_Mar_13_1756,60.08781233042441,Cloud_Experiment_FR_REAL,001,24,
images/fcloud65-35_D1.6_3.tif,1.6,1,,,,,0,59,59,62,,,,,,,,,,,,,,,,,,,None,None,None,10.226,,,,,,,,,,,,,,,,,,,2019_Mar_13_1756,60.08781233042441,Cloud_Experiment_FR_REAL,001,24,
images/fcloud65-35_D1.1_3.tif,1.1,1,,,,,0,60,60,47,,,,,,,,,,,,,,,,,,,None,None,None,19.202,,,,,,,,,,,,,,,,,,,2019_Mar_13_1756,60.08781233042441,Cloud_Experiment_FR_REAL,001,24,
images/fcloud80-20_D1.2_1.tif,1.2,2,,,,,0,61,61,84,,,,,,,,,,,,,,,,,,,None,None,None,28.043,,,,,,,,,,,,,,,,,,,2019_Mar_13_1756,60.08781233042441,Cloud_Experiment_FR_REAL,001,24,
images/fcloud65-35_D0.8_1.tif,0.8,1,,,,,0,62,62,36,,,,,,,,,,,,,,,,,,,None,None,None,36.105,,,,,,,,,,,,,,,,,,,2019_Mar_13_1756,60.08781233042441,Cloud_Experiment_FR_REAL,001,24,
images/fcloud_D1.9_1.tif,1.9,0,,,,,0,63,63,33,,,,,,,,,,,,,,,,,,,1,None,4,0.922,,,,,,,,,,,,,,,,,,,2019_Mar_13_1756,60.08781233042441,Cloud_Experiment_FR_REAL,001,24,
images/fcloud80-20_D1.4_3.tif,1.4,2,,,,,0,64,64,92,,,,,,,,,,,,,,,,,,,1,None,3,0.584,,,,,,,,,,,,,,,,,,,2019_Mar_13_1756,60.08781233042441,Cloud_Experiment_FR_REAL,001,24,
images/fcloud80-20_D1.6_1.tif,1.6,2,,,,,0,65,65,96,,,,,,,,,,,,,,,,,,,None,None,None,10.042,,,,,,,,,,,,,,,,,,,2019_Mar_13_1756,60.08781233042441,Cloud_Experiment_FR_REAL,001,24,
images/fcloud65-35_D1.7_3.tif,1.7,1,,,,,0,66,66,65,,,,,,,,,,,,,,,,,,,None,None,None,18.836,,,,,,,,,,,,,,,,,,,2019_Mar_13_1756,60.08781233042441,Cloud_Experiment_FR_REAL,001,24,
images/fcloud_D1.4_3.tif,1.4,0,,,,,0,67,67,20,,,,,,,,,,,,,,,,,,,1,None,4,0.536,,,,,,,,,,,,,,,,,,,2019_Mar_13_1756,60.08781233042441,Cloud_Experiment_FR_REAL,001,24,
images/fcloud_D0.9_3.tif,0.9,0,,,,,0,68,68,5,,,,,,,,,,,,,,,,,,,2,None,5,1.434,,,,,,,,,,,,,,,,,,,2019_Mar_13_1756,60.08781233042441,Cloud_Experiment_FR_REAL,001,24,
images/fcloud80-20_D1.7_2.tif,1.7,2,,,,,0,69,69,100,,,,,,,,,,,,,,,,,,,None,None,None,9.876,,,,,,,,,,,,,,,,,,,2019_Mar_13_1756,60.08781233042441,Cloud_Experiment_FR_REAL,001,24,
images/fcloud65-35_D1.3_1.tif,1.3,1,,,,,0,70,70,51,,,,,,,,,,,,,,,,,,,None,None,None,18.935,,,,,,,,,,,,,,,,,,,2019_Mar_13_1756,60.08781233042441,Cloud_Experiment_FR_REAL,001,24,
images/fcloud_D1.3_1.tif,1.3,0,,,,,0,71,71,15,,,,,,,,,,,,,,,,,,,3,None,5,0.502,,,,,,,,,,,,,,,,,,,2019_Mar_13_1756,60.08781233042441,Cloud_Experiment_FR_REAL,001,24,
images/fcloud65-35_D1.3_3.tif,1.3,1,,,,,0,72,72,53,,,,,,,,,,,,,,,,,,,2,None,5,1.018,,,,,,,,,,,,,,,,,,,2019_Mar_13_1756,60.08781233042441,Cloud_Experiment_FR_REAL,001,24,
images/fcloud80-20_D1.8_3.tif,1.8,2,,,,,0,73,73,104,,,,,,,,,,,,,,,,,,,None,None,None,9.393,,,,,,,,,,,,,,,,,,,2019_Mar_13_1756,60.08781233042441,Cloud_Experiment_FR_REAL,001,24,
images/fcloud80-20_D1.8_1.tif,1.8,2,,,,,0,74,74,102,,,,,,,,,,,,,,,,,,,1,None,1,0.485,,,,,,,,,,,,,,,,,,,2019_Mar_13_1756,60.08781233042441,Cloud_Experiment_FR_REAL,001,24,
images/fcloud65-35_D1.6_1.tif,1.6,1,,,,,0,75,75,60,,,,,,,,,,,,,,,,,,,None,None,None,9.594,,,,,,,,,,,,,,,,,,,2019_Mar_13_1756,60.08781233042441,Cloud_Experiment_FR_REAL,001,24,
images/fcloud_D1.4_1.tif,1.4,0,,,,,0,76,76,18,,,,,,,,,,,,,,,,,,,3,None,5,0.619,,,,,,,,,,,,,,,,,,,2019_Mar_13_1756,60.08781233042441,Cloud_Experiment_FR_REAL,001,24,
images/fcloud_D1.5_3.tif,1.5,0,,,,,0,77,77,23,,,,,,,,,,,,,,,,,,,None,None,None,9.629,,,,,,,,,,,,,,,,,,,2019_Mar_13_1756,60.08781233042441,Cloud_Experiment_FR_REAL,001,24,
images/fcloud80-20_D1.9_2.tif,1.9,2,,,,,0,78,78,106,,,,,,,,,,,,,,,,,,,None,None,None,18.118,,,,,,,,,,,,,,,,,,,2019_Mar_13_1756,60.08781233042441,Cloud_Experiment_FR_REAL,001,24,
images/fcloud65-35_D1.6_2.tif,1.6,1,,,,,0,79,79,61,,,,,,,,,,,,,,,,,,,2,None,3,0.902,,,,,,,,,,,,,,,,,,,2019_Mar_13_1756,60.08781233042441,Cloud_Experiment_FR_REAL,001,24,
images/fcloud80-20_D1.2_2.tif,1.2,2,,,,,0,80,80,85,,,,,,,,,,,,,,,,,,,None,None,None,10.142,,,,,,,,,,,,,,,,,,,2019_Mar_13_1756,60.08781233042441,Cloud_Experiment_FR_REAL,001,24,
images/fcloud80-20_D1_2.tif,1.0,2,,,,,0,81,81,79,,,,,,,,,,,,,,,,,,,1,None,5,0.586,,,,,,,,,,,,,,,,,,,2019_Mar_13_1756,60.08781233042441,Cloud_Experiment_FR_REAL,001,24,
images/fcloud80-20_D0.9_2.tif,0.9,2,,,,,0,82,82,76,,,,,,,,,,,,,,,,,,,1,None,5,0.787,,,,,,,,,,,,,,,,,,,2019_Mar_13_1756,60.08781233042441,Cloud_Experiment_FR_REAL,001,24,
images/fcloud65-35_D1.3_2.tif,1.3,1,,,,,0,83,83,52,,,,,,,,,,,,,,,,,,,1,None,3,1.484,,,,,,,,,,,,,,,,,,,2019_Mar_13_1756,60.08781233042441,Cloud_Experiment_FR_REAL,001,24,
images/fcloud80-20_D1.1_3.tif,1.1,2,,,,,0,84,84,83,,,,,,,,,,,,,,,,,,,1,None,5,2.083,,,,,,,,,,,,,,,,,,,2019_Mar_13_1756,60.08781233042441,Cloud_Experiment_FR_REAL,001,24,
images/fcloud80-20_D1.5_1.tif,1.5,2,,,,,0,85,85,93,,,,,,,,,,,,,,,,,,,2,None,5,0.585,,,,,,,,,,,,,,,,,,,2019_Mar_13_1756,60.08781233042441,Cloud_Experiment_FR_REAL,001,24,
images/fcloud80-20_D1.9_1.tif,1.9,2,,,,,0,86,86,105,,,,,,,,,,,,,,,,,,,None,None,None,8.943,,,,,,,,,,,,,,,,,,,2019_Mar_13_1756,60.08781233042441,Cloud_Experiment_FR_REAL,001,24,
images/fcloud65-35_D1_3.tif,1.0,1,,,,,0,87,87,44,,,,,,,,,,,,,,,,,,,1,None,5,1.684,,,,,,,,,,,,,,,,,,,2019_Mar_13_1756,60.08781233042441,Cloud_Experiment_FR_REAL,001,24,
images/fcloud65-35_D1.7_2.tif,1.7,1,,,,,0,88,88,64,,,,,,,,,,,,,,,,,,,1,None,2,0.435,,,,,,,,,,,,,,,,,,,2019_Mar_13_1756,60.08781233042441,Cloud_Experiment_FR_REAL,001,24,
images/fcloud65-35_D1.4_3.tif,1.4,1,,,,,0,89,89,56,,,,,,,,,,,,,,,,,,,None,None,None,9.277,,,,,,,,,,,,,,,,,,,2019_Mar_13_1756,60.08781233042441,Cloud_Experiment_FR_REAL,001,24,
images/fcloud65-35_D1.9_2.tif,1.9,1,,,,,0,90,90,70,,,,,,,,,,,,,,,,,,,None,None,None,17.853,,,,,,,,,,,,,,,,,,,2019_Mar_13_1756,60.08781233042441,Cloud_Experiment_FR_REAL,001,24,
images/fcloud_D1_1.tif,1.0,0,,,,,0,91,91,6,,,,,,,,,,,,,,,,,,,1,None,5,0.519,,,,,,,,,,,,,,,,,,,2019_Mar_13_1756,60.08781233042441,Cloud_Experiment_FR_REAL,001,24,
images/fcloud65-35_D1.8_3.tif,1.8,1,,,,,0,92,92,68,,,,,,,,,,,,,,,,,,,1,None,3,0.77,,,,,,,,,,,,,,,,,,,2019_Mar_13_1756,60.08781233042441,Cloud_Experiment_FR_REAL,001,24,
images/fcloud_D1.8_2.tif,1.8,0,,,,,0,93,93,31,,,,,,,,,,,,,,,,,,,1,None,5,1.101,,,,,,,,,,,,,,,,,,,2019_Mar_13_1756,60.08781233042441,Cloud_Experiment_FR_REAL,001,24,
images/fcloud65-35_D1.5_2.tif,1.5,1,,,,,0,94,94,58,,,,,,,,,,,,,,,,,,,1,None,5,0.487,,,,,,,,,,,,,,,,,,,2019_Mar_13_1756,60.08781233042441,Cloud_Experiment_FR_REAL,001,24,
images/fcloud80-20_D1.3_1.tif,1.3,2,,,,,0,95,95,87,,,,,,,,,,,,,,,,,,,None,None,None,9.776,,,,,,,,,,,,,,,,,,,2019_Mar_13_1756,60.08781233042441,Cloud_Experiment_FR_REAL,001,24,
images/fcloud_D1.2_1.tif,1.2,0,,,,,0,96,96,12,,,,,,,,,,,,,,,,,,,None,None,None,18.302,,,,,,,,,,,,,,,,,,,2019_Mar_13_1756,60.08781233042441,Cloud_Experiment_FR_REAL,001,24,
images/fcloud65-35_D1_1.tif,1.0,1,,,,,0,97,97,42,,,,,,,,,,,,,,,,,,,None,None,None,26.761,,,,,,,,,,,,,,,,,,,2019_Mar_13_1756,60.08781233042441,Cloud_Experiment_FR_REAL,001,24,
images/fcloud_D1.2_3.tif,1.2,0,,,,,0,98,98,14,,,,,,,,,,,,,,,,,,,1,None,4,1.684,,,,,,,,,,,,,,,,,,,2019_Mar_13_1756,60.08781233042441,Cloud_Experiment_FR_REAL,001,24,
images/fcloud80-20_D1.8_2.tif,1.8,2,,,,,0,99,99,103,,,,,,,,,,,,,,,,,,,None,None,None,11.008,,,,,,,,,,,,,,,,,,,2019_Mar_13_1756,60.08781233042441,Cloud_Experiment_FR_REAL,001,24,
images/fcloud80-20_D0.8_2.tif,0.8,2,,,,,0,100,100,73,,,,,,,,,,,,,,,,,,,1,None,4,2.068,,,,,,,,,,,,,,,,,,,2019_Mar_13_1756,60.08781233042441,Cloud_Experiment_FR_REAL,001,24,
images/fcloud65-35_D1.5_3.tif,1.5,1,,,,,0,101,101,59,,,,,,,,,,,,,,,,,,,None,None,None,11.359,,,,,,,,,,,,,,,,,,,2019_Mar_13_1756,60.08781233042441,Cloud_Experiment_FR_REAL,001,24,
images/fcloud65-35_D1.4_2.tif,1.4,1,,,,,0,102,102,55,,,,,,,,,,,,,,,,,,,2,None,4,0.519,,,,,,,,,,,,,,,,,,,2019_Mar_13_1756,60.08781233042441,Cloud_Experiment_FR_REAL,001,24,
images/fcloud80-20_D1.3_3.tif,1.3,2,,,,,0,103,103,89,,,,,,,,,,,,,,,,,,,None,None,None,9.244,,,,,,,,,,,,,,,,,,,2019_Mar_13_1756,60.08781233042441,Cloud_Experiment_FR_REAL,001,24,
images/fcloud80-20_D1_1.tif,1.0,2,,,,,0,104,104,78,,,,,,,,,,,,,,,,,,,1,None,4,1.384,,,,,,,,,,,,,,,,,,,2019_Mar_13_1756,60.08781233042441,Cloud_Experiment_FR_REAL,001,24,
images/fcloud65-35_D1.4_1.tif,1.4,1,,,,,0,105,105,54,,,,,,,,,,,,,,,,,,,1,None,1,0.553,,,,,,,,,,,,,,,,,,,2019_Mar_13_1756,60.08781233042441,Cloud_Experiment_FR_REAL,001,24,
images/fcloud80-20_D1.4_1.tif,1.4,2,,,,,0,106,106,90,,,,,,,,,,,,,,,,,,,None,None,None,9.362,,,,,,,,,,,,,,,,,,,2019_Mar_13_1756,60.08781233042441,Cloud_Experiment_FR_REAL,001,24,
images/fcloud80-20_D1.7_3.tif,1.7,2,,,,,0,107,107,101,,,,,,,,,,,,,,,,,,,None,None,None,18.069,,,,,,,,,,,,,,,,,,,2019_Mar_13_1756,60.08781233042441,Cloud_Experiment_FR_REAL,001,24,
,,,,,,,,,,,,,,,,,,,,,,,,,,,,,,,,,,,,,,,,,,,,,,space,5.6476642,,,,2019_Mar_13_1756,60.08781233042441,Cloud_Experiment_FR_REAL,001,24,
,,,,,,,,,,,,,,,,,,,,,,,,,6,23.306,,,,,,,,,,,,,,,,,,,,,,,,,2019_Mar_13_1756,60.08781233042441,Cloud_Experiment_FR_REAL,001,24,
,,,,,,,,,,,,,,,,,,,,,,,,,,,,,,,,,,5,,,,,,,,,,,,,,,,,2019_Mar_13_1756,60.08781233042441,Cloud_Experiment_FR_REAL,001,24,
,,,,,,,,,,,,,,,,,,,,,,,,,,,,,,,,,,,5,,,,,,,,,,,,,,,,2019_Mar_13_1756,60.08781233042441,Cloud_Experiment_FR_REAL,001,24,
,,,,,,,,,,,,,,,,,,,,,,,,,,,,,,,,,,,,5,,,,,,,,,,,,,,,2019_Mar_13_1756,60.08781233042441,Cloud_Experiment_FR_REAL,001,24,
,,,,,,,,,,,,,,,,,,,,,,,,,,,,,,,,,,,,,4,,,,,,,,,,,,,,2019_Mar_13_1756,60.08781233042441,Cloud_Experiment_FR_REAL,001,24,
,,,,,,,,,,,,,,,,,,,,,,,,,,,,,,,,,,,,,,4,,,,,,,,,,,,,2019_Mar_13_1756,60.08781233042441,Cloud_Experiment_FR_REAL,001,24,
,,,,,,,,,,,,,,,,,,,,,,,,,,,,,,,,,,,,,,,4,,,,,,,,,,,,2019_Mar_13_1756,60.08781233042441,Cloud_Experiment_FR_REAL,001,24,
,,,,,,,,,,,,,,,,,,,,,,,,,,,,,,,,,,,,,,,,5,,,,,,,,,,,2019_Mar_13_1756,60.08781233042441,Cloud_Experiment_FR_REAL,001,24,
,,,,,,,,,,,,,,,,,,,,,,,,,,,,,,,,,,,,,,,,,7,,,,,,,,,,2019_Mar_13_1756,60.08781233042441,Cloud_Experiment_FR_REAL,001,24,
,,,,,,,,,,,,,,,,,,,,,,,,,,,,,,,,,,,,,,,,,,4,,,,,,,,,2019_Mar_13_1756,60.08781233042441,Cloud_Experiment_FR_REAL,001,24,
,,,,,,,,,,,,,,,,,,,,,,,,,,,,,,,,,,,,,,,,,,,4,,,,,,,,2019_Mar_13_1756,60.08781233042441,Cloud_Experiment_FR_REAL,001,24,
,,,,,,,,,,,,,,,,,,,,,,,,,,,,,,,,,,,,,,,,,,,,,,,,space,9.2104784,,2019_Mar_13_1756,60.08781233042441,Cloud_Experiment_FR_REAL,001,24,
images/fcloud_D1.2_4.tif,1.2,0,,,,,,,,,0,0,0,12,,,,,,,,,,,,,,,4,None,5,0.968,,,,,,,,,,,,,,,,,,,2019_Mar_13_1756,60.08781233042441,Cloud_Experiment_FR_REAL,001,24,
images/fcloud80-20_D1.7_6.tif,1.7,2,,,,,,,,,0,1,1,101,,,,,,,,,,,,,,,1,None,3,1.451,,,,,,,,,,,,,,,,,,,2019_Mar_13_1756,60.08781233042441,Cloud_Experiment_FR_REAL,001,24,
images/fcloud80-20_D1.4_6.tif,1.4,2,,,,,,,,,0,2,2,92,,,,,,,,,,,,,,,2,None,4,0.918,,,,,,,,,,,,,,,,,,,2019_Mar_13_1756,60.08781233042441,Cloud_Experiment_FR_REAL,001,24,
images/fcloud80-20_D1.2_5.tif,1.2,2,,,,,,,,,0,3,3,85,,,,,,,,,,,,,,,None,None,None,10.442,,,,,,,,,,,,,,,,,,,2019_Mar_13_1756,60.08781233042441,Cloud_Experiment_FR_REAL,001,24,
images/fcloud65-35_D0.8_5.tif,0.8,1,,,,,,,,,0,4,4,37,,,,,,,,,,,,,,,2,None,4,0.538,,,,,,,,,,,,,,,,,,,2019_Mar_13_1756,60.08781233042441,Cloud_Experiment_FR_REAL,001,24,
images/fcloud65-35_D1.3_6.tif,1.3,1,,,,,,,,,0,5,5,53,,,,,,,,,,,,,,,2,None,2,0.867,,,,,,,,,,,,,,,,,,,2019_Mar_13_1756,60.08781233042441,Cloud_Experiment_FR_REAL,001,24,
images/fcloud80-20_D0.9_4.tif,0.9,2,,,,,,,,,0,6,6,75,,,,,,,,,,,,,,,None,None,None,10.009,,,,,,,,,,,,,,,,,,,2019_Mar_13_1756,60.08781233042441,Cloud_Experiment_FR_REAL,001,24,
images/fcloud80-20_D1.5_5.tif,1.5,2,,,,,,,,,0,7,7,94,,,,,,,,,,,,,,,1,None,4,0.635,,,,,,,,,,,,,,,,,,,2019_Mar_13_1756,60.08781233042441,Cloud_Experiment_FR_REAL,001,24,
images/fcloud65-35_D1.9_5.tif,1.9,1,,,,,,,,,0,8,8,70,,,,,,,,,,,,,,,2,None,3,6.064,,,,,,,,,,,,,,,,,,,2019_Mar_13_1756,60.08781233042441,Cloud_Experiment_FR_REAL,001,24,
images/fcloud80-20_D1.6_4.tif,1.6,2,,,,,,,,,0,9,9,96,,,,,,,,,,,,,,,1,None,4,0.902,,,,,,,,,,,,,,,,,,,2019_Mar_13_1756,60.08781233042441,Cloud_Experiment_FR_REAL,001,24,
images/fcloud65-35_D1.7_5.tif,1.7,1,,,,,,,,,0,10,10,64,,,,,,,,,,,,,,,2,None,3,1.018,,,,,,,,,,,,,,,,,,,2019_Mar_13_1756,60.08781233042441,Cloud_Experiment_FR_REAL,001,24,
images/fcloud_D0.9_6.tif,0.9,0,,,,,,,,,0,11,11,5,,,,,,,,,,,,,,,2,None,3,0.784,,,,,,,,,,,,,,,,,,,2019_Mar_13_1756,60.08781233042441,Cloud_Experiment_FR_REAL,001,24,
images/fcloud_D1.9_5.tif,1.9,0,,,,,,,,,0,12,12,34,,,,,,,,,,,,,,,1,None,3,1.301,,,,,,,,,,,,,,,,,,,2019_Mar_13_1756,60.08781233042441,Cloud_Experiment_FR_REAL,001,24,
images/fcloud_D1.3_5.tif,1.3,0,,,,,,,,,0,13,13,16,,,,,,,,,,,,,,,2,None,3,3.085,,,,,,,,,,,,,,,,,,,2019_Mar_13_1756,60.08781233042441,Cloud_Experiment_FR_REAL,001,24,
images/fcloud65-35_D1.4_6.tif,1.4,1,,,,,,,,,0,14,14,56,,,,,,,,,,,,,,,2,None,4,1.051,,,,,,,,,,,,,,,,,,,2019_Mar_13_1756,60.08781233042441,Cloud_Experiment_FR_REAL,001,24,
images/fcloud65-35_D1.8_4.tif,1.8,1,,,,,,,,,0,15,15,66,,,,,,,,,,,,,,,None,None,None,10.326,,,,,,,,,,,,,,,,,,,2019_Mar_13_1756,60.08781233042441,Cloud_Experiment_FR_REAL,001,24,
images/fcloud65-35_D1.6_6.tif,1.6,1,,,,,,,,,0,16,16,62,,,,,,,,,,,,,,,None,None,None,19.484,,,,,,,,,,,,,,,,,,,2019_Mar_13_1756,60.08781233042441,Cloud_Experiment_FR_REAL,001,24,
images/fcloud65-35_D1.6_5.tif,1.6,1,,,,,,,,,0,17,17,61,,,,,,,,,,,,,,,1,None,2,1.019,,,,,,,,,,,,,,,,,,,2019_Mar_13_1756,60.08781233042441,Cloud_Experiment_FR_REAL,001,24,
images/fcloud80-20_D1.2_6.tif,1.2,2,,,,,,,,,0,18,18,86,,,,,,,,,,,,,,,None,None,None,11.842,,,,,,,,,,,,,,,,,,,2019_Mar_13_1756,60.08781233042441,Cloud_Experiment_FR_REAL,001,24,
images/fcloud65-35_D1.2_5.tif,1.2,1,,,,,,,,,0,19,19,49,,,,,,,,,,,,,,,2,None,3,0.619,,,,,,,,,,,,,,,,,,,2019_Mar_13_1756,60.08781233042441,Cloud_Experiment_FR_REAL,001,24,
images/fcloud_D1.8_6.tif,1.8,0,,,,,,,,,0,20,20,32,,,,,,,,,,,,,,,2,None,4,2.466,,,,,,,,,,,,,,,,,,,2019_Mar_13_1756,60.08781233042441,Cloud_Experiment_FR_REAL,001,24,
images/fcloud80-20_D1.5_4.tif,1.5,2,,,,,,,,,0,21,21,93,,,,,,,,,,,,,,,1,None,3,0.536,,,,,,,,,,,,,,,,,,,2019_Mar_13_1756,60.08781233042441,Cloud_Experiment_FR_REAL,001,24,
images/fcloud80-20_D0.9_6.tif,0.9,2,,,,,,,,,0,22,22,77,,,,,,,,,,,,,,,1,None,3,0.886,,,,,,,,,,,,,,,,,,,2019_Mar_13_1756,60.08781233042441,Cloud_Experiment_FR_REAL,001,24,
images/fcloud65-35_D1.8_5.tif,1.8,1,,,,,,,,,0,23,23,67,,,,,,,,,,,,,,,None,None,None,9.66,,,,,,,,,,,,,,,,,,,2019_Mar_13_1756,60.08781233042441,Cloud_Experiment_FR_REAL,001,24,
images/fcloud_D1.5_4.tif,1.5,0,,,,,,,,,0,24,24,21,,,,,,,,,,,,,,,1,None,3,0.47,,,,,,,,,,,,,,,,,,,2019_Mar_13_1756,60.08781233042441,Cloud_Experiment_FR_REAL,001,24,
images/fcloud65-35_D1.3_4.tif,1.3,1,,,,,,,,,0,25,25,51,,,,,,,,,,,,,,,None,None,None,9.459,,,,,,,,,,,,,,,,,,,2019_Mar_13_1756,60.08781233042441,Cloud_Experiment_FR_REAL,001,24,
images/fcloud_D1.4_4.tif,1.4,0,,,,,,,,,0,26,26,18,,,,,,,,,,,,,,,1,None,3,0.886,,,,,,,,,,,,,,,,,,,2019_Mar_13_1756,60.08781233042441,Cloud_Experiment_FR_REAL,001,24,
images/fcloud80-20_D1.5_6.tif,1.5,2,,,,,,,,,0,27,27,95,,,,,,,,,,,,,,,1,None,4,0.903,,,,,,,,,,,,,,,,,,,2019_Mar_13_1756,60.08781233042441,Cloud_Experiment_FR_REAL,001,24,
images/fcloud_D1.9_6.tif,1.9,0,,,,,,,,,0,28,28,35,,,,,,,,,,,,,,,None,None,None,10.078,,,,,,,,,,,,,,,,,,,2019_Mar_13_1756,60.08781233042441,Cloud_Experiment_FR_REAL,001,24,
images/fcloud80-20_D1.2_4.tif,1.2,2,,,,,,,,,0,29,29,84,,,,,,,,,,,,,,,2,None,5,0.686,,,,,,,,,,,,,,,,,,,2019_Mar_13_1756,60.08781233042441,Cloud_Experiment_FR_REAL,001,24,
images/fcloud80-20_D1.9_6.tif,1.9,2,,,,,,,,,0,30,30,107,,,,,,,,,,,,,,,1,None,2,0.636,,,,,,,,,,,,,,,,,,,2019_Mar_13_1756,60.08781233042441,Cloud_Experiment_FR_REAL,001,24,
images/fcloud65-35_D1.5_4.tif,1.5,1,,,,,,,,,0,31,31,57,,,,,,,,,,,,,,,1,None,2,0.502,,,,,,,,,,,,,,,,,,,2019_Mar_13_1756,60.08781233042441,Cloud_Experiment_FR_REAL,001,24,
images/fcloud65-35_D1.9_4.tif,1.9,1,,,,,,,,,0,32,32,69,,,,,,,,,,,,,,,2,None,4,0.934,,,,,,,,,,,,,,,,,,,2019_Mar_13_1756,60.08781233042441,Cloud_Experiment_FR_REAL,001,24,
images/fcloud80-20_D1.1_5.tif,1.1,2,,,,,,,,,0,33,33,82,,,,,,,,,,,,,,,2,None,4,0.469,,,,,,,,,,,,,,,,,,,2019_Mar_13_1756,60.08781233042441,Cloud_Experiment_FR_REAL,001,24,
images/fcloud65-35_D0.9_6.tif,0.9,1,,,,,,,,,0,34,34,41,,,,,,,,,,,,,,,1,None,5,0.869,,,,,,,,,,,,,,,,,,,2019_Mar_13_1756,60.08781233042441,Cloud_Experiment_FR_REAL,001,24,
images/fcloud65-35_D1.5_6.tif,1.5,1,,,,,,,,,0,35,35,59,,,,,,,,,,,,,,,5,None,5,2.785,,,,,,,,,,,,,,,,,,,2019_Mar_13_1756,60.08781233042441,Cloud_Experiment_FR_REAL,001,24,
images/fcloud_D1.8_5.tif,1.8,0,,,,,,,,,0,36,36,31,,,,,,,,,,,,,,,2,None,4,0.485,,,,,,,,,,,,,,,,,,,2019_Mar_13_1756,60.08781233042441,Cloud_Experiment_FR_REAL,001,24,
images/fcloud_D1_6.tif,1.0,0,,,,,,,,,0,37,37,8,,,,,,,,,,,,,,,2,None,5,1.218,,,,,,,,,,,,,,,,,,,2019_Mar_13_1756,60.08781233042441,Cloud_Experiment_FR_REAL,001,24,
images/fcloud80-20_D1.6_6.tif,1.6,2,,,,,,,,,0,38,38,98,,,,,,,,,,,,,,,None,None,None,12.273,,,,,,,,,,,,,,,,,,,2019_Mar_13_1756,60.08781233042441,Cloud_Experiment_FR_REAL,001,24,
images/fcloud80-20_D1.1_6.tif,1.1,2,,,,,,,,,0,39,39,83,,,,,,,,,,,,,,,None,None,None,21.548,,,,,,,,,,,,,,,,,,,2019_Mar_13_1756,60.08781233042441,Cloud_Experiment_FR_REAL,001,24,
images/fcloud80-20_D1.8_6.tif,1.8,2,,,,,,,,,0,40,40,104,,,,,,,,,,,,,,,1,None,3,1.019,,,,,,,,,,,,,,,,,,,2019_Mar_13_1756,60.08781233042441,Cloud_Experiment_FR_REAL,001,24,
images/fcloud80-20_D0.8_5.tif,0.8,2,,,,,,,,,0,41,41,73,,,,,,,,,,,,,,,2,space,3,2.668,7.783689,,,,,,,,,,,,,,,,,,2019_Mar_13_1756,60.08781233042441,Cloud_Experiment_FR_REAL,001,24,
images/fcloud80-20_D1.1_4.tif,1.1,2,,,,,,,,,0,42,42,81,,,,,,,,,,,,,,,None,None,None,11.557,,,,,,,,,,,,,,,,,,,2019_Mar_13_1756,60.08781233042441,Cloud_Experiment_FR_REAL,001,24,
images/fcloud_D1.5_5.tif,1.5,0,,,,,,,,,0,43,43,22,,,,,,,,,,,,,,,2,None,4,1.934,,,,,,,,,,,,,,,,,,,2019_Mar_13_1756,60.08781233042441,Cloud_Experiment_FR_REAL,001,24,
images/fcloud65-35_D0.9_5.tif,0.9,1,,,,,,,,,0,44,44,40,,,,,,,,,,,,,,,2,None,3,0.752,,,,,,,,,,,,,,,,,,,2019_Mar_13_1756,60.08781233042441,Cloud_Experiment_FR_REAL,001,24,
images/fcloud_D1.3_6.tif,1.3,0,,,,,,,,,0,45,45,17,,,,,,,,,,,,,,,4,None,4,2.367,,,,,,,,,,,,,,,,,,,2019_Mar_13_1756,60.08781233042441,Cloud_Experiment_FR_REAL,001,24,
images/fcloud_D1.7_5.tif,1.7,0,,,,,,,,,0,46,46,28,,,,,,,,,,,,,,,None,None,None,11.391,,,,,,,,,,,,,,,,,,,2019_Mar_13_1756,60.08781233042441,Cloud_Experiment_FR_REAL,001,24,
images/fcloud80-20_D0.8_4.tif,0.8,2,,,,,,,,,0,47,47,72,,,,,,,,,,,,,,,None,None,None,20.166,,,,,,,,,,,,,,,,,,,2019_Mar_13_1756,60.08781233042441,Cloud_Experiment_FR_REAL,001,24,
images/fcloud80-20_D1.6_5.tif,1.6,2,,,,,,,,,0,48,48,97,,,,,,,,,,,,,,,1,None,2,2.434,,,,,,,,,,,,,,,,,,,2019_Mar_13_1756,60.08781233042441,Cloud_Experiment_FR_REAL,001,24,
images/fcloud80-20_D1.7_5.tif,1.7,2,,,,,,,,,0,49,49,100,,,,,,,,,,,,,,,2,space,4,1.433,6.83783,,,,,,,,,,,,,,,,,,2019_Mar_13_1756,60.08781233042441,Cloud_Experiment_FR_REAL,001,24,
images/fcloud_D1.1_4.tif,1.1,0,,,,,,,,,0,50,50,9,,,,,,,,,,,,,,,3,None,4,1.984,,,,,,,,,,,,,,,,,,,2019_Mar_13_1756,60.08781233042441,Cloud_Experiment_FR_REAL,001,24,
images/fcloud80-20_D1.4_4.tif,1.4,2,,,,,,,,,0,51,51,90,,,,,,,,,,,,,,,1,None,5,2.268,,,,,,,,,,,,,,,,,,,2019_Mar_13_1756,60.08781233042441,Cloud_Experiment_FR_REAL,001,24,
images/fcloud_D1.2_6.tif,1.2,0,,,,,,,,,0,52,52,14,,,,,,,,,,,,,,,3,None,5,0.484,,,,,,,,,,,,,,,,,,,2019_Mar_13_1756,60.08781233042441,Cloud_Experiment_FR_REAL,001,24,
images/fcloud80-20_D1_5.tif,1.0,2,,,,,,,,,0,53,53,79,,,,,,,,,,,,,,,1,None,4,0.669,,,,,,,,,,,,,,,,,,,2019_Mar_13_1756,60.08781233042441,Cloud_Experiment_FR_REAL,001,24,
images/fcloud65-35_D1.7_6.tif,1.7,1,,,,,,,,,0,54,54,65,,,,,,,,,,,,,,,None,None,None,9.643,,,,,,,,,,,,,,,,,,,2019_Mar_13_1756,60.08781233042441,Cloud_Experiment_FR_REAL,001,24,
images/fcloud65-35_D1.4_4.tif,1.4,1,,,,,,,,,0,55,55,54,,,,,,,,,,,,,,,1,None,2,0.484,,,,,,,,,,,,,,,,,,,2019_Mar_13_1756,60.08781233042441,Cloud_Experiment_FR_REAL,001,24,
images/fcloud65-35_D0.9_4.tif,0.9,1,,,,,,,,,0,56,56,39,,,,,,,,,,,,,,,1,None,3,0.585,,,,,,,,,,,,,,,,,,,2019_Mar_13_1756,60.08781233042441,Cloud_Experiment_FR_REAL,001,24,
images/fcloud80-20_D1.3_4.tif,1.3,2,,,,,,,,,0,57,57,87,,,,,,,,,,,,,,,None,None,None,9.844,,,,,,,,,,,,,,,,,,,2019_Mar_13_1756,60.08781233042441,Cloud_Experiment_FR_REAL,001,24,
images/fcloud_D0.9_5.tif,0.9,0,,,,,,,,,0,58,58,4,,,,,,,,,,,,,,,3,None,4,0.901,,,,,,,,,,,,,,,,,,,2019_Mar_13_1756,60.08781233042441,Cloud_Experiment_FR_REAL,001,24,
images/fcloud_D1.2_5.tif,1.2,0,,,,,,,,,0,59,59,13,,,,,,,,,,,,,,,3,None,5,0.968,,,,,,,,,,,,,,,,,,,2019_Mar_13_1756,60.08781233042441,Cloud_Experiment_FR_REAL,001,24,
images/fcloud_D1.6_6.tif,1.6,0,,,,,,,,,0,60,60,26,,,,,,,,,,,,,,,1,None,4,1.453,,,,,,,,,,,,,,,,,,,2019_Mar_13_1756,60.08781233042441,Cloud_Experiment_FR_REAL,001,24,
images/fcloud65-35_D1_6.tif,1.0,1,,,,,,,,,0,61,61,44,,,,,,,,,,,,,,,1,None,3,0.867,,,,,,,,,,,,,,,,,,,2019_Mar_13_1756,60.08781233042441,Cloud_Experiment_FR_REAL,001,24,
images/fcloud_D1.4_6.tif,1.4,0,,,,,,,,,0,62,62,20,,,,,,,,,,,,,,,1,None,3,0.802,,,,,,,,,,,,,,,,,,,2019_Mar_13_1756,60.08781233042441,Cloud_Experiment_FR_REAL,001,24,
images/fcloud65-35_D1.5_5.tif,1.5,1,,,,,,,,,0,63,63,58,,,,,,,,,,,,,,,None,None,None,9.643,,,,,,,,,,,,,,,,,,,2019_Mar_13_1756,60.08781233042441,Cloud_Experiment_FR_REAL,001,24,
images/fcloud80-20_D1.8_5.tif,1.8,2,,,,,,,,,0,64,64,103,,,,,,,,,,,,,,,None,None,None,18.568,,,,,,,,,,,,,,,,,,,2019_Mar_13_1756,60.08781233042441,Cloud_Experiment_FR_REAL,001,24,
images/fcloud_D1.1_6.tif,1.1,0,,,,,,,,,0,65,65,11,,,,,,,,,,,,,,,None,None,None,27.163,,,,,,,,,,,,,,,,,,,2019_Mar_13_1756,60.08781233042441,Cloud_Experiment_FR_REAL,001,24,
images/fcloud80-20_D0.9_5.tif,0.9,2,,,,,,,,,0,66,66,76,,,,,,,,,,,,,,,1,space,2,3.715,6.6428468,,,,,,,,,,,,,,,,,,2019_Mar_13_1756,60.08781233042441,Cloud_Experiment_FR_REAL,001,24,
images/fcloud80-20_D0.8_6.tif,0.8,2,,,,,,,,,0,67,67,74,,,,,,,,,,,,,,,2,None,4,0.453,,,,,,,,,,,,,,,,,,,2019_Mar_13_1756,60.08781233042441,Cloud_Experiment_FR_REAL,001,24,
images/fcloud80-20_D1.8_4.tif,1.8,2,,,,,,,,,0,68,68,102,,,,,,,,,,,,,,,None,None,None,9.66,,,,,,,,,,,,,,,,,,,2019_Mar_13_1756,60.08781233042441,Cloud_Experiment_FR_REAL,001,24,
images/fcloud_D1.7_4.tif,1.7,0,,,,,,,,,0,69,69,27,,,,,,,,,,,,,,,2,None,4,0.468,,,,,,,,,,,,,,,,,,,2019_Mar_13_1756,60.08781233042441,Cloud_Experiment_FR_REAL,001,24,
images/fcloud65-35_D1.1_5.tif,1.1,1,,,,,,,,,0,70,70,46,,,,,,,,,,,,,,,2,None,4,2.251,,,,,,,,,,,,,,,,,,,2019_Mar_13_1756,60.08781233042441,Cloud_Experiment_FR_REAL,001,24,
images/fcloud80-20_D1.7_4.tif,1.7,2,,,,,,,,,0,71,71,99,,,,,,,,,,,,,,,None,None,None,10.675,,,,,,,,,,,,,,,,,,,2019_Mar_13_1756,60.08781233042441,Cloud_Experiment_FR_REAL,001,24,
images/fcloud80-20_D1.9_4.tif,1.9,2,,,,,,,,,0,72,72,105,,,,,,,,,,,,,,,None,None,None,19.635,,,,,,,,,,,,,,,,,,,2019_Mar_13_1756,60.08781233042441,Cloud_Experiment_FR_REAL,001,24,
images/fcloud_D1.6_5.tif,1.6,0,,,,,,,,,0,73,73,25,,,,,,,,,,,,,,,None,None,None,28.977,,,,,,,,,,,,,,,,,,,2019_Mar_13_1756,60.08781233042441,Cloud_Experiment_FR_REAL,001,24,
images/fcloud65-35_D0.8_4.tif,0.8,1,,,,,,,,,0,74,74,36,,,,,,,,,,,,,,,2,None,4,0.567,,,,,,,,,,,,,,,,,,,2019_Mar_13_1756,60.08781233042441,Cloud_Experiment_FR_REAL,001,24,
images/fcloud65-35_D0.8_6.tif,0.8,1,,,,,,,,,0,75,75,38,,,,,,,,,,,,,,,3,None,5,0.668,,,,,,,,,,,,,,,,,,,2019_Mar_13_1756,60.08781233042441,Cloud_Experiment_FR_REAL,001,24,
images/fcloud_D0.8_4.tif,0.8,0,,,,,,,,,0,76,76,0,,,,,,,,,,,,,,,2,None,4,1.385,,,,,,,,,,,,,,,,,,,2019_Mar_13_1756,60.08781233042441,Cloud_Experiment_FR_REAL,001,24,
images/fcloud65-35_D1.9_6.tif,1.9,1,,,,,,,,,0,77,77,71,,,,,,,,,,,,,,,2,None,3,0.585,,,,,,,,,,,,,,,,,,,2019_Mar_13_1756,60.08781233042441,Cloud_Experiment_FR_REAL,001,24,
images/fcloud80-20_D1.4_5.tif,1.4,2,,,,,,,,,0,78,78,91,,,,,,,,,,,,,,,1,None,5,0.668,,,,,,,,,,,,,,,,,,,2019_Mar_13_1756,60.08781233042441,Cloud_Experiment_FR_REAL,001,24,
images/fcloud65-35_D1.3_5.tif,1.3,1,,,,,,,,,0,79,79,52,,,,,,,,,,,,,,,None,None,None,9.609,,,,,,,,,,,,,,,,,,,2019_Mar_13_1756,60.08781233042441,Cloud_Experiment_FR_REAL,001,24,
images/fcloud_D1.6_4.tif,1.6,0,,,,,,,,,0,80,80,24,,,,,,,,,,,,,,,2,None,4,0.717,,,,,,,,,,,,,,,,,,,2019_Mar_13_1756,60.08781233042441,Cloud_Experiment_FR_REAL,001,24,
images/fcloud_D1.1_5.tif,1.1,0,,,,,,,,,0,81,81,10,,,,,,,,,,,,,,,1,space,3,0.785,4.997291,,,,,,,,,,,,,,,,,,2019_Mar_13_1756,60.08781233042441,Cloud_Experiment_FR_REAL,001,24,
images/fcloud65-35_D1.1_4.tif,1.1,1,,,,,,,,,0,82,82,45,,,,,,,,,,,,,,,None,None,None,9.809,,,,,,,,,,,,,,,,,,,2019_Mar_13_1756,60.08781233042441,Cloud_Experiment_FR_REAL,001,24,
images/fcloud65-35_D1_5.tif,1.0,1,,,,,,,,,0,83,83,43,,,,,,,,,,,,,,,3,None,5,1.319,,,,,,,,,,,,,,,,,,,2019_Mar_13_1756,60.08781233042441,Cloud_Experiment_FR_REAL,001,24,
images/fcloud_D1.8_4.tif,1.8,0,,,,,,,,,0,84,84,30,,,,,,,,,,,,,,,None,None,None,10.411,,,,,,,,,,,,,,,,,,,2019_Mar_13_1756,60.08781233042441,Cloud_Experiment_FR_REAL,001,24,
images/fcloud65-35_D1.1_6.tif,1.1,1,,,,,,,,,0,85,85,47,,,,,,,,,,,,,,,1,space,3,0.635,5.2481645,,,,,,,,,,,,,,,,,,2019_Mar_13_1756,60.08781233042441,Cloud_Experiment_FR_REAL,001,24,
images/fcloud80-20_D1_6.tif,1.0,2,,,,,,,,,0,86,86,80,,,,,,,,,,,,,,,2,None,4,0.486,,,,,,,,,,,,,,,,,,,2019_Mar_13_1756,60.08781233042441,Cloud_Experiment_FR_REAL,001,24,
images/fcloud80-20_D1_4.tif,1.0,2,,,,,,,,,0,87,87,78,,,,,,,,,,,,,,,None,None,None,9.692,,,,,,,,,,,,,,,,,,,2019_Mar_13_1756,60.08781233042441,Cloud_Experiment_FR_REAL,001,24,
images/fcloud80-20_D1.9_5.tif,1.9,2,,,,,,,,,0,88,88,106,,,,,,,,,,,,,,,None,None,None,18.553,,,,,,,,,,,,,,,,,,,2019_Mar_13_1756,60.08781233042441,Cloud_Experiment_FR_REAL,001,24,
images/fcloud_D1.3_4.tif,1.3,0,,,,,,,,,0,89,89,15,,,,,,,,,,,,,,,3,None,5,0.535,,,,,,,,,,,,,,,,,,,2019_Mar_13_1756,60.08781233042441,Cloud_Experiment_FR_REAL,001,24,
images/fcloud_D1.9_4.tif,1.9,0,,,,,,,,,0,90,90,33,,,,,,,,,,,,,,,2,None,3,0.702,,,,,,,,,,,,,,,,,,,2019_Mar_13_1756,60.08781233042441,Cloud_Experiment_FR_REAL,001,24,
images/fcloud_D1_5.tif,1.0,0,,,,,,,,,0,91,91,7,,,,,,,,,,,,,,,1,None,3,0.834,,,,,,,,,,,,,,,,,,,2019_Mar_13_1756,60.08781233042441,Cloud_Experiment_FR_REAL,001,24,
images/fcloud_D1.5_6.tif,1.5,0,,,,,,,,,0,92,92,23,,,,,,,,,,,,,,,None,None,None,9.792,,,,,,,,,,,,,,,,,,,2019_Mar_13_1756,60.08781233042441,Cloud_Experiment_FR_REAL,001,24,
images/fcloud_D0.9_4.tif,0.9,0,,,,,,,,,0,93,93,3,,,,,,,,,,,,,,,2,None,1,1.085,,,,,,,,,,,,,,,,,,,2019_Mar_13_1756,60.08781233042441,Cloud_Experiment_FR_REAL,001,24,
images/fcloud65-35_D1_4.tif,1.0,1,,,,,,,,,0,94,94,42,,,,,,,,,,,,,,,1,None,3,0.852,,,,,,,,,,,,,,,,,,,2019_Mar_13_1756,60.08781233042441,Cloud_Experiment_FR_REAL,001,24,
images/fcloud_D0.8_6.tif,0.8,0,,,,,,,,,0,95,95,2,,,,,,,,,,,,,,,3,None,4,1.188,,,,,,,,,,,,,,,,,,,2019_Mar_13_1756,60.08781233042441,Cloud_Experiment_FR_REAL,001,24,
images/fcloud65-35_D1.7_4.tif,1.7,1,,,,,,,,,0,96,96,63,,,,,,,,,,,,,,,None,None,None,10.609,,,,,,,,,,,,,,,,,,,2019_Mar_13_1756,60.08781233042441,Cloud_Experiment_FR_REAL,001,24,
images/fcloud65-35_D1.4_5.tif,1.4,1,,,,,,,,,0,97,97,55,,,,,,,,,,,,,,,2,None,4,0.818,,,,,,,,,,,,,,,,,,,2019_Mar_13_1756,60.08781233042441,Cloud_Experiment_FR_REAL,001,24,
images/fcloud65-35_D1.2_6.tif,1.2,1,,,,,,,,,0,98,98,50,,,,,,,,,,,,,,,1,None,5,0.535,,,,,,,,,,,,,,,,,,,2019_Mar_13_1756,60.08781233042441,Cloud_Experiment_FR_REAL,001,24,
images/fcloud65-35_D1.6_4.tif,1.6,1,,,,,,,,,0,99,99,60,,,,,,,,,,,,,,,None,None,None,10.742,,,,,,,,,,,,,,,,,,,2019_Mar_13_1756,60.08781233042441,Cloud_Experiment_FR_REAL,001,24,
images/fcloud_D1.7_6.tif,1.7,0,,,,,,,,,0,100,100,29,,,,,,,,,,,,,,,None,None,None,20.0,,,,,,,,,,,,,,,,,,,2019_Mar_13_1756,60.08781233042441,Cloud_Experiment_FR_REAL,001,24,
images/fcloud_D1_4.tif,1.0,0,,,,,,,,,0,101,101,6,,,,,,,,,,,,,,,None,None,None,29.443,,,,,,,,,,,,,,,,,,,2019_Mar_13_1756,60.08781233042441,Cloud_Experiment_FR_REAL,001,24,
images/fcloud65-35_D1.2_4.tif,1.2,1,,,,,,,,,0,102,102,48,,,,,,,,,,,,,,,2,None,4,0.717,,,,,,,,,,,,,,,,,,,2019_Mar_13_1756,60.08781233042441,Cloud_Experiment_FR_REAL,001,24,
images/fcloud_D1.4_5.tif,1.4,0,,,,,,,,,0,103,103,19,,,,,,,,,,,,,,,2,None,1,2.184,,,,,,,,,,,,,,,,,,,2019_Mar_13_1756,60.08781233042441,Cloud_Experiment_FR_REAL,001,24,
images/fcloud80-20_D1.3_5.tif,1.3,2,,,,,,,,,0,104,104,88,,,,,,,,,,,,,,,2,None,2,1.419,,,,,,,,,,,,,,,,,,,2019_Mar_13_1756,60.08781233042441,Cloud_Experiment_FR_REAL,001,24,
images/fcloud_D0.8_5.tif,0.8,0,,,,,,,,,0,105,105,1,,,,,,,,,,,,,,,4,None,4,1.768,,,,,,,,,,,,,,,,,,,2019_Mar_13_1756,60.08781233042441,Cloud_Experiment_FR_REAL,001,24,
images/fcloud80-20_D1.3_6.tif,1.3,2,,,,,,,,,0,106,106,89,,,,,,,,,,,,,,,None,None,None,10.958,,,,,,,,,,,,,,,,,,,2019_Mar_13_1756,60.08781233042441,Cloud_Experiment_FR_REAL,001,24,
images/fcloud65-35_D1.8_6.tif,1.8,1,,,,,,,,,0,107,107,68,,,,,,,,,,,,,,,2,None,2,1.417,,,,,,,,,,,,,,,,,,,2019_Mar_13_1756,60.08781233042441,Cloud_Experiment_FR_REAL,001,24,
,,,,,,,,,,,,,,,,,,,,,,,,,,,,,,,,,,,,,,,,,,,,,,space,7.1793897,,,,2019_Mar_13_1756,60.08781233042441,Cloud_Experiment_FR_REAL,001,24,
,,,,,,,,,,,,,,,,,,,,,,,,,4,7.289,,,,,,,,,,,,,,,,,,,,,,,,,2019_Mar_13_1756,60.08781233042441,Cloud_Experiment_FR_REAL,001,24,
,,,,,,,,,,,,,,,,,,,,,,,,,,,,,,,,,,4,,,,,,,,,,,,,,,,,2019_Mar_13_1756,60.08781233042441,Cloud_Experiment_FR_REAL,001,24,
,,,,,,,,,,,,,,,,,,,,,,,,,,,,,,,,,,,5,,,,,,,,,,,,,,,,2019_Mar_13_1756,60.08781233042441,Cloud_Experiment_FR_REAL,001,24,
,,,,,,,,,,,,,,,,,,,,,,,,,,,,,,,,,,,,4,,,,,,,,,,,,,,,2019_Mar_13_1756,60.08781233042441,Cloud_Experiment_FR_REAL,001,24,
,,,,,,,,,,,,,,,,,,,,,,,,,,,,,,,,,,,,,3,,,,,,,,,,,,,,2019_Mar_13_1756,60.08781233042441,Cloud_Experiment_FR_REAL,001,24,
,,,,,,,,,,,,,,,,,,,,,,,,,,,,,,,,,,,,,,3,,,,,,,,,,,,,2019_Mar_13_1756,60.08781233042441,Cloud_Experiment_FR_REAL,001,24,
,,,,,,,,,,,,,,,,,,,,,,,,,,,,,,,,,,,,,,,5,,,,,,,,,,,,2019_Mar_13_1756,60.08781233042441,Cloud_Experiment_FR_REAL,001,24,
,,,,,,,,,,,,,,,,,,,,,,,,,,,,,,,,,,,,,,,,5,,,,,,,,,,,2019_Mar_13_1756,60.08781233042441,Cloud_Experiment_FR_REAL,001,24,
,,,,,,,,,,,,,,,,,,,,,,,,,,,,,,,,,,,,,,,,,7,,,,,,,,,,2019_Mar_13_1756,60.08781233042441,Cloud_Experiment_FR_REAL,001,24,
,,,,,,,,,,,,,,,,,,,,,,,,,,,,,,,,,,,,,,,,,,4,,,,,,,,,2019_Mar_13_1756,60.08781233042441,Cloud_Experiment_FR_REAL,001,24,
,,,,,,,,,,,,,,,,,,,,,,,,,,,,,,,,,,,,,,,,,,,6,,,,,,,,2019_Mar_13_1756,60.08781233042441,Cloud_Experiment_FR_REAL,001,24,
,,,,,,,,,,,,,,,,,,,,,,,,,,,,,,,,,,,,,,,,,,,,,,,,space,195.3487483,,2019_Mar_13_1756,60.08781233042441,Cloud_Experiment_FR_REAL,001,24,
images/fcloud80-20_D1.7_7.tif,1.7,2,,,,,,,,,,,,,0,0,0,132,,,,,,,,,,,2,None,3,1.051,,,,,,,,,,,,,,,,,,,2019_Mar_13_1756,60.08781233042441,Cloud_Experiment_FR_REAL,001,24,
images/fcloud80-20_D1.9_7.tif,1.9,2,,,,,,,,,,,,,0,1,1,140,,,,,,,,,,,None,None,None,10.326,,,,,,,,,,,,,,,,,,,2019_Mar_13_1756,60.08781233042441,Cloud_Experiment_FR_REAL,001,24,
images/fcloud_D1.2_9.tif,1.2,0,,,,,,,,,,,,,0,2,2,18,,,,,,,,,,,2,None,3,0.453,,,,,,,,,,,,,,,,,,,2019_Mar_13_1756,60.08781233042441,Cloud_Experiment_FR_REAL,001,24,
images/fcloud65-35_D1.7_8.tif,1.7,1,,,,,,,,,,,,,0,3,3,85,,,,,,,,,,,2,None,3,0.836,,,,,,,,,,,,,,,,,,,2019_Mar_13_1756,60.08781233042441,Cloud_Experiment_FR_REAL,001,24,
images/fcloud65-35_D1.4_9.tif,1.4,1,,,,,,,,,,,,,0,4,4,74,,,,,,,,,,,1,None,1,0.952,,,,,,,,,,,,,,,,,,,2019_Mar_13_1756,60.08781233042441,Cloud_Experiment_FR_REAL,001,24,
images/fcloud65-35_D1.8_8.tif,1.8,1,,,,,,,,,,,,,0,5,5,89,,,,,,,,,,,None,None,None,10.394,,,,,,,,,,,,,,,,,,,2019_Mar_13_1756,60.08781233042441,Cloud_Experiment_FR_REAL,001,24,
images/fcloud65-35_D1.3_9.tif,1.3,1,,,,,,,,,,,,,0,6,6,70,,,,,,,,,,,2,None,3,1.47,,,,,,,,,,,,,,,,,,,2019_Mar_13_1756,60.08781233042441,Cloud_Experiment_FR_REAL,001,24,
images/fcloud65-35_D1.6_7.tif,1.6,1,,,,,,,,,,,,,0,7,7,80,,,,,,,,,,,1,None,4,0.652,,,,,,,,,,,,,,,,,,,2019_Mar_13_1756,60.08781233042441,Cloud_Experiment_FR_REAL,001,24,
images/fcloud80-20_D1.7_8.tif,1.7,2,,,,,,,,,,,,,0,8,8,133,,,,,,,,,,,1,None,3,0.87,,,,,,,,,,,,,,,,,,,2019_Mar_13_1756,60.08781233042441,Cloud_Experiment_FR_REAL,001,24,
images/fcloud65-35_D1.9_9.tif,1.9,1,,,,,,,,,,,,,0,9,9,94,,,,,,,,,,,1,None,2,0.486,,,,,,,,,,,,,,,,,,,2019_Mar_13_1756,60.08781233042441,Cloud_Experiment_FR_REAL,001,24,
images/fcloud80-20_D1.5_8.tif,1.5,2,,,,,,,,,,,,,0,10,10,125,,,,,,,,,,,2,None,4,0.501,,,,,,,,,,,,,,,,,,,2019_Mar_13_1756,60.08781233042441,Cloud_Experiment_FR_REAL,001,24,
images/fcloud80-20_D1_7.tif,1.0,2,,,,,,,,,,,,,0,11,11,104,,,,,,,,,,,None,None,None,9.476,,,,,,,,,,,,,,,,,,,2019_Mar_13_1756,60.08781233042441,Cloud_Experiment_FR_REAL,001,24,
images/fcloud80-20_D1.2_7.tif,1.2,2,,,,,,,,,,,,,0,12,12,112,,,,,,,,,,,1,None,2,0.935,,,,,,,,,,,,,,,,,,,2019_Mar_13_1756,60.08781233042441,Cloud_Experiment_FR_REAL,001,24,
images/fcloud80-20_D1.9_10.tif,1.9,2,,,,,,,,,,,,,0,13,13,143,,,,,,,,,,,1,None,2,0.869,,,,,,,,,,,,,,,,,,,2019_Mar_13_1756,60.08781233042441,Cloud_Experiment_FR_REAL,001,24,
images/fcloud65-35_D1.5_7.tif,1.5,1,,,,,,,,,,,,,0,14,14,76,,,,,,,,,,,1,None,2,0.801,,,,,,,,,,,,,,,,,,,2019_Mar_13_1756,60.08781233042441,Cloud_Experiment_FR_REAL,001,24,
images/fcloud65-35_D1.4_10.tif,1.4,1,,,,,,,,,,,,,0,15,15,75,,,,,,,,,,,1,None,5,0.702,,,,,,,,,,,,,,,,,,,2019_Mar_13_1756,60.08781233042441,Cloud_Experiment_FR_REAL,001,24,
images/fcloud65-35_D0.9_9.tif,0.9,1,,,,,,,,,,,,,0,16,16,54,,,,,,,,,,,2,None,4,0.535,,,,,,,,,,,,,,,,,,,2019_Mar_13_1756,60.08781233042441,Cloud_Experiment_FR_REAL,001,24,
images/fcloud80-20_D1.3_10.tif,1.3,2,,,,,,,,,,,,,0,17,17,119,,,,,,,,,,,None,None,None,10.61,,,,,,,,,,,,,,,,,,,2019_Mar_13_1756,60.08781233042441,Cloud_Experiment_FR_REAL,001,24,
images/fcloud_D1.3_9.tif,1.3,0,,,,,,,,,,,,,0,18,18,22,,,,,,,,,,,3,None,4,0.552,,,,,,,,,,,,,,,,,,,2019_Mar_13_1756,60.08781233042441,Cloud_Experiment_FR_REAL,001,24,
images/fcloud65-35_D1.9_8.tif,1.9,1,,,,,,,,,,,,,0,19,19,93,,,,,,,,,,,None,None,None,9.912,,,,,,,,,,,,,,,,,,,2019_Mar_13_1756,60.08781233042441,Cloud_Experiment_FR_REAL,001,24,
images/fcloud_D0.8_8.tif,0.8,0,,,,,,,,,,,,,0,20,20,1,,,,,,,,,,,2,None,4,0.452,,,,,,,,,,,,,,,,,,,2019_Mar_13_1756,60.08781233042441,Cloud_Experiment_FR_REAL,001,24,
images/fcloud_D1.3_7.tif,1.3,0,,,,,,,,,,,,,0,21,21,20,,,,,,,,,,,1,None,4,0.952,,,,,,,,,,,,,,,,,,,2019_Mar_13_1756,60.08781233042441,Cloud_Experiment_FR_REAL,001,24,
images/fcloud65-35_D1.9_7.tif,1.9,1,,,,,,,,,,,,,0,22,22,92,,,,,,,,,,,None,None,None,9.958,,,,,,,,,,,,,,,,,,,2019_Mar_13_1756,60.08781233042441,Cloud_Experiment_FR_REAL,001,24,
images/fcloud80-20_D1.4_8.tif,1.4,2,,,,,,,,,,,,,0,23,23,121,,,,,,,,,,,None,None,None,20.134,,,,,,,,,,,,,,,,,,,2019_Mar_13_1756,60.08781233042441,Cloud_Experiment_FR_REAL,001,24,
images/fcloud65-35_D1.8_9.tif,1.8,1,,,,,,,,,,,,,0,24,24,90,,,,,,,,,,,2,None,4,0.819,,,,,,,,,,,,,,,,,,,2019_Mar_13_1756,60.08781233042441,Cloud_Experiment_FR_REAL,001,24,
images/fcloud80-20_D1.3_9.tif,1.3,2,,,,,,,,,,,,,0,25,25,118,,,,,,,,,,,1,None,4,0.802,,,,,,,,,,,,,,,,,,,2019_Mar_13_1756,60.08781233042441,Cloud_Experiment_FR_REAL,001,24,
images/fcloud65-35_D1.5_8.tif,1.5,1,,,,,,,,,,,,,0,26,26,77,,,,,,,,,,,2,None,2,0.933,,,,,,,,,,,,,,,,,,,2019_Mar_13_1756,60.08781233042441,Cloud_Experiment_FR_REAL,001,24,
images/fcloud80-20_D1.1_9.tif,1.1,2,,,,,,,,,,,,,0,27,27,110,,,,,,,,,,,1,None,2,1.101,,,,,,,,,,,,,,,,,,,2019_Mar_13_1756,60.08781233042441,Cloud_Experiment_FR_REAL,001,24,
images/fcloud65-35_D0.8_7.tif,0.8,1,,,,,,,,,,,,,0,28,28,48,,,,,,,,,,,2,None,4,0.552,,,,,,,,,,,,,,,,,,,2019_Mar_13_1756,60.08781233042441,Cloud_Experiment_FR_REAL,001,24,
images/fcloud65-35_D1.3_8.tif,1.3,1,,,,,,,,,,,,,0,29,29,69,,,,,,,,,,,1,None,5,0.435,,,,,,,,,,,,,,,,,,,2019_Mar_13_1756,60.08781233042441,Cloud_Experiment_FR_REAL,001,24,
images/fcloud80-20_D1.8_7.tif,1.8,2,,,,,,,,,,,,,0,30,30,136,,,,,,,,,,,1,space,5,2.5,7.9300309,,,,,,,,,,,,,,,,,,2019_Mar_13_1756,60.08781233042441,Cloud_Experiment_FR_REAL,001,24,
images/fcloud_D1.1_10.tif,1.1,0,,,,,,,,,,,,,0,31,31,15,,,,,,,,,,,2,None,5,0.951,,,,,,,,,,,,,,,,,,,2019_Mar_13_1756,60.08781233042441,Cloud_Experiment_FR_REAL,001,24,
images/fcloud80-20_D1_10.tif,1.0,2,,,,,,,,,,,,,0,32,32,107,,,,,,,,,,,None,None,None,10.425,,,,,,,,,,,,,,,,,,,2019_Mar_13_1756,60.08781233042441,Cloud_Experiment_FR_REAL,001,24,
images/fcloud80-20_D1.6_9.tif,1.6,2,,,,,,,,,,,,,0,33,33,130,,,,,,,,,,,None,None,None,28.51,,,,,,,,,,,,,,,,,,,2019_Mar_13_1756,60.08781233042441,Cloud_Experiment_FR_REAL,001,24,
images/fcloud65-35_D0.8_8.tif,0.8,1,,,,,,,,,,,,,0,34,34,49,,,,,,,,,,,2,space,2,1.484,7.9117469,,,,,,,,,,,,,,,,,,2019_Mar_13_1756,60.08781233042441,Cloud_Experiment_FR_REAL,001,24,
images/fcloud65-35_D0.9_7.tif,0.9,1,,,,,,,,,,,,,0,35,35,52,,,,,,,,,,,3,space,4,1.119,7.7927221,,,,,,,,,,,,,,,,,,2019_Mar_13_1756,60.08781233042441,Cloud_Experiment_FR_REAL,001,24,
images/fcloud_D1.1_8.tif,1.1,0,,,,,,,,,,,,,0,36,36,13,,,,,,,,,,,2,None,2,0.786,,,,,,,,,,,,,,,,,,,2019_Mar_13_1756,60.08781233042441,Cloud_Experiment_FR_REAL,001,24,
images/fcloud_D1.3_8.tif,1.3,0,,,,,,,,,,,,,0,37,37,21,,,,,,,,,,,None,None,None,10.026,,,,,,,,,,,,,,,,,,,2019_Mar_13_1756,60.08781233042441,Cloud_Experiment_FR_REAL,001,24,
images/fcloud65-35_D1.2_9.tif,1.2,1,,,,,,,,,,,,,0,38,38,66,,,,,,,,,,,1,None,5,0.835,,,,,,,,,,,,,,,,,,,2019_Mar_13_1756,60.08781233042441,Cloud_Experiment_FR_REAL,001,24,
images/fcloud80-20_D1.6_8.tif,1.6,2,,,,,,,,,,,,,0,39,39,129,,,,,,,,,,,1,None,3,0.636,,,,,,,,,,,,,,,,,,,2019_Mar_13_1756,60.08781233042441,Cloud_Experiment_FR_REAL,001,24,
images/fcloud_D1.9_10.tif,1.9,0,,,,,,,,,,,,,0,40,40,47,,,,,,,,,,,2,None,3,0.701,,,,,,,,,,,,,,,,,,,2019_Mar_13_1756,60.08781233042441,Cloud_Experiment_FR_REAL,001,24,
images/fcloud80-20_D1.8_8.tif,1.8,2,,,,,,,,,,,,,0,41,41,137,,,,,,,,,,,1,None,3,1.318,,,,,,,,,,,,,,,,,,,2019_Mar_13_1756,60.08781233042441,Cloud_Experiment_FR_REAL,001,24,
images/fcloud65-35_D1.7_9.tif,1.7,1,,,,,,,,,,,,,0,42,42,86,,,,,,,,,,,1,space,3,0.685,6.6747132,,,,,,,,,,,,,,,,,,2019_Mar_13_1756,60.08781233042441,Cloud_Experiment_FR_REAL,001,24,
images/fcloud_D1.2_7.tif,1.2,0,,,,,,,,,,,,,0,43,43,16,,,,,,,,,,,2,None,3,1.168,,,,,,,,,,,,,,,,,,,2019_Mar_13_1756,60.08781233042441,Cloud_Experiment_FR_REAL,001,24,
images/fcloud80-20_D0.9_7.tif,0.9,2,,,,,,,,,,,,,0,44,44,100,,,,,,,,,,,1,space,5,0.619,3.9211386,,,,,,,,,,,,,,,,,,2019_Mar_13_1756,60.08781233042441,Cloud_Experiment_FR_REAL,001,24,
images/fcloud_D1.7_8.tif,1.7,0,,,,,,,,,,,,,0,45,45,37,,,,,,,,,,,1,None,2,0.436,,,,,,,,,,,,,,,,,,,2019_Mar_13_1756,60.08781233042441,Cloud_Experiment_FR_REAL,001,24,
images/fcloud_D1.2_10.tif,1.2,0,,,,,,,,,,,,,0,46,46,19,,,,,,,,,,,2,None,5,0.552,,,,,,,,,,,,,,,,,,,2019_Mar_13_1756,60.08781233042441,Cloud_Experiment_FR_REAL,001,24,
images/fcloud65-35_D0.8_10.tif,0.8,1,,,,,,,,,,,,,0,47,47,51,,,,,,,,,,,1,None,4,1.234,,,,,,,,,,,,,,,,,,,2019_Mar_13_1756,60.08781233042441,Cloud_Experiment_FR_REAL,001,24,
images/fcloud_D1.6_8.tif,1.6,0,,,,,,,,,,,,,0,48,48,33,,,,,,,,,,,2,None,4,0.454,,,,,,,,,,,,,,,,,,,2019_Mar_13_1756,60.08781233042441,Cloud_Experiment_FR_REAL,001,24,
images/fcloud65-35_D1.4_7.tif,1.4,1,,,,,,,,,,,,,0,49,49,72,,,,,,,,,,,1,None,4,0.436,,,,,,,,,,,,,,,,,,,2019_Mar_13_1756,60.08781233042441,Cloud_Experiment_FR_REAL,001,24,
images/fcloud65-35_D1.8_7.tif,1.8,1,,,,,,,,,,,,,0,50,50,88,,,,,,,,,,,None,None,None,9.644,,,,,,,,,,,,,,,,,,,2019_Mar_13_1756,60.08781233042441,Cloud_Experiment_FR_REAL,001,24,
images/fcloud65-35_D1.1_9.tif,1.1,1,,,,,,,,,,,,,0,51,51,62,,,,,,,,,,,2,space,4,0.703,7.7647555,,,,,,,,,,,,,,,,,,2019_Mar_13_1756,60.08781233042441,Cloud_Experiment_FR_REAL,001,24,
images/fcloud80-20_D1_8.tif,1.0,2,,,,,,,,,,,,,0,52,52,105,,,,,,,,,,,None,None,None,9.643,,,,,,,,,,,,,,,,,,,2019_Mar_13_1756,60.08781233042441,Cloud_Experiment_FR_REAL,001,24,
images/fcloud80-20_D0.9_9.tif,0.9,2,,,,,,,,,,,,,0,53,53,102,,,,,,,,,,,2,None,3,1.385,,,,,,,,,,,,,,,,,,,2019_Mar_13_1756,60.08781233042441,Cloud_Experiment_FR_REAL,001,24,
images/fcloud_D1.5_7.tif,1.5,0,,,,,,,,,,,,,0,54,54,28,,,,,,,,,,,2,None,4,0.835,,,,,,,,,,,,,,,,,,,2019_Mar_13_1756,60.08781233042441,Cloud_Experiment_FR_REAL,001,24,
images/fcloud80-20_D1_9.tif,1.0,2,,,,,,,,,,,,,0,55,55,106,,,,,,,,,,,1,None,4,0.884,,,,,,,,,,,,,,,,,,,2019_Mar_13_1756,60.08781233042441,Cloud_Experiment_FR_REAL,001,24,
images/fcloud80-20_D0.9_10.tif,0.9,2,,,,,,,,,,,,,0,56,56,103,,,,,,,,,,,1,None,2,0.669,,,,,,,,,,,,,,,,,,,2019_Mar_13_1756,60.08781233042441,Cloud_Experiment_FR_REAL,001,24,
images/fcloud65-35_D1.7_7.tif,1.7,1,,,,,,,,,,,,,0,57,57,84,,,,,,,,,,,1,None,3,0.885,,,,,,,,,,,,,,,,,,,2019_Mar_13_1756,60.08781233042441,Cloud_Experiment_FR_REAL,001,24,
images/fcloud65-35_D1.2_8.tif,1.2,1,,,,,,,,,,,,,0,58,58,65,,,,,,,,,,,3,None,4,0.835,,,,,,,,,,,,,,,,,,,2019_Mar_13_1756,60.08781233042441,Cloud_Experiment_FR_REAL,001,24,
images/fcloud80-20_D1.4_7.tif,1.4,2,,,,,,,,,,,,,0,59,59,120,,,,,,,,,,,None,None,None,10.159,,,,,,,,,,,,,,,,,,,2019_Mar_13_1756,60.08781233042441,Cloud_Experiment_FR_REAL,001,24,
images/fcloud_D1.8_8.tif,1.8,0,,,,,,,,,,,,,0,60,60,41,,,,,,,,,,,None,None,None,19.267,,,,,,,,,,,,,,,,,,,2019_Mar_13_1756,60.08781233042441,Cloud_Experiment_FR_REAL,001,24,
images/fcloud80-20_D1.7_9.tif,1.7,2,,,,,,,,,,,,,0,61,61,134,,,,,,,,,,,2,space,2,2.1,7.1886041,,,,,,,,,,,,,,,,,,2019_Mar_13_1756,60.08781233042441,Cloud_Experiment_FR_REAL,001,24,
images/fcloud_D0.9_8.tif,0.9,0,,,,,,,,,,,,,0,62,62,5,,,,,,,,,,,2,None,4,0.719,,,,,,,,,,,,,,,,,,,2019_Mar_13_1756,60.08781233042441,Cloud_Experiment_FR_REAL,001,24,
images/fcloud65-35_D1.6_8.tif,1.6,1,,,,,,,,,,,,,0,63,63,81,,,,,,,,,,,2,None,4,0.618,,,,,,,,,,,,,,,,,,,2019_Mar_13_1756,60.08781233042441,Cloud_Experiment_FR_REAL,001,24,
images/fcloud65-35_D0.9_8.tif,0.9,1,,,,,,,,,,,,,0,64,64,53,,,,,,,,,,,2,None,1,0.668,,,,,,,,,,,,,,,,,,,2019_Mar_13_1756,60.08781233042441,Cloud_Experiment_FR_REAL,001,24,
images/fcloud65-35_D1.5_10.tif,1.5,1,,,,,,,,,,,,,0,65,65,79,,,,,,,,,,,1,None,4,0.519,,,,,,,,,,,,,,,,,,,2019_Mar_13_1756,60.08781233042441,Cloud_Experiment_FR_REAL,001,24,
images/fcloud80-20_D0.8_9.tif,0.8,2,,,,,,,,,,,,,0,66,66,98,,,,,,,,,,,3,None,5,0.569,,,,,,,,,,,,,,,,,,,2019_Mar_13_1756,60.08781233042441,Cloud_Experiment_FR_REAL,001,24,
images/fcloud80-20_D1.1_7.tif,1.1,2,,,,,,,,,,,,,0,67,67,108,,,,,,,,,,,2,space,5,0.85,7.6369053,,,,,,,,,,,,,,,,,,2019_Mar_13_1756,60.08781233042441,Cloud_Experiment_FR_REAL,001,24,
images/fcloud80-20_D1.8_10.tif,1.8,2,,,,,,,,,,,,,0,68,68,139,,,,,,,,,,,1,None,3,1.169,,,,,,,,,,,,,,,,,,,2019_Mar_13_1756,60.08781233042441,Cloud_Experiment_FR_REAL,001,24,
images/fcloud_D1_8.tif,1.0,0,,,,,,,,,,,,,0,69,69,9,,,,,,,,,,,2,None,4,0.485,,,,,,,,,,,,,,,,,,,2019_Mar_13_1756,60.08781233042441,Cloud_Experiment_FR_REAL,001,24,
images/fcloud80-20_D1.7_10.tif,1.7,2,,,,,,,,,,,,,0,70,70,135,,,,,,,,,,,1,space,4,0.686,4.03635,,,,,,,,,,,,,,,,,,2019_Mar_13_1756,60.08781233042441,Cloud_Experiment_FR_REAL,001,24,
images/fcloud80-20_D1.2_10.tif,1.2,2,,,,,,,,,,,,,0,71,71,115,,,,,,,,,,,2,None,4,2.168,,,,,,,,,,,,,,,,,,,2019_Mar_13_1756,60.08781233042441,Cloud_Experiment_FR_REAL,001,24,
images/fcloud_D0.8_10.tif,0.8,0,,,,,,,,,,,,,0,72,72,3,,,,,,,,,,,3,None,4,0.551,,,,,,,,,,,,,,,,,,,2019_Mar_13_1756,60.08781233042441,Cloud_Experiment_FR_REAL,001,24,
images/fcloud_D0.8_7.tif,0.8,0,,,,,,,,,,,,,0,73,73,0,,,,,,,,,,,2,None,3,0.517,,,,,,,,,,,,,,,,,,,2019_Mar_13_1756,60.08781233042441,Cloud_Experiment_FR_REAL,001,24,
images/fcloud80-20_D1.9_8.tif,1.9,2,,,,,,,,,,,,,0,74,74,141,,,,,,,,,,,None,None,None,9.609,,,,,,,,,,,,,,,,,,,2019_Mar_13_1756,60.08781233042441,Cloud_Experiment_FR_REAL,001,24,
images/fcloud65-35_D1.6_9.tif,1.6,1,,,,,,,,,,,,,0,75,75,82,,,,,,,,,,,1,None,3,0.62,,,,,,,,,,,,,,,,,,,2019_Mar_13_1756,60.08781233042441,Cloud_Experiment_FR_REAL,001,24,
images/fcloud65-35_D1.7_10.tif,1.7,1,,,,,,,,,,,,,0,76,76,87,,,,,,,,,,,None,None,None,9.909,,,,,,,,,,,,,,,,,,,2019_Mar_13_1756,60.08781233042441,Cloud_Experiment_FR_REAL,001,24,
images/fcloud80-20_D1.4_10.tif,1.4,2,,,,,,,,,,,,,0,77,77,123,,,,,,,,,,,3,None,4,0.535,,,,,,,,,,,,,,,,,,,2019_Mar_13_1756,60.08781233042441,Cloud_Experiment_FR_REAL,001,24,
images/fcloud65-35_D1_8.tif,1.0,1,,,,,,,,,,,,,0,78,78,57,,,,,,,,,,,3,None,4,0.852,,,,,,,,,,,,,,,,,,,2019_Mar_13_1756,60.08781233042441,Cloud_Experiment_FR_REAL,001,24,
images/fcloud_D1.8_7.tif,1.8,0,,,,,,,,,,,,,0,79,79,40,,,,,,,,,,,None,None,None,10.144,,,,,,,,,,,,,,,,,,,2019_Mar_13_1756,60.08781233042441,Cloud_Experiment_FR_REAL,001,24,
images/fcloud_D1.5_9.tif,1.5,0,,,,,,,,,,,,,0,80,80,30,,,,,,,,,,,2,None,2,0.917,,,,,,,,,,,,,,,,,,,2019_Mar_13_1756,60.08781233042441,Cloud_Experiment_FR_REAL,001,24,
images/fcloud80-20_D0.8_8.tif,0.8,2,,,,,,,,,,,,,0,81,81,97,,,,,,,,,,,2,None,3,0.802,,,,,,,,,,,,,,,,,,,2019_Mar_13_1756,60.08781233042441,Cloud_Experiment_FR_REAL,001,24,
images/fcloud_D1_9.tif,1.0,0,,,,,,,,,,,,,0,82,82,10,,,,,,,,,,,2,None,4,0.602,,,,,,,,,,,,,,,,,,,2019_Mar_13_1756,60.08781233042441,Cloud_Experiment_FR_REAL,001,24,
images/fcloud_D1.7_9.tif,1.7,0,,,,,,,,,,,,,0,83,83,38,,,,,,,,,,,2,None,3,0.419,,,,,,,,,,,,,,,,,,,2019_Mar_13_1756,60.08781233042441,Cloud_Experiment_FR_REAL,001,24,
images/fcloud_D1.5_8.tif,1.5,0,,,,,,,,,,,,,0,84,84,29,,,,,,,,,,,None,None,None,10.66,,,,,,,,,,,,,,,,,,,2019_Mar_13_1756,60.08781233042441,Cloud_Experiment_FR_REAL,001,24,
images/fcloud80-20_D1.6_10.tif,1.6,2,,,,,,,,,,,,,0,85,85,131,,,,,,,,,,,1,None,5,0.569,,,,,,,,,,,,,,,,,,,2019_Mar_13_1756,60.08781233042441,Cloud_Experiment_FR_REAL,001,24,
images/fcloud_D1.7_7.tif,1.7,0,,,,,,,,,,,,,0,86,86,36,,,,,,,,,,,2,None,4,0.886,,,,,,,,,,,,,,,,,,,2019_Mar_13_1756,60.08781233042441,Cloud_Experiment_FR_REAL,001,24,
images/fcloud65-35_D0.9_10.tif,0.9,1,,,,,,,,,,,,,0,87,87,55,,,,,,,,,,,1,None,4,0.503,,,,,,,,,,,,,,,,,,,2019_Mar_13_1756,60.08781233042441,Cloud_Experiment_FR_REAL,001,24,
images/fcloud80-20_D1.5_10.tif,1.5,2,,,,,,,,,,,,,0,88,88,127,,,,,,,,,,,1,None,2,0.834,,,,,,,,,,,,,,,,,,,2019_Mar_13_1756,60.08781233042441,Cloud_Experiment_FR_REAL,001,24,
images/fcloud65-35_D1_10.tif,1.0,1,,,,,,,,,,,,,0,89,89,59,,,,,,,,,,,1,None,2,0.604,,,,,,,,,,,,,,,,,,,2019_Mar_13_1756,60.08781233042441,Cloud_Experiment_FR_REAL,001,24,
images/fcloud_D0.9_10.tif,0.9,0,,,,,,,,,,,,,0,90,90,7,,,,,,,,,,,3,None,4,0.568,,,,,,,,,,,,,,,,,,,2019_Mar_13_1756,60.08781233042441,Cloud_Experiment_FR_REAL,001,24,
images/fcloud80-20_D0.9_8.tif,0.9,2,,,,,,,,,,,,,0,91,91,101,,,,,,,,,,,None,None,None,9.592,,,,,,,,,,,,,,,,,,,2019_Mar_13_1756,60.08781233042441,Cloud_Experiment_FR_REAL,001,24,
images/fcloud80-20_D1.8_9.tif,1.8,2,,,,,,,,,,,,,0,92,92,138,,,,,,,,,,,1,None,1,0.486,,,,,,,,,,,,,,,,,,,2019_Mar_13_1756,60.08781233042441,Cloud_Experiment_FR_REAL,001,24,
images/fcloud65-35_D1.1_10.tif,1.1,1,,,,,,,,,,,,,0,93,93,63,,,,,,,,,,,1,None,3,0.485,,,,,,,,,,,,,,,,,,,2019_Mar_13_1756,60.08781233042441,Cloud_Experiment_FR_REAL,001,24,
images/fcloud_D1.7_10.tif,1.7,0,,,,,,,,,,,,,0,94,94,39,,,,,,,,,,,2,None,4,0.435,,,,,,,,,,,,,,,,,,,2019_Mar_13_1756,60.08781233042441,Cloud_Experiment_FR_REAL,001,24,
images/fcloud_D1.3_10.tif,1.3,0,,,,,,,,,,,,,0,95,95,23,,,,,,,,,,,3,None,4,0.419,,,,,,,,,,,,,,,,,,,2019_Mar_13_1756,60.08781233042441,Cloud_Experiment_FR_REAL,001,24,
images/fcloud80-20_D1.1_10.tif,1.1,2,,,,,,,,,,,,,0,96,96,111,,,,,,,,,,,1,None,5,0.438,,,,,,,,,,,,,,,,,,,2019_Mar_13_1756,60.08781233042441,Cloud_Experiment_FR_REAL,001,24,
images/fcloud_D1.9_9.tif,1.9,0,,,,,,,,,,,,,0,97,97,46,,,,,,,,,,,None,None,None,9.592,,,,,,,,,,,,,,,,,,,2019_Mar_13_1756,60.08781233042441,Cloud_Experiment_FR_REAL,001,24,
images/fcloud65-35_D1.1_8.tif,1.1,1,,,,,,,,,,,,,0,98,98,61,,,,,,,,,,,2,None,4,0.485,,,,,,,,,,,,,,,,,,,2019_Mar_13_1756,60.08781233042441,Cloud_Experiment_FR_REAL,001,24,
images/fcloud80-20_D1.1_8.tif,1.1,2,,,,,,,,,,,,,0,99,99,109,,,,,,,,,,,None,None,None,9.343,,,,,,,,,,,,,,,,,,,2019_Mar_13_1756,60.08781233042441,Cloud_Experiment_FR_REAL,001,24,
images/fcloud65-35_D1_9.tif,1.0,1,,,,,,,,,,,,,0,100,100,58,,,,,,,,,,,None,None,None,18.651,,,,,,,,,,,,,,,,,,,2019_Mar_13_1756,60.08781233042441,Cloud_Experiment_FR_REAL,001,24,
images/fcloud65-35_D1.9_10.tif,1.9,1,,,,,,,,,,,,,0,101,101,95,,,,,,,,,,,1,None,2,0.953,,,,,,,,,,,,,,,,,,,2019_Mar_13_1756,60.08781233042441,Cloud_Experiment_FR_REAL,001,24,
images/fcloud65-35_D0.8_9.tif,0.8,1,,,,,,,,,,,,,0,102,102,50,,,,,,,,,,,2,None,3,1.518,,,,,,,,,,,,,,,,,,,2019_Mar_13_1756,60.08781233042441,Cloud_Experiment_FR_REAL,001,24,
images/fcloud_D1.8_10.tif,1.8,0,,,,,,,,,,,,,0,103,103,43,,,,,,,,,,,None,None,None,10.946,,,,,,,,,,,,,,,,,,,2019_Mar_13_1756,60.08781233042441,Cloud_Experiment_FR_REAL,001,24,
images/fcloud_D0.8_9.tif,0.8,0,,,,,,,,,,,,,0,104,104,2,,,,,,,,,,,2,None,4,3.35,,,,,,,,,,,,,,,,,,,2019_Mar_13_1756,60.08781233042441,Cloud_Experiment_FR_REAL,001,24,
images/fcloud80-20_D0.8_10.tif,0.8,2,,,,,,,,,,,,,0,105,105,99,,,,,,,,,,,1,None,4,1.1,,,,,,,,,,,,,,,,,,,2019_Mar_13_1756,60.08781233042441,Cloud_Experiment_FR_REAL,001,24,
images/fcloud80-20_D1.2_8.tif,1.2,2,,,,,,,,,,,,,0,106,106,113,,,,,,,,,,,1,None,1,0.936,,,,,,,,,,,,,,,,,,,2019_Mar_13_1756,60.08781233042441,Cloud_Experiment_FR_REAL,001,24,
images/fcloud_D1.1_9.tif,1.1,0,,,,,,,,,,,,,0,107,107,14,,,,,,,,,,,3,None,4,0.819,,,,,,,,,,,,,,,,,,,2019_Mar_13_1756,60.08781233042441,Cloud_Experiment_FR_REAL,001,24,
images/fcloud65-35_D1.3_7.tif,1.3,1,,,,,,,,,,,,,0,108,108,68,,,,,,,,,,,2,None,4,0.57,,,,,,,,,,,,,,,,,,,2019_Mar_13_1756,60.08781233042441,Cloud_Experiment_FR_REAL,001,24,
images/fcloud_D1.1_7.tif,1.1,0,,,,,,,,,,,,,0,109,109,12,,,,,,,,,,,3,None,4,1.469,,,,,,,,,,,,,,,,,,,2019_Mar_13_1756,60.08781233042441,Cloud_Experiment_FR_REAL,001,24,
images/fcloud_D1.4_9.tif,1.4,0,,,,,,,,,,,,,0,110,110,26,,,,,,,,,,,2,None,4,0.451,,,,,,,,,,,,,,,,,,,2019_Mar_13_1756,60.08781233042441,Cloud_Experiment_FR_REAL,001,24,
images/fcloud80-20_D1.5_7.tif,1.5,2,,,,,,,,,,,,,0,111,111,124,,,,,,,,,,,3,None,4,0.836,,,,,,,,,,,,,,,,,,,2019_Mar_13_1756,60.08781233042441,Cloud_Experiment_FR_REAL,001,24,
images/fcloud_D1.9_7.tif,1.9,0,,,,,,,,,,,,,0,112,112,44,,,,,,,,,,,2,None,2,0.65,,,,,,,,,,,,,,,,,,,2019_Mar_13_1756,60.08781233042441,Cloud_Experiment_FR_REAL,001,24,
images/fcloud65-35_D1.5_9.tif,1.5,1,,,,,,,,,,,,,0,113,113,78,,,,,,,,,,,1,None,4,0.784,,,,,,,,,,,,,,,,,,,2019_Mar_13_1756,60.08781233042441,Cloud_Experiment_FR_REAL,001,24,
images/fcloud_D1.4_10.tif,1.4,0,,,,,,,,,,,,,0,114,114,27,,,,,,,,,,,1,None,3,0.452,,,,,,,,,,,,,,,,,,,2019_Mar_13_1756,60.08781233042441,Cloud_Experiment_FR_REAL,001,24,
images/fcloud80-20_D1.2_9.tif,1.2,2,,,,,,,,,,,,,0,115,115,114,,,,,,,,,,,1,None,2,0.684,,,,,,,,,,,,,,,,,,,2019_Mar_13_1756,60.08781233042441,Cloud_Experiment_FR_REAL,001,24,
images/fcloud80-20_D0.8_7.tif,0.8,2,,,,,,,,,,,,,0,116,116,96,,,,,,,,,,,1,space,2,0.818,7.5788518,,,,,,,,,,,,,,,,,,2019_Mar_13_1756,60.08781233042441,Cloud_Experiment_FR_REAL,001,24,
images/fcloud_D1.4_8.tif,1.4,0,,,,,,,,,,,,,0,117,117,25,,,,,,,,,,,2,None,3,0.652,,,,,,,,,,,,,,,,,,,2019_Mar_13_1756,60.08781233042441,Cloud_Experiment_FR_REAL,001,24,
images/fcloud_D1.8_9.tif,1.8,0,,,,,,,,,,,,,0,118,118,42,,,,,,,,,,,None,None,None,9.493,,,,,,,,,,,,,,,,,,,2019_Mar_13_1756,60.08781233042441,Cloud_Experiment_FR_REAL,001,24,
images/fcloud_D1.2_8.tif,1.2,0,,,,,,,,,,,,,0,119,119,17,,,,,,,,,,,3,None,4,0.435,,,,,,,,,,,,,,,,,,,2019_Mar_13_1756,60.08781233042441,Cloud_Experiment_FR_REAL,001,24,
images/fcloud80-20_D1.3_8.tif,1.3,2,,,,,,,,,,,,,0,120,120,117,,,,,,,,,,,1,None,2,0.651,,,,,,,,,,,,,,,,,,,2019_Mar_13_1756,60.08781233042441,Cloud_Experiment_FR_REAL,001,24,
images/fcloud65-35_D1.1_7.tif,1.1,1,,,,,,,,,,,,,0,121,121,60,,,,,,,,,,,None,None,None,9.959,,,,,,,,,,,,,,,,,,,2019_Mar_13_1756,60.08781233042441,Cloud_Experiment_FR_REAL,001,24,
images/fcloud80-20_D1.4_9.tif,1.4,2,,,,,,,,,,,,,0,122,122,122,,,,,,,,,,,None,None,None,18.386,,,,,,,,,,,,,,,,,,,2019_Mar_13_1756,60.08781233042441,Cloud_Experiment_FR_REAL,001,24,
images/fcloud_D1.5_10.tif,1.5,0,,,,,,,,,,,,,0,123,123,31,,,,,,,,,,,2,None,2,1.034,,,,,,,,,,,,,,,,,,,2019_Mar_13_1756,60.08781233042441,Cloud_Experiment_FR_REAL,001,24,
images/fcloud_D0.9_9.tif,0.9,0,,,,,,,,,,,,,0,124,124,6,,,,,,,,,,,3,None,4,0.901,,,,,,,,,,,,,,,,,,,2019_Mar_13_1756,60.08781233042441,Cloud_Experiment_FR_REAL,001,24,
images/fcloud_D1.6_10.tif,1.6,0,,,,,,,,,,,,,0,125,125,35,,,,,,,,,,,1,None,3,0.635,,,,,,,,,,,,,,,,,,,2019_Mar_13_1756,60.08781233042441,Cloud_Experiment_FR_REAL,001,24,
images/fcloud80-20_D1.9_9.tif,1.9,2,,,,,,,,,,,,,0,126,126,142,,,,,,,,,,,None,None,None,9.111,,,,,,,,,,,,,,,,,,,2019_Mar_13_1756,60.08781233042441,Cloud_Experiment_FR_REAL,001,24,
images/fcloud65-35_D1.3_10.tif,1.3,1,,,,,,,,,,,,,0,127,127,71,,,,,,,,,,,None,None,None,18.02,,,,,,,,,,,,,,,,,,,2019_Mar_13_1756,60.08781233042441,Cloud_Experiment_FR_REAL,001,24,
images/fcloud_D1.6_7.tif,1.6,0,,,,,,,,,,,,,0,128,128,32,,,,,,,,,,,1,None,4,0.835,,,,,,,,,,,,,,,,,,,2019_Mar_13_1756,60.08781233042441,Cloud_Experiment_FR_REAL,001,24,
images/fcloud65-35_D1.2_7.tif,1.2,1,,,,,,,,,,,,,0,129,129,64,,,,,,,,,,,3,None,4,1.234,,,,,,,,,,,,,,,,,,,2019_Mar_13_1756,60.08781233042441,Cloud_Experiment_FR_REAL,001,24,
images/fcloud80-20_D1.3_7.tif,1.3,2,,,,,,,,,,,,,0,130,130,116,,,,,,,,,,,1,None,1,0.451,,,,,,,,,,,,,,,,,,,2019_Mar_13_1756,60.08781233042441,Cloud_Experiment_FR_REAL,001,24,
images/fcloud65-35_D1.2_10.tif,1.2,1,,,,,,,,,,,,,0,131,131,67,,,,,,,,,,,1,None,3,0.522,,,,,,,,,,,,,,,,,,,2019_Mar_13_1756,60.08781233042441,Cloud_Experiment_FR_REAL,001,24,
images/fcloud_D1_10.tif,1.0,0,,,,,,,,,,,,,0,132,132,11,,,,,,,,,,,1,None,3,0.486,,,,,,,,,,,,,,,,,,,2019_Mar_13_1756,60.08781233042441,Cloud_Experiment_FR_REAL,001,24,
images/fcloud_D1_7.tif,1.0,0,,,,,,,,,,,,,0,133,133,8,,,,,,,,,,,3,None,3,1.267,,,,,,,,,,,,,,,,,,,2019_Mar_13_1756,60.08781233042441,Cloud_Experiment_FR_REAL,001,24,
images/fcloud80-20_D1.5_9.tif,1.5,2,,,,,,,,,,,,,0,134,134,126,,,,,,,,,,,None,None,None,10.678,,,,,,,,,,,,,,,,,,,2019_Mar_13_1756,60.08781233042441,Cloud_Experiment_FR_REAL,001,24,
images/fcloud65-35_D1.6_10.tif,1.6,1,,,,,,,,,,,,,0,135,135,83,,,,,,,,,,,None,None,None,19.117,,,,,,,,,,,,,,,,,,,2019_Mar_13_1756,60.08781233042441,Cloud_Experiment_FR_REAL,001,24,
images/fcloud80-20_D1.6_7.tif,1.6,2,,,,,,,,,,,,,0,136,136,128,,,,,,,,,,,None,None,None,28.193,,,,,,,,,,,,,,,,,,,2019_Mar_13_1756,60.08781233042441,Cloud_Experiment_FR_REAL,001,24,
images/fcloud_D1.4_7.tif,1.4,0,,,,,,,,,,,,,0,137,137,24,,,,,,,,,,,4,None,4,1.135,,,,,,,,,,,,,,,,,,,2019_Mar_13_1756,60.08781233042441,Cloud_Experiment_FR_REAL,001,24,
images/fcloud65-35_D1_7.tif,1.0,1,,,,,,,,,,,,,0,138,138,56,,,,,,,,,,,1,None,2,0.468,,,,,,,,,,,,,,,,,,,2019_Mar_13_1756,60.08781233042441,Cloud_Experiment_FR_REAL,001,24,
images/fcloud_D0.9_7.tif,0.9,0,,,,,,,,,,,,,0,139,139,4,,,,,,,,,,,3,None,4,0.484,,,,,,,,,,,,,,,,,,,2019_Mar_13_1756,60.08781233042441,Cloud_Experiment_FR_REAL,001,24,
images/fcloud_D1.6_9.tif,1.6,0,,,,,,,,,,,,,0,140,140,34,,,,,,,,,,,3,None,4,1.069,,,,,,,,,,,,,,,,,,,2019_Mar_13_1756,60.08781233042441,Cloud_Experiment_FR_REAL,001,24,
images/fcloud65-35_D1.8_10.tif,1.8,1,,,,,,,,,,,,,0,141,141,91,,,,,,,,,,,None,None,None,11.262,,,,,,,,,,,,,,,,,,,2019_Mar_13_1756,60.08781233042441,Cloud_Experiment_FR_REAL,001,24,
images/fcloud_D1.9_8.tif,1.9,0,,,,,,,,,,,,,0,142,142,45,,,,,,,,,,,None,None,None,20.766,,,,,,,,,,,,,,,,,,,2019_Mar_13_1756,60.08781233042441,Cloud_Experiment_FR_REAL,001,24,
images/fcloud65-35_D1.4_8.tif,1.4,1,,,,,,,,,,,,,0,143,143,73,,,,,,,,,,,1,None,1,0.519,,,,,,,,,,,,,,,,,,,2019_Mar_13_1756,60.08781233042441,Cloud_Experiment_FR_REAL,001,24,
,,,,,,,,,,,,,,,,,,,,,,,,,4,14.709,,,,,,,,,,,,,,,,,,,,,,,,,2019_Mar_13_1756,60.08781233042441,Cloud_Experiment_FR_REAL,001,24,
,,,,,,,,,,,,,,,,,,,,,,,,,,,,,,,,,,3,,,,,,,,,,,,,,,,,2019_Mar_13_1756,60.08781233042441,Cloud_Experiment_FR_REAL,001,24,
,,,,,,,,,,,,,,,,,,,,,,,,,,,,,,,,,,,6,,,,,,,,,,,,,,,,2019_Mar_13_1756,60.08781233042441,Cloud_Experiment_FR_REAL,001,24,
,,,,,,,,,,,,,,,,,,,,,,,,,,,,,,,,,,,,5,,,,,,,,,,,,,,,2019_Mar_13_1756,60.08781233042441,Cloud_Experiment_FR_REAL,001,24,
,,,,,,,,,,,,,,,,,,,,,,,,,,,,,,,,,,,,,5,,,,,,,,,,,,,,2019_Mar_13_1756,60.08781233042441,Cloud_Experiment_FR_REAL,001,24,
,,,,,,,,,,,,,,,,,,,,,,,,,,,,,,,,,,,,,,5,,,,,,,,,,,,,2019_Mar_13_1756,60.08781233042441,Cloud_Experiment_FR_REAL,001,24,
,,,,,,,,,,,,,,,,,,,,,,,,,,,,,,,,,,,,,,,6,,,,,,,,,,,,2019_Mar_13_1756,60.08781233042441,Cloud_Experiment_FR_REAL,001,24,
,,,,,,,,,,,,,,,,,,,,,,,,,,,,,,,,,,,,,,,,6,,,,,,,,,,,2019_Mar_13_1756,60.08781233042441,Cloud_Experiment_FR_REAL,001,24,
,,,,,,,,,,,,,,,,,,,,,,,,,,,,,,,,,,,,,,,,,7,,,,,,,,,,2019_Mar_13_1756,60.08781233042441,Cloud_Experiment_FR_REAL,001,24,
,,,,,,,,,,,,,,,,,,,,,,,,,,,,,,,,,,,,,,,,,,4,,,,,,,,,2019_Mar_13_1756,60.08781233042441,Cloud_Experiment_FR_REAL,001,24,
,,,,,,,,,,,,,,,,,,,,,,,,,,,,,,,,,,,,,,,,,,,6,,,,,,,,2019_Mar_13_1756,60.08781233042441,Cloud_Experiment_FR_REAL,001,24,
,,,,,,,,,,,,,,,,,,,,,,,,,,,,,,,,,,,,,,,,,,,,,,,,,,3,2019_Mar_13_1756,60.08781233042441,Cloud_Experiment_FR_REAL,001,24,
