ImageFile,FD,Contrast,trials_4.thisRepN,trials_4.thisTrialN,trials_4.thisN,trials_4.thisIndex,trials.thisRepN,trials.thisTrialN,trials.thisN,trials.thisIndex,trials_2.thisRepN,trials_2.thisTrialN,trials_2.thisN,trials_2.thisIndex,trials_3.thisRepN,trials_3.thisTrialN,trials_3.thisN,trials_3.thisIndex,end_instructions.keys,end_instructions.rt,key_resp_4.keys,key_resp_4.rt,key_resp_6.keys,key_resp_6.rt,Fatigue.response,Fatigue.rt,key_resp_5.keys,key_resp_5.rt,n_objets.response,reaction_time.keys,reaction_time.rt,vividness.response,vividness.rt,Flow01.response,Flow02.response,Flow03.response,Flow04.response,Flow05.response,Flow06.response,Flow07.response,Flow08.response,Flow09.response,Flow10.response,key_resp_2.keys,key_resp_2.rt,key_resp_8.keys,key_resp_8.rt,key_resp_3.keys,key_resp_3.rt,Redondance_question.response,date,frameRate,expName,session,participant,
,,,,,,,,,,,,,,,,,,,space,10.3816146,,,,,,,,,,,,,,,,,,,,,,,,,,,,,,,2019_Mar_15_1618,60.46384231990025,Cloud_Experiment_FR_REAL,001,25,
,,,,,,,,,,,,,,,,,,,,,space,138.5323477,,,,,,,,,,,,,,,,,,,,,,,,,,,,,2019_Mar_15_1618,60.46384231990025,Cloud_Experiment_FR_REAL,001,25,
,,,,,,,,,,,,,,,,,,,,,,,space,112.8702511,,,,,,,,,,,,,,,,,,,,,,,,,,,2019_Mar_15_1618,60.46384231990025,Cloud_Experiment_FR_REAL,001,25,
,,,,,,,,,,,,,,,,,,,,,,,,,8,8.109,,,,,,,,,,,,,,,,,,,,,,,,,2019_Mar_15_1618,60.46384231990025,Cloud_Experiment_FR_REAL,001,25,
,,,,,,,,,,,,,,,,,,,,,,,,,,,space,4.5454973,,,,,,,,,,,,,,,,,,,,,,,2019_Mar_15_1618,60.46384231990025,Cloud_Experiment_FR_REAL,001,25,
pratique/fcloud80-20_D1_30,1.0,2,0,0,0,9,,,,,,,,,,,,,,,,,,,,,,,1,space,10.8409001,4,3.933,,,,,,,,,,,,,,,,,,2019_Mar_15_1618,60.46384231990025,Cloud_Experiment_FR_REAL,001,25,
pratique/fcloud80-20_D1.5_30,1.5,2,0,1,1,8,,,,,,,,,,,,,,,,,,,,,,,None,None,,None,13.124,,,,,,,,,,,,,,,,,,2019_Mar_15_1618,60.46384231990025,Cloud_Experiment_FR_REAL,001,25,
pratique/fcloud65-35_D1.2_30,1.2,1,0,2,2,3,,,,,,,,,,,,,,,,,,,,,,,1,None,,1,21.551,,,,,,,,,,,,,,,,,,2019_Mar_15_1618,60.46384231990025,Cloud_Experiment_FR_REAL,001,25,
pratique/fcloud_D1.6_28,1.6,0,0,3,3,5,,,,,,,,,,,,,,,,,,,,,,,2,space,2.285826,4,4.949,,,,,,,,,,,,,,,,,,2019_Mar_15_1618,60.46384231990025,Cloud_Experiment_FR_REAL,001,25,
pratique/fcloud_D0.8_30,0.8,0,0,4,4,0,,,,,,,,,,,,,,,,,,,,,,,2,None,,2,5.366,,,,,,,,,,,,,,,,,,2019_Mar_15_1618,60.46384231990025,Cloud_Experiment_FR_REAL,001,25,
pratique/fcloud65-35_D1.6_30,1.6,1,0,5,5,2,,,,,,,,,,,,,,,,,,,,,,,1,space,5.2290213,2,2.967,,,,,,,,,,,,,,,,,,2019_Mar_15_1618,60.46384231990025,Cloud_Experiment_FR_REAL,001,25,
pratique/fcloud80-20_D1.8_30,1.8,2,0,6,6,4,,,,,,,,,,,,,,,,,,,,,,,None,None,,None,12.856,,,,,,,,,,,,,,,,,,2019_Mar_15_1618,60.46384231990025,Cloud_Experiment_FR_REAL,001,25,
pratique/fcloud_D1.4_30,1.4,0,0,7,7,1,,,,,,,,,,,,,,,,,,,,,,,1,space,7.2897969,2,3.283,,,,,,,,,,,,,,,,,,2019_Mar_15_1618,60.46384231990025,Cloud_Experiment_FR_REAL,001,25,
pratique/fcloud65-35_D1.9_29,1.9,1,0,8,8,7,,,,,,,,,,,,,,,,,,,,,,,None,None,,None,12.673,,,,,,,,,,,,,,,,,,2019_Mar_15_1618,60.46384231990025,Cloud_Experiment_FR_REAL,001,25,
pratique/fcloud65-35_D1.3_30,1.3,1,0,9,9,6,,,,,,,,,,,,,,,,,,,,,,,None,None,,None,21.816,,,,,,,,,,,,,,,,,,2019_Mar_15_1618,60.46384231990025,Cloud_Experiment_FR_REAL,001,25,
,,,,,,,,,,,,,,,,,,,,,,,,,,,,,,,,,,4,,,,,,,,,,,,,,,,,2019_Mar_15_1618,60.46384231990025,Cloud_Experiment_FR_REAL,001,25,
,,,,,,,,,,,,,,,,,,,,,,,,,,,,,,,,,,,4,,,,,,,,,,,,,,,,2019_Mar_15_1618,60.46384231990025,Cloud_Experiment_FR_REAL,001,25,
,,,,,,,,,,,,,,,,,,,,,,,,,,,,,,,,,,,,5,,,,,,,,,,,,,,,2019_Mar_15_1618,60.46384231990025,Cloud_Experiment_FR_REAL,001,25,
,,,,,,,,,,,,,,,,,,,,,,,,,,,,,,,,,,,,,7,,,,,,,,,,,,,,2019_Mar_15_1618,60.46384231990025,Cloud_Experiment_FR_REAL,001,25,
,,,,,,,,,,,,,,,,,,,,,,,,,,,,,,,,,,,,,,4,,,,,,,,,,,,,2019_Mar_15_1618,60.46384231990025,Cloud_Experiment_FR_REAL,001,25,
,,,,,,,,,,,,,,,,,,,,,,,,,,,,,,,,,,,,,,,5,,,,,,,,,,,,2019_Mar_15_1618,60.46384231990025,Cloud_Experiment_FR_REAL,001,25,
,,,,,,,,,,,,,,,,,,,,,,,,,,,,,,,,,,,,,,,,5,,,,,,,,,,,2019_Mar_15_1618,60.46384231990025,Cloud_Experiment_FR_REAL,001,25,
,,,,,,,,,,,,,,,,,,,,,,,,,,,,,,,,,,,,,,,,,4,,,,,,,,,,2019_Mar_15_1618,60.46384231990025,Cloud_Experiment_FR_REAL,001,25,
,,,,,,,,,,,,,,,,,,,,,,,,,,,,,,,,,,,,,,,,,,5,,,,,,,,,2019_Mar_15_1618,60.46384231990025,Cloud_Experiment_FR_REAL,001,25,
,,,,,,,,,,,,,,,,,,,,,,,,,,,,,,,,,,,,,,,,,,,2,,,,,,,,2019_Mar_15_1618,60.46384231990025,Cloud_Experiment_FR_REAL,001,25,
,,,,,,,,,,,,,,,,,,,,,,,,,,,,,,,,,,,,,,,,,,,,space,8.0792826,,,,,,2019_Mar_15_1618,60.46384231990025,Cloud_Experiment_FR_REAL,001,25,
images/fcloud_D1.3_3.tif,1.3,0,,,,,0,0,0,17,,,,,,,,,,,,,,,,,,,2,space,4.7117136,3,7.961,,,,,,,,,,,,,,,,,,2019_Mar_15_1618,60.46384231990025,Cloud_Experiment_FR_REAL,001,25,
images/fcloud_D1_3.tif,1.0,0,,,,,0,1,1,8,,,,,,,,,,,,,,,,,,,2,None,,1,2.767,,,,,,,,,,,,,,,,,,2019_Mar_15_1618,60.46384231990025,Cloud_Experiment_FR_REAL,001,25,
images/fcloud_D1.1_2.tif,1.1,0,,,,,0,2,2,10,,,,,,,,,,,,,,,,,,,1,space,3.7299789,1,3.733,,,,,,,,,,,,,,,,,,2019_Mar_15_1618,60.46384231990025,Cloud_Experiment_FR_REAL,001,25,
images/fcloud65-35_D1.6_2.tif,1.6,1,,,,,0,3,3,61,,,,,,,,,,,,,,,,,,,1,None,,1,1.868,,,,,,,,,,,,,,,,,,2019_Mar_15_1618,60.46384231990025,Cloud_Experiment_FR_REAL,001,25,
images/fcloud80-20_D1.9_2.tif,1.9,2,,,,,0,4,4,106,,,,,,,,,,,,,,,,,,,1,space,3.9990887,1,3.0,,,,,,,,,,,,,,,,,,2019_Mar_15_1618,60.46384231990025,Cloud_Experiment_FR_REAL,001,25,
images/fcloud65-35_D1.1_1.tif,1.1,1,,,,,0,5,5,45,,,,,,,,,,,,,,,,,,,None,None,,None,13.009,,,,,,,,,,,,,,,,,,2019_Mar_15_1618,60.46384231990025,Cloud_Experiment_FR_REAL,001,25,
images/fcloud65-35_D0.9_1.tif,0.9,1,,,,,0,6,6,39,,,,,,,,,,,,,,,,,,,1,space,2.8921197,3,2.435,,,,,,,,,,,,,,,,,,2019_Mar_15_1618,60.46384231990025,Cloud_Experiment_FR_REAL,001,25,
images/fcloud_D1.4_1.tif,1.4,0,,,,,0,7,7,18,,,,,,,,,,,,,,,,,,,1,space,6.6928228,2,4.598,,,,,,,,,,,,,,,,,,2019_Mar_15_1618,60.46384231990025,Cloud_Experiment_FR_REAL,001,25,
images/fcloud65-35_D1.5_3.tif,1.5,1,,,,,0,8,8,59,,,,,,,,,,,,,,,,,,,1,space,3.7857821,1,3.15,,,,,,,,,,,,,,,,,,2019_Mar_15_1618,60.46384231990025,Cloud_Experiment_FR_REAL,001,25,
images/fcloud80-20_D1.1_3.tif,1.1,2,,,,,0,9,9,83,,,,,,,,,,,,,,,,,,,None,None,,None,14.756,,,,,,,,,,,,,,,,,,2019_Mar_15_1618,60.46384231990025,Cloud_Experiment_FR_REAL,001,25,
images/fcloud65-35_D1.2_2.tif,1.2,1,,,,,0,10,10,49,,,,,,,,,,,,,,,,,,,1,space,3.2703511,2,2.334,,,,,,,,,,,,,,,,,,2019_Mar_15_1618,60.46384231990025,Cloud_Experiment_FR_REAL,001,25,
images/fcloud80-20_D1.8_3.tif,1.8,2,,,,,0,11,11,104,,,,,,,,,,,,,,,,,,,1,space,7.4963769,1,0.886,,,,,,,,,,,,,,,,,,2019_Mar_15_1618,60.46384231990025,Cloud_Experiment_FR_REAL,001,25,
images/fcloud_D1.5_3.tif,1.5,0,,,,,0,12,12,23,,,,,,,,,,,,,,,,,,,1,space,5.8908177,2,6.948,,,,,,,,,,,,,,,,,,2019_Mar_15_1618,60.46384231990025,Cloud_Experiment_FR_REAL,001,25,
images/fcloud80-20_D1.2_3.tif,1.2,2,,,,,0,13,13,86,,,,,,,,,,,,,,,,,,,1,space,4.9760284,2,1.119,,,,,,,,,,,,,,,,,,2019_Mar_15_1618,60.46384231990025,Cloud_Experiment_FR_REAL,001,25,
images/fcloud80-20_D1.8_1.tif,1.8,2,,,,,0,14,14,102,,,,,,,,,,,,,,,,,,,2,space,7.5878981,1,1.599,,,,,,,,,,,,,,,,,,2019_Mar_15_1618,60.46384231990025,Cloud_Experiment_FR_REAL,001,25,
images/fcloud_D0.9_2.tif,0.9,0,,,,,0,15,15,4,,,,,,,,,,,,,,,,,,,1,space,6.0264854,2,0.919,,,,,,,,,,,,,,,,,,2019_Mar_15_1618,60.46384231990025,Cloud_Experiment_FR_REAL,001,25,
images/fcloud65-35_D1.4_3.tif,1.4,1,,,,,0,16,16,56,,,,,,,,,,,,,,,,,,,1,space,4.0932558,2,0.901,,,,,,,,,,,,,,,,,,2019_Mar_15_1618,60.46384231990025,Cloud_Experiment_FR_REAL,001,25,
images/fcloud65-35_D1.8_2.tif,1.8,1,,,,,0,17,17,67,,,,,,,,,,,,,,,,,,,1,space,6.6194455,1,5.78,,,,,,,,,,,,,,,,,,2019_Mar_15_1618,60.46384231990025,Cloud_Experiment_FR_REAL,001,25,
images/fcloud_D1.9_3.tif,1.9,0,,,,,0,18,18,35,,,,,,,,,,,,,,,,,,,2,space,4.0203854,2,2.801,,,,,,,,,,,,,,,,,,2019_Mar_15_1618,60.46384231990025,Cloud_Experiment_FR_REAL,001,25,
images/fcloud_D1.9_2.tif,1.9,0,,,,,0,19,19,34,,,,,,,,,,,,,,,,,,,3,space,4.2129901,2,5.981,,,,,,,,,,,,,,,,,,2019_Mar_15_1618,60.46384231990025,Cloud_Experiment_FR_REAL,001,25,
images/fcloud_D1.1_3.tif,1.1,0,,,,,0,20,20,11,,,,,,,,,,,,,,,,,,,1,space,6.3267057,2,1.784,,,,,,,,,,,,,,,,,,2019_Mar_15_1618,60.46384231990025,Cloud_Experiment_FR_REAL,001,25,
images/fcloud80-20_D1.2_1.tif,1.2,2,,,,,0,21,21,84,,,,,,,,,,,,,,,,,,,1,space,3.1330861,4,1.601,,,,,,,,,,,,,,,,,,2019_Mar_15_1618,60.46384231990025,Cloud_Experiment_FR_REAL,001,25,
images/fcloud65-35_D1.2_1.tif,1.2,1,,,,,0,22,22,48,,,,,,,,,,,,,,,,,,,None,None,,None,11.076,,,,,,,,,,,,,,,,,,2019_Mar_15_1618,60.46384231990025,Cloud_Experiment_FR_REAL,001,25,
images/fcloud_D1.9_1.tif,1.9,0,,,,,0,23,23,33,,,,,,,,,,,,,,,,,,,1,space,6.2979058,1,4.25,,,,,,,,,,,,,,,,,,2019_Mar_15_1618,60.46384231990025,Cloud_Experiment_FR_REAL,001,25,
images/fcloud80-20_D1.7_3.tif,1.7,2,,,,,0,24,24,101,,,,,,,,,,,,,,,,,,,1,space,2.1738638,2,5.083,,,,,,,,,,,,,,,,,,2019_Mar_15_1618,60.46384231990025,Cloud_Experiment_FR_REAL,001,25,
images/fcloud80-20_D1.7_1.tif,1.7,2,,,,,0,25,25,99,,,,,,,,,,,,,,,,,,,1,space,6.2427183,1,2.752,,,,,,,,,,,,,,,,,,2019_Mar_15_1618,60.46384231990025,Cloud_Experiment_FR_REAL,001,25,
images/fcloud65-35_D1.4_2.tif,1.4,1,,,,,0,26,26,55,,,,,,,,,,,,,,,,,,,1,space,4.4826442,4,1.538,,,,,,,,,,,,,,,,,,2019_Mar_15_1618,60.46384231990025,Cloud_Experiment_FR_REAL,001,25,
images/fcloud65-35_D1.4_1.tif,1.4,1,,,,,0,27,27,54,,,,,,,,,,,,,,,,,,,1,space,7.5864439,2,1.535,,,,,,,,,,,,,,,,,,2019_Mar_15_1618,60.46384231990025,Cloud_Experiment_FR_REAL,001,25,
images/fcloud80-20_D1.6_1.tif,1.6,2,,,,,0,28,28,96,,,,,,,,,,,,,,,,,,,1,space,6.6607505,1,1.002,,,,,,,,,,,,,,,,,,2019_Mar_15_1618,60.46384231990025,Cloud_Experiment_FR_REAL,001,25,
images/fcloud65-35_D0.9_2.tif,0.9,1,,,,,0,29,29,40,,,,,,,,,,,,,,,,,,,2,space,3.0867191,2,4.865,,,,,,,,,,,,,,,,,,2019_Mar_15_1618,60.46384231990025,Cloud_Experiment_FR_REAL,001,25,
images/fcloud80-20_D0.8_2.tif,0.8,2,,,,,0,30,30,73,,,,,,,,,,,,,,,,,,,None,None,,None,14.373,,,,,,,,,,,,,,,,,,2019_Mar_15_1618,60.46384231990025,Cloud_Experiment_FR_REAL,001,25,
images/fcloud_D0.8_3.tif,0.8,0,,,,,0,31,31,2,,,,,,,,,,,,,,,,,,,1,space,7.067863,1,0.953,,,,,,,,,,,,,,,,,,2019_Mar_15_1618,60.46384231990025,Cloud_Experiment_FR_REAL,001,25,
images/fcloud80-20_D1.9_1.tif,1.9,2,,,,,0,32,32,105,,,,,,,,,,,,,,,,,,,None,None,,None,10.362,,,,,,,,,,,,,,,,,,2019_Mar_15_1618,60.46384231990025,Cloud_Experiment_FR_REAL,001,25,
images/fcloud65-35_D1.7_2.tif,1.7,1,,,,,0,33,33,64,,,,,,,,,,,,,,,,,,,1,space,3.120114,3,1.204,,,,,,,,,,,,,,,,,,2019_Mar_15_1618,60.46384231990025,Cloud_Experiment_FR_REAL,001,25,
images/fcloud65-35_D1.1_2.tif,1.1,1,,,,,0,34,34,46,,,,,,,,,,,,,,,,,,,1,space,6.5807499,1,1.619,,,,,,,,,,,,,,,,,,2019_Mar_15_1618,60.46384231990025,Cloud_Experiment_FR_REAL,001,25,
images/fcloud80-20_D0.9_2.tif,0.9,2,,,,,0,35,35,76,,,,,,,,,,,,,,,,,,,1,space,5.4493713,2,1.168,,,,,,,,,,,,,,,,,,2019_Mar_15_1618,60.46384231990025,Cloud_Experiment_FR_REAL,001,25,
images/fcloud80-20_D0.8_3.tif,0.8,2,,,,,0,36,36,74,,,,,,,,,,,,,,,,,,,None,None,,None,10.875,,,,,,,,,,,,,,,,,,2019_Mar_15_1618,60.46384231990025,Cloud_Experiment_FR_REAL,001,25,
images/fcloud80-20_D1.3_2.tif,1.3,2,,,,,0,37,37,88,,,,,,,,,,,,,,,,,,,1,space,6.377211,3,1.186,,,,,,,,,,,,,,,,,,2019_Mar_15_1618,60.46384231990025,Cloud_Experiment_FR_REAL,001,25,
images/fcloud80-20_D1_3.tif,1.0,2,,,,,0,38,38,80,,,,,,,,,,,,,,,,,,,1,space,6.1735676,3,2.42,,,,,,,,,,,,,,,,,,2019_Mar_15_1618,60.46384231990025,Cloud_Experiment_FR_REAL,001,25,
images/fcloud_D1.5_2.tif,1.5,0,,,,,0,39,39,22,,,,,,,,,,,,,,,,,,,2,space,4.8532569,4,2.634,,,,,,,,,,,,,,,,,,2019_Mar_15_1618,60.46384231990025,Cloud_Experiment_FR_REAL,001,25,
images/fcloud_D1.6_3.tif,1.6,0,,,,,0,40,40,26,,,,,,,,,,,,,,,,,,,1,space,1.9201686,4,1.22,,,,,,,,,,,,,,,,,,2019_Mar_15_1618,60.46384231990025,Cloud_Experiment_FR_REAL,001,25,
images/fcloud65-35_D1.7_3.tif,1.7,1,,,,,0,41,41,65,,,,,,,,,,,,,,,,,,,1,space,4.3731505,3,1.169,,,,,,,,,,,,,,,,,,2019_Mar_15_1618,60.46384231990025,Cloud_Experiment_FR_REAL,001,25,
images/fcloud_D1.7_1.tif,1.7,0,,,,,0,42,42,27,,,,,,,,,,,,,,,,,,,2,space,5.4704232,3,3.317,,,,,,,,,,,,,,,,,,2019_Mar_15_1618,60.46384231990025,Cloud_Experiment_FR_REAL,001,25,
images/fcloud80-20_D1.3_3.tif,1.3,2,,,,,0,43,43,89,,,,,,,,,,,,,,,,,,,2,space,6.342211,4,3.749,,,,,,,,,,,,,,,,,,2019_Mar_15_1618,60.46384231990025,Cloud_Experiment_FR_REAL,001,25,
images/fcloud_D1.3_2.tif,1.3,0,,,,,0,44,44,16,,,,,,,,,,,,,,,,,,,1,space,7.7047133,3,1.885,,,,,,,,,,,,,,,,,,2019_Mar_15_1618,60.46384231990025,Cloud_Experiment_FR_REAL,001,25,
images/fcloud80-20_D0.9_1.tif,0.9,2,,,,,0,45,45,75,,,,,,,,,,,,,,,,,,,2,space,3.4499789,4,1.751,,,,,,,,,,,,,,,,,,2019_Mar_15_1618,60.46384231990025,Cloud_Experiment_FR_REAL,001,25,
images/fcloud65-35_D1.3_2.tif,1.3,1,,,,,0,46,46,52,,,,,,,,,,,,,,,,,,,None,None,,None,14.09,,,,,,,,,,,,,,,,,,2019_Mar_15_1618,60.46384231990025,Cloud_Experiment_FR_REAL,001,25,
images/fcloud_D1.4_2.tif,1.4,0,,,,,0,47,47,19,,,,,,,,,,,,,,,,,,,None,None,,None,23.417,,,,,,,,,,,,,,,,,,2019_Mar_15_1618,60.46384231990025,Cloud_Experiment_FR_REAL,001,25,
images/fcloud80-20_D1.5_2.tif,1.5,2,,,,,0,48,48,94,,,,,,,,,,,,,,,,,,,2,space,6.1144604,4,3.768,,,,,,,,,,,,,,,,,,2019_Mar_15_1618,60.46384231990025,Cloud_Experiment_FR_REAL,001,25,
images/fcloud80-20_D1.9_3.tif,1.9,2,,,,,0,49,49,107,,,,,,,,,,,,,,,,,,,2,space,6.3871059,3,3.533,,,,,,,,,,,,,,,,,,2019_Mar_15_1618,60.46384231990025,Cloud_Experiment_FR_REAL,001,25,
images/fcloud80-20_D1.6_2.tif,1.6,2,,,,,0,50,50,97,,,,,,,,,,,,,,,,,,,None,None,,None,12.855,,,,,,,,,,,,,,,,,,2019_Mar_15_1618,60.46384231990025,Cloud_Experiment_FR_REAL,001,25,
images/fcloud_D1.2_1.tif,1.2,0,,,,,0,51,51,12,,,,,,,,,,,,,,,,,,,None,None,,None,22.165,,,,,,,,,,,,,,,,,,2019_Mar_15_1618,60.46384231990025,Cloud_Experiment_FR_REAL,001,25,
images/fcloud_D0.8_1.tif,0.8,0,,,,,0,52,52,0,,,,,,,,,,,,,,,,,,,1,space,5.762566,2,1.001,,,,,,,,,,,,,,,,,,2019_Mar_15_1618,60.46384231990025,Cloud_Experiment_FR_REAL,001,25,
images/fcloud80-20_D1_1.tif,1.0,2,,,,,0,53,53,78,,,,,,,,,,,,,,,,,,,None,None,,None,10.379,,,,,,,,,,,,,,,,,,2019_Mar_15_1618,60.46384231990025,Cloud_Experiment_FR_REAL,001,25,
images/fcloud65-35_D1.9_1.tif,1.9,1,,,,,0,54,54,69,,,,,,,,,,,,,,,,,,,1,space,4.9136279,2,2.918,,,,,,,,,,,,,,,,,,2019_Mar_15_1618,60.46384231990025,Cloud_Experiment_FR_REAL,001,25,
images/fcloud_D1.7_2.tif,1.7,0,,,,,0,55,55,28,,,,,,,,,,,,,,,,,,,1,space,5.43905,1,1.402,,,,,,,,,,,,,,,,,,2019_Mar_15_1618,60.46384231990025,Cloud_Experiment_FR_REAL,001,25,
images/fcloud_D1.3_1.tif,1.3,0,,,,,0,56,56,15,,,,,,,,,,,,,,,,,,,2,space,6.0360251,3,1.468,,,,,,,,,,,,,,,,,,2019_Mar_15_1618,60.46384231990025,Cloud_Experiment_FR_REAL,001,25,
images/fcloud_D1.2_2.tif,1.2,0,,,,,0,57,57,13,,,,,,,,,,,,,,,,,,,2,space,5.4208725,4,1.218,,,,,,,,,,,,,,,,,,2019_Mar_15_1618,60.46384231990025,Cloud_Experiment_FR_REAL,001,25,
images/fcloud80-20_D1.5_1.tif,1.5,2,,,,,0,58,58,93,,,,,,,,,,,,,,,,,,,None,None,,None,10.41,,,,,,,,,,,,,,,,,,2019_Mar_15_1618,60.46384231990025,Cloud_Experiment_FR_REAL,001,25,
images/fcloud_D0.8_2.tif,0.8,0,,,,,0,59,59,1,,,,,,,,,,,,,,,,,,,1,space,5.1503652,1,1.002,,,,,,,,,,,,,,,,,,2019_Mar_15_1618,60.46384231990025,Cloud_Experiment_FR_REAL,001,25,
images/fcloud_D1.6_2.tif,1.6,0,,,,,0,60,60,25,,,,,,,,,,,,,,,,,,,1,space,7.6408184,1,0.97,,,,,,,,,,,,,,,,,,2019_Mar_15_1618,60.46384231990025,Cloud_Experiment_FR_REAL,001,25,
images/fcloud65-35_D1.5_1.tif,1.5,1,,,,,0,61,61,57,,,,,,,,,,,,,,,,,,,None,None,,None,10.193,,,,,,,,,,,,,,,,,,2019_Mar_15_1618,60.46384231990025,Cloud_Experiment_FR_REAL,001,25,
images/fcloud80-20_D1.4_3.tif,1.4,2,,,,,0,62,62,92,,,,,,,,,,,,,,,,,,,1,space,7.8114659,1,1.002,,,,,,,,,,,,,,,,,,2019_Mar_15_1618,60.46384231990025,Cloud_Experiment_FR_REAL,001,25,
images/fcloud65-35_D1.6_1.tif,1.6,1,,,,,0,63,63,60,,,,,,,,,,,,,,,,,,,2,space,6.2246063,3,1.418,,,,,,,,,,,,,,,,,,2019_Mar_15_1618,60.46384231990025,Cloud_Experiment_FR_REAL,001,25,
images/fcloud65-35_D1_1.tif,1.0,1,,,,,0,64,64,42,,,,,,,,,,,,,,,,,,,None,None,,None,10.412,,,,,,,,,,,,,,,,,,2019_Mar_15_1618,60.46384231990025,Cloud_Experiment_FR_REAL,001,25,
images/fcloud65-35_D1.1_3.tif,1.1,1,,,,,0,65,65,47,,,,,,,,,,,,,,,,,,,None,None,,None,20.917,,,,,,,,,,,,,,,,,,2019_Mar_15_1618,60.46384231990025,Cloud_Experiment_FR_REAL,001,25,
images/fcloud80-20_D1.6_3.tif,1.6,2,,,,,0,66,66,98,,,,,,,,,,,,,,,,,,,2,space,6.0241844,3,1.935,,,,,,,,,,,,,,,,,,2019_Mar_15_1618,60.46384231990025,Cloud_Experiment_FR_REAL,001,25,
images/fcloud_D1.6_1.tif,1.6,0,,,,,0,67,67,24,,,,,,,,,,,,,,,,,,,3,space,6.5191923,3,4.151,,,,,,,,,,,,,,,,,,2019_Mar_15_1618,60.46384231990025,Cloud_Experiment_FR_REAL,001,25,
images/fcloud_D1.8_2.tif,1.8,0,,,,,0,68,68,31,,,,,,,,,,,,,,,,,,,1,None,,2,0.803,,,,,,,,,,,,,,,,,,2019_Mar_15_1618,60.46384231990025,Cloud_Experiment_FR_REAL,001,25,
images/fcloud65-35_D0.9_3.tif,0.9,1,,,,,0,69,69,41,,,,,,,,,,,,,,,,,,,None,None,,None,10.026,,,,,,,,,,,,,,,,,,2019_Mar_15_1618,60.46384231990025,Cloud_Experiment_FR_REAL,001,25,
images/fcloud65-35_D1.3_1.tif,1.3,1,,,,,0,70,70,51,,,,,,,,,,,,,,,,,,,2,space,5.9065052,3,5.149,,,,,,,,,,,,,,,,,,2019_Mar_15_1618,60.46384231990025,Cloud_Experiment_FR_REAL,001,25,
images/fcloud65-35_D1.9_2.tif,1.9,1,,,,,0,71,71,70,,,,,,,,,,,,,,,,,,,None,None,,None,17.27,,,,,,,,,,,,,,,,,,2019_Mar_15_1618,60.46384231990025,Cloud_Experiment_FR_REAL,001,25,
images/fcloud80-20_D1.4_2.tif,1.4,2,,,,,0,72,72,91,,,,,,,,,,,,,,,,,,,None,None,,None,26.344,,,,,,,,,,,,,,,,,,2019_Mar_15_1618,60.46384231990025,Cloud_Experiment_FR_REAL,001,25,
images/fcloud_D1.2_3.tif,1.2,0,,,,,0,73,73,14,,,,,,,,,,,,,,,,,,,2,space,4.5252887,3,1.75,,,,,,,,,,,,,,,,,,2019_Mar_15_1618,60.46384231990025,Cloud_Experiment_FR_REAL,001,25,
images/fcloud80-20_D1.2_2.tif,1.2,2,,,,,0,74,74,85,,,,,,,,,,,,,,,,,,,None,None,,None,10.876,,,,,,,,,,,,,,,,,,2019_Mar_15_1618,60.46384231990025,Cloud_Experiment_FR_REAL,001,25,
images/fcloud80-20_D0.9_3.tif,0.9,2,,,,,0,75,75,77,,,,,,,,,,,,,,,,,,,None,None,,None,19.834,,,,,,,,,,,,,,,,,,2019_Mar_15_1618,60.46384231990025,Cloud_Experiment_FR_REAL,001,25,
images/fcloud65-35_D0.8_1.tif,0.8,1,,,,,0,76,76,36,,,,,,,,,,,,,,,,,,,None,None,,None,28.91,,,,,,,,,,,,,,,,,,2019_Mar_15_1618,60.46384231990025,Cloud_Experiment_FR_REAL,001,25,
images/fcloud65-35_D1.3_3.tif,1.3,1,,,,,0,77,77,53,,,,,,,,,,,,,,,,,,,None,None,,None,37.986,,,,,,,,,,,,,,,,,,2019_Mar_15_1618,60.46384231990025,Cloud_Experiment_FR_REAL,001,25,
images/fcloud_D1.8_3.tif,1.8,0,,,,,0,78,78,32,,,,,,,,,,,,,,,,,,,1,space,7.6064229,1,1.735,,,,,,,,,,,,,,,,,,2019_Mar_15_1618,60.46384231990025,Cloud_Experiment_FR_REAL,001,25,
images/fcloud80-20_D1.5_3.tif,1.5,2,,,,,0,79,79,95,,,,,,,,,,,,,,,,,,,2,space,6.8114664,2,2.2,,,,,,,,,,,,,,,,,,2019_Mar_15_1618,60.46384231990025,Cloud_Experiment_FR_REAL,001,25,
images/fcloud65-35_D1.8_1.tif,1.8,1,,,,,0,80,80,66,,,,,,,,,,,,,,,,,,,None,None,,None,11.327,,,,,,,,,,,,,,,,,,2019_Mar_15_1618,60.46384231990025,Cloud_Experiment_FR_REAL,001,25,
images/fcloud80-20_D1.7_2.tif,1.7,2,,,,,0,81,81,100,,,,,,,,,,,,,,,,,,,1,space,6.6658524,1,1.701,,,,,,,,,,,,,,,,,,2019_Mar_15_1618,60.46384231990025,Cloud_Experiment_FR_REAL,001,25,
images/fcloud_D0.9_3.tif,0.9,0,,,,,0,82,82,5,,,,,,,,,,,,,,,,,,,1,space,5.7158046,2,1.468,,,,,,,,,,,,,,,,,,2019_Mar_15_1618,60.46384231990025,Cloud_Experiment_FR_REAL,001,25,
images/fcloud65-35_D1.7_1.tif,1.7,1,,,,,0,83,83,63,,,,,,,,,,,,,,,,,,,None,None,,None,10.544,,,,,,,,,,,,,,,,,,2019_Mar_15_1618,60.46384231990025,Cloud_Experiment_FR_REAL,001,25,
images/fcloud_D0.9_1.tif,0.9,0,,,,,0,84,84,3,,,,,,,,,,,,,,,,,,,2,space,5.8614704,2,1.269,,,,,,,,,,,,,,,,,,2019_Mar_15_1618,60.46384231990025,Cloud_Experiment_FR_REAL,001,25,
images/fcloud65-35_D1.2_3.tif,1.2,1,,,,,0,85,85,50,,,,,,,,,,,,,,,,,,,1,space,5.4933263,3,1.568,,,,,,,,,,,,,,,,,,2019_Mar_15_1618,60.46384231990025,Cloud_Experiment_FR_REAL,001,25,
images/fcloud65-35_D1.8_3.tif,1.8,1,,,,,0,86,86,68,,,,,,,,,,,,,,,,,,,None,None,,None,10.594,,,,,,,,,,,,,,,,,,2019_Mar_15_1618,60.46384231990025,Cloud_Experiment_FR_REAL,001,25,
images/fcloud80-20_D1.1_1.tif,1.1,2,,,,,0,87,87,81,,,,,,,,,,,,,,,,,,,1,space,5.6561138,2,1.121,,,,,,,,,,,,,,,,,,2019_Mar_15_1618,60.46384231990025,Cloud_Experiment_FR_REAL,001,25,
images/fcloud65-35_D0.8_3.tif,0.8,1,,,,,0,88,88,38,,,,,,,,,,,,,,,,,,,None,None,,None,10.41,,,,,,,,,,,,,,,,,,2019_Mar_15_1618,60.46384231990025,Cloud_Experiment_FR_REAL,001,25,
images/fcloud80-20_D1.1_2.tif,1.1,2,,,,,0,89,89,82,,,,,,,,,,,,,,,,,,,1,space,9.6222979,1,1.418,,,,,,,,,,,,,,,,,,2019_Mar_15_1618,60.46384231990025,Cloud_Experiment_FR_REAL,001,25,
images/fcloud80-20_D1.4_1.tif,1.4,2,,,,,0,90,90,90,,,,,,,,,,,,,,,,,,,1,space,7.6579711,2,2.069,,,,,,,,,,,,,,,,,,2019_Mar_15_1618,60.46384231990025,Cloud_Experiment_FR_REAL,001,25,
images/fcloud65-35_D1.6_3.tif,1.6,1,,,,,0,91,91,62,,,,,,,,,,,,,,,,,,,None,None,,None,11.242,,,,,,,,,,,,,,,,,,2019_Mar_15_1618,60.46384231990025,Cloud_Experiment_FR_REAL,001,25,
images/fcloud_D1.7_3.tif,1.7,0,,,,,0,92,92,29,,,,,,,,,,,,,,,,,,,1,space,4.3337804,1,1.484,,,,,,,,,,,,,,,,,,2019_Mar_15_1618,60.46384231990025,Cloud_Experiment_FR_REAL,001,25,
images/fcloud_D1.8_1.tif,1.8,0,,,,,0,93,93,30,,,,,,,,,,,,,,,,,,,1,space,5.3012487,3,1.269,,,,,,,,,,,,,,,,,,2019_Mar_15_1618,60.46384231990025,Cloud_Experiment_FR_REAL,001,25,
images/fcloud_D1.5_1.tif,1.5,0,,,,,0,94,94,21,,,,,,,,,,,,,,,,,,,None,None,,None,10.442,,,,,,,,,,,,,,,,,,2019_Mar_15_1618,60.46384231990025,Cloud_Experiment_FR_REAL,001,25,
images/fcloud_D1.1_1.tif,1.1,0,,,,,0,95,95,9,,,,,,,,,,,,,,,,,,,1,space,5.970334,3,0.869,,,,,,,,,,,,,,,,,,2019_Mar_15_1618,60.46384231990025,Cloud_Experiment_FR_REAL,001,25,
images/fcloud65-35_D0.8_2.tif,0.8,1,,,,,0,96,96,37,,,,,,,,,,,,,,,,,,,1,space,6.5464864,1,0.935,,,,,,,,,,,,,,,,,,2019_Mar_15_1618,60.46384231990025,Cloud_Experiment_FR_REAL,001,25,
images/fcloud_D1_2.tif,1.0,0,,,,,0,97,97,7,,,,,,,,,,,,,,,,,,,1,space,4.6902864,2,1.084,,,,,,,,,,,,,,,,,,2019_Mar_15_1618,60.46384231990025,Cloud_Experiment_FR_REAL,001,25,
images/fcloud65-35_D1_3.tif,1.0,1,,,,,0,98,98,44,,,,,,,,,,,,,,,,,,,None,None,,None,10.259,,,,,,,,,,,,,,,,,,2019_Mar_15_1618,60.46384231990025,Cloud_Experiment_FR_REAL,001,25,
images/fcloud80-20_D0.8_1.tif,0.8,2,,,,,0,99,99,72,,,,,,,,,,,,,,,,,,,1,space,5.7349734,2,2.499,,,,,,,,,,,,,,,,,,2019_Mar_15_1618,60.46384231990025,Cloud_Experiment_FR_REAL,001,25,
images/fcloud_D1_1.tif,1.0,0,,,,,0,100,100,6,,,,,,,,,,,,,,,,,,,1,space,4.2411789,4,3.667,,,,,,,,,,,,,,,,,,2019_Mar_15_1618,60.46384231990025,Cloud_Experiment_FR_REAL,001,25,
images/fcloud65-35_D1.9_3.tif,1.9,1,,,,,0,101,101,71,,,,,,,,,,,,,,,,,,,1,space,7.9030936,2,1.701,,,,,,,,,,,,,,,,,,2019_Mar_15_1618,60.46384231990025,Cloud_Experiment_FR_REAL,001,25,
images/fcloud80-20_D1.3_1.tif,1.3,2,,,,,0,102,102,87,,,,,,,,,,,,,,,,,,,None,None,,None,10.925,,,,,,,,,,,,,,,,,,2019_Mar_15_1618,60.46384231990025,Cloud_Experiment_FR_REAL,001,25,
images/fcloud65-35_D1.5_2.tif,1.5,1,,,,,0,103,103,58,,,,,,,,,,,,,,,,,,,2,space,3.7822919,3,2.001,,,,,,,,,,,,,,,,,,2019_Mar_15_1618,60.46384231990025,Cloud_Experiment_FR_REAL,001,25,
images/fcloud_D1.4_3.tif,1.4,0,,,,,0,104,104,20,,,,,,,,,,,,,,,,,,,3,space,5.8585278,2,2.418,,,,,,,,,,,,,,,,,,2019_Mar_15_1618,60.46384231990025,Cloud_Experiment_FR_REAL,001,25,
images/fcloud80-20_D1_2.tif,1.0,2,,,,,0,105,105,79,,,,,,,,,,,,,,,,,,,None,None,,None,11.624,,,,,,,,,,,,,,,,,,2019_Mar_15_1618,60.46384231990025,Cloud_Experiment_FR_REAL,001,25,
images/fcloud80-20_D1.8_2.tif,1.8,2,,,,,0,106,106,103,,,,,,,,,,,,,,,,,,,2,space,7.581031,1,1.669,,,,,,,,,,,,,,,,,,2019_Mar_15_1618,60.46384231990025,Cloud_Experiment_FR_REAL,001,25,
images/fcloud65-35_D1_2.tif,1.0,1,,,,,0,107,107,43,,,,,,,,,,,,,,,,,,,2,space,5.3420982,3,3.766,,,,,,,,,,,,,,,,,,2019_Mar_15_1618,60.46384231990025,Cloud_Experiment_FR_REAL,001,25,
,,,,,,,,,,,,,,,,,,,,,,,,,,,,,,,,,,,,,,,,,,,,,,space,3.9644733,,,,2019_Mar_15_1618,60.46384231990025,Cloud_Experiment_FR_REAL,001,25,
,,,,,,,,,,,,,,,,,,,,,,,,,7,19.407,,,,,,,,,,,,,,,,,,,,,,,,,2019_Mar_15_1618,60.46384231990025,Cloud_Experiment_FR_REAL,001,25,
,,,,,,,,,,,,,,,,,,,,,,,,,,,,,,,,,,5,,,,,,,,,,,,,,,,,2019_Mar_15_1618,60.46384231990025,Cloud_Experiment_FR_REAL,001,25,
,,,,,,,,,,,,,,,,,,,,,,,,,,,,,,,,,,,4,,,,,,,,,,,,,,,,2019_Mar_15_1618,60.46384231990025,Cloud_Experiment_FR_REAL,001,25,
,,,,,,,,,,,,,,,,,,,,,,,,,,,,,,,,,,,,3,,,,,,,,,,,,,,,2019_Mar_15_1618,60.46384231990025,Cloud_Experiment_FR_REAL,001,25,
,,,,,,,,,,,,,,,,,,,,,,,,,,,,,,,,,,,,,3,,,,,,,,,,,,,,2019_Mar_15_1618,60.46384231990025,Cloud_Experiment_FR_REAL,001,25,
,,,,,,,,,,,,,,,,,,,,,,,,,,,,,,,,,,,,,,3,,,,,,,,,,,,,2019_Mar_15_1618,60.46384231990025,Cloud_Experiment_FR_REAL,001,25,
,,,,,,,,,,,,,,,,,,,,,,,,,,,,,,,,,,,,,,,4,,,,,,,,,,,,2019_Mar_15_1618,60.46384231990025,Cloud_Experiment_FR_REAL,001,25,
,,,,,,,,,,,,,,,,,,,,,,,,,,,,,,,,,,,,,,,,4,,,,,,,,,,,2019_Mar_15_1618,60.46384231990025,Cloud_Experiment_FR_REAL,001,25,
,,,,,,,,,,,,,,,,,,,,,,,,,,,,,,,,,,,,,,,,,5,,,,,,,,,,2019_Mar_15_1618,60.46384231990025,Cloud_Experiment_FR_REAL,001,25,
,,,,,,,,,,,,,,,,,,,,,,,,,,,,,,,,,,,,,,,,,,5,,,,,,,,,2019_Mar_15_1618,60.46384231990025,Cloud_Experiment_FR_REAL,001,25,
,,,,,,,,,,,,,,,,,,,,,,,,,,,,,,,,,,,,,,,,,,,4,,,,,,,,2019_Mar_15_1618,60.46384231990025,Cloud_Experiment_FR_REAL,001,25,
,,,,,,,,,,,,,,,,,,,,,,,,,,,,,,,,,,,,,,,,,,,,,,,,space,223.6574192,,2019_Mar_15_1618,60.46384231990025,Cloud_Experiment_FR_REAL,001,25,
images/fcloud65-35_D1_5.tif,1.0,1,,,,,,,,,0,0,0,43,,,,,,,,,,,,,,,1,space,11.1534923,1,0.886,,,,,,,,,,,,,,,,,,2019_Mar_15_1618,60.46384231990025,Cloud_Experiment_FR_REAL,001,25,
images/fcloud80-20_D0.8_6.tif,0.8,2,,,,,,,,,0,1,1,74,,,,,,,,,,,,,,,None,None,,None,10.876,,,,,,,,,,,,,,,,,,2019_Mar_15_1618,60.46384231990025,Cloud_Experiment_FR_REAL,001,25,
images/fcloud65-35_D1.7_5.tif,1.7,1,,,,,,,,,0,2,2,64,,,,,,,,,,,,,,,1,space,5.1126576,2,0.602,,,,,,,,,,,,,,,,,,2019_Mar_15_1618,60.46384231990025,Cloud_Experiment_FR_REAL,001,25,
images/fcloud_D1.7_5.tif,1.7,0,,,,,,,,,0,3,3,28,,,,,,,,,,,,,,,1,space,5.4300125,3,1.534,,,,,,,,,,,,,,,,,,2019_Mar_15_1618,60.46384231990025,Cloud_Experiment_FR_REAL,001,25,
images/fcloud_D1.2_6.tif,1.2,0,,,,,,,,,0,4,4,14,,,,,,,,,,,,,,,2,space,2.9559108,3,1.384,,,,,,,,,,,,,,,,,,2019_Mar_15_1618,60.46384231990025,Cloud_Experiment_FR_REAL,001,25,
images/fcloud80-20_D1.3_4.tif,1.3,2,,,,,,,,,0,5,5,87,,,,,,,,,,,,,,,1,space,5.7604789,1,0.735,,,,,,,,,,,,,,,,,,2019_Mar_15_1618,60.46384231990025,Cloud_Experiment_FR_REAL,001,25,
images/fcloud_D1.4_4.tif,1.4,0,,,,,,,,,0,6,6,18,,,,,,,,,,,,,,,2,space,4.0978197,3,3.883,,,,,,,,,,,,,,,,,,2019_Mar_15_1618,60.46384231990025,Cloud_Experiment_FR_REAL,001,25,
images/fcloud65-35_D1_6.tif,1.0,1,,,,,,,,,0,7,7,44,,,,,,,,,,,,,,,None,None,,None,12.825,,,,,,,,,,,,,,,,,,2019_Mar_15_1618,60.46384231990025,Cloud_Experiment_FR_REAL,001,25,
images/fcloud80-20_D0.9_5.tif,0.9,2,,,,,,,,,0,8,8,76,,,,,,,,,,,,,,,1,space,5.5134451,2,1.235,,,,,,,,,,,,,,,,,,2019_Mar_15_1618,60.46384231990025,Cloud_Experiment_FR_REAL,001,25,
images/fcloud80-20_D1.8_4.tif,1.8,2,,,,,,,,,0,9,9,102,,,,,,,,,,,,,,,None,None,,None,9.976,,,,,,,,,,,,,,,,,,2019_Mar_15_1618,60.46384231990025,Cloud_Experiment_FR_REAL,001,25,
images/fcloud65-35_D1.3_4.tif,1.3,1,,,,,,,,,0,10,10,51,,,,,,,,,,,,,,,2,space,7.7123537,1,2.085,,,,,,,,,,,,,,,,,,2019_Mar_15_1618,60.46384231990025,Cloud_Experiment_FR_REAL,001,25,
images/fcloud_D1.3_6.tif,1.3,0,,,,,,,,,0,11,11,17,,,,,,,,,,,,,,,None,None,,None,11.025,,,,,,,,,,,,,,,,,,2019_Mar_15_1618,60.46384231990025,Cloud_Experiment_FR_REAL,001,25,
images/fcloud65-35_D1.5_4.tif,1.5,1,,,,,,,,,0,12,12,57,,,,,,,,,,,,,,,None,None,,None,20.101,,,,,,,,,,,,,,,,,,2019_Mar_15_1618,60.46384231990025,Cloud_Experiment_FR_REAL,001,25,
images/fcloud65-35_D1.6_4.tif,1.6,1,,,,,,,,,0,13,13,60,,,,,,,,,,,,,,,None,None,,None,29.027,,,,,,,,,,,,,,,,,,2019_Mar_15_1618,60.46384231990025,Cloud_Experiment_FR_REAL,001,25,
images/fcloud_D1.6_4.tif,1.6,0,,,,,,,,,0,14,14,24,,,,,,,,,,,,,,,1,space,5.5265957,2,0.501,,,,,,,,,,,,,,,,,,2019_Mar_15_1618,60.46384231990025,Cloud_Experiment_FR_REAL,001,25,
images/fcloud65-35_D0.8_5.tif,0.8,1,,,,,,,,,0,15,15,37,,,,,,,,,,,,,,,1,space,5.5429562,2,0.835,,,,,,,,,,,,,,,,,,2019_Mar_15_1618,60.46384231990025,Cloud_Experiment_FR_REAL,001,25,
images/fcloud80-20_D1.9_5.tif,1.9,2,,,,,,,,,0,16,16,106,,,,,,,,,,,,,,,1,space,7.0204012,1,0.752,,,,,,,,,,,,,,,,,,2019_Mar_15_1618,60.46384231990025,Cloud_Experiment_FR_REAL,001,25,
images/fcloud80-20_D1.9_4.tif,1.9,2,,,,,,,,,0,17,17,105,,,,,,,,,,,,,,,1,space,6.7106845,2,0.901,,,,,,,,,,,,,,,,,,2019_Mar_15_1618,60.46384231990025,Cloud_Experiment_FR_REAL,001,25,
images/fcloud80-20_D1.2_6.tif,1.2,2,,,,,,,,,0,18,18,86,,,,,,,,,,,,,,,1,space,6.5570924,1,0.519,,,,,,,,,,,,,,,,,,2019_Mar_15_1618,60.46384231990025,Cloud_Experiment_FR_REAL,001,25,
images/fcloud_D0.8_5.tif,0.8,0,,,,,,,,,0,19,19,1,,,,,,,,,,,,,,,None,None,,None,9.429,,,,,,,,,,,,,,,,,,2019_Mar_15_1618,60.46384231990025,Cloud_Experiment_FR_REAL,001,25,
images/fcloud_D1.7_4.tif,1.7,0,,,,,,,,,0,20,20,27,,,,,,,,,,,,,,,1,space,6.708853,2,0.719,,,,,,,,,,,,,,,,,,2019_Mar_15_1618,60.46384231990025,Cloud_Experiment_FR_REAL,001,25,
images/fcloud_D1_4.tif,1.0,0,,,,,,,,,0,21,21,6,,,,,,,,,,,,,,,1,space,5.9793031,2,1.468,,,,,,,,,,,,,,,,,,2019_Mar_15_1618,60.46384231990025,Cloud_Experiment_FR_REAL,001,25,
images/fcloud65-35_D0.9_5.tif,0.9,1,,,,,,,,,0,22,22,40,,,,,,,,,,,,,,,None,None,,None,9.976,,,,,,,,,,,,,,,,,,2019_Mar_15_1618,60.46384231990025,Cloud_Experiment_FR_REAL,001,25,
images/fcloud65-35_D1_4.tif,1.0,1,,,,,,,,,0,23,23,42,,,,,,,,,,,,,,,2,space,4.9140508,3,2.568,,,,,,,,,,,,,,,,,,2019_Mar_15_1618,60.46384231990025,Cloud_Experiment_FR_REAL,001,25,
images/fcloud80-20_D1.4_6.tif,1.4,2,,,,,,,,,0,24,24,92,,,,,,,,,,,,,,,2,space,4.1563453,3,3.566,,,,,,,,,,,,,,,,,,2019_Mar_15_1618,60.46384231990025,Cloud_Experiment_FR_REAL,001,25,
images/fcloud65-35_D1.9_4.tif,1.9,1,,,,,,,,,0,25,25,69,,,,,,,,,,,,,,,None,None,,None,12.476,,,,,,,,,,,,,,,,,,2019_Mar_15_1618,60.46384231990025,Cloud_Experiment_FR_REAL,001,25,
images/fcloud80-20_D1.7_6.tif,1.7,2,,,,,,,,,0,26,26,101,,,,,,,,,,,,,,,1,space,5.8200083,1,1.351,,,,,,,,,,,,,,,,,,2019_Mar_15_1618,60.46384231990025,Cloud_Experiment_FR_REAL,001,25,
images/fcloud_D1.4_6.tif,1.4,0,,,,,,,,,0,27,27,20,,,,,,,,,,,,,,,2,space,7.3252081,3,1.52,,,,,,,,,,,,,,,,,,2019_Mar_15_1618,60.46384231990025,Cloud_Experiment_FR_REAL,001,25,
images/fcloud80-20_D1.6_6.tif,1.6,2,,,,,,,,,0,28,28,98,,,,,,,,,,,,,,,None,None,,None,10.394,,,,,,,,,,,,,,,,,,2019_Mar_15_1618,60.46384231990025,Cloud_Experiment_FR_REAL,001,25,
images/fcloud80-20_D0.8_4.tif,0.8,2,,,,,,,,,0,29,29,72,,,,,,,,,,,,,,,1,space,4.9324438,3,2.734,,,,,,,,,,,,,,,,,,2019_Mar_15_1618,60.46384231990025,Cloud_Experiment_FR_REAL,001,25,
images/fcloud80-20_D1.5_5.tif,1.5,2,,,,,,,,,0,30,30,94,,,,,,,,,,,,,,,None,None,,None,11.574,,,,,,,,,,,,,,,,,,2019_Mar_15_1618,60.46384231990025,Cloud_Experiment_FR_REAL,001,25,
images/fcloud_D1_5.tif,1.0,0,,,,,,,,,0,31,31,7,,,,,,,,,,,,,,,1,space,7.1998772,2,1.069,,,,,,,,,,,,,,,,,,2019_Mar_15_1618,60.46384231990025,Cloud_Experiment_FR_REAL,001,25,
images/fcloud_D1.6_6.tif,1.6,0,,,,,,,,,0,32,32,26,,,,,,,,,,,,,,,1,space,4.5192015,3,3.45,,,,,,,,,,,,,,,,,,2019_Mar_15_1618,60.46384231990025,Cloud_Experiment_FR_REAL,001,25,
images/fcloud65-35_D0.8_4.tif,0.8,1,,,,,,,,,0,33,33,36,,,,,,,,,,,,,,,1,space,6.1513606,2,0.618,,,,,,,,,,,,,,,,,,2019_Mar_15_1618,60.46384231990025,Cloud_Experiment_FR_REAL,001,25,
images/fcloud65-35_D1.5_6.tif,1.5,1,,,,,,,,,0,34,34,59,,,,,,,,,,,,,,,None,None,,None,9.677,,,,,,,,,,,,,,,,,,2019_Mar_15_1618,60.46384231990025,Cloud_Experiment_FR_REAL,001,25,
images/fcloud_D1_6.tif,1.0,0,,,,,,,,,0,35,35,8,,,,,,,,,,,,,,,1,space,7.0140112,3,2.484,,,,,,,,,,,,,,,,,,2019_Mar_15_1618,60.46384231990025,Cloud_Experiment_FR_REAL,001,25,
images/fcloud_D0.9_5.tif,0.9,0,,,,,,,,,0,36,36,4,,,,,,,,,,,,,,,1,space,17.6371626,3,3.084,,,,,,,,,,,,,,,,,,2019_Mar_15_1618,60.46384231990025,Cloud_Experiment_FR_REAL,001,25,
images/fcloud_D1.6_5.tif,1.6,0,,,,,,,,,0,37,37,25,,,,,,,,,,,,,,,3,space,5.6004117,3,3.631,,,,,,,,,,,,,,,,,,2019_Mar_15_1618,60.46384231990025,Cloud_Experiment_FR_REAL,001,25,
images/fcloud_D0.9_6.tif,0.9,0,,,,,,,,,0,38,38,5,,,,,,,,,,,,,,,1,None,,1,0.919,,,,,,,,,,,,,,,,,,2019_Mar_15_1618,60.46384231990025,Cloud_Experiment_FR_REAL,001,25,
images/fcloud80-20_D1.2_5.tif,1.2,2,,,,,,,,,0,39,39,85,,,,,,,,,,,,,,,1,space,5.2532829,3,1.585,,,,,,,,,,,,,,,,,,2019_Mar_15_1618,60.46384231990025,Cloud_Experiment_FR_REAL,001,25,
images/fcloud_D1.5_6.tif,1.5,0,,,,,,,,,0,40,40,23,,,,,,,,,,,,,,,None,None,,None,10.725,,,,,,,,,,,,,,,,,,2019_Mar_15_1618,60.46384231990025,Cloud_Experiment_FR_REAL,001,25,
images/fcloud_D1.8_5.tif,1.8,0,,,,,,,,,0,41,41,31,,,,,,,,,,,,,,,2,space,3.6042244,3,1.135,,,,,,,,,,,,,,,,,,2019_Mar_15_1618,60.46384231990025,Cloud_Experiment_FR_REAL,001,25,
images/fcloud65-35_D0.9_6.tif,0.9,1,,,,,,,,,0,42,42,41,,,,,,,,,,,,,,,None,None,,None,9.944,,,,,,,,,,,,,,,,,,2019_Mar_15_1618,60.46384231990025,Cloud_Experiment_FR_REAL,001,25,
images/fcloud80-20_D1.8_5.tif,1.8,2,,,,,,,,,0,43,43,103,,,,,,,,,,,,,,,1,space,5.2224761,3,0.817,,,,,,,,,,,,,,,,,,2019_Mar_15_1618,60.46384231990025,Cloud_Experiment_FR_REAL,001,25,
images/fcloud_D1.8_4.tif,1.8,0,,,,,,,,,0,44,44,30,,,,,,,,,,,,,,,1,space,7.4680902,2,0.618,,,,,,,,,,,,,,,,,,2019_Mar_15_1618,60.46384231990025,Cloud_Experiment_FR_REAL,001,25,
images/fcloud_D1.7_6.tif,1.7,0,,,,,,,,,0,45,45,29,,,,,,,,,,,,,,,1,None,,1,0.721,,,,,,,,,,,,,,,,,,2019_Mar_15_1618,60.46384231990025,Cloud_Experiment_FR_REAL,001,25,
images/fcloud80-20_D1.6_4.tif,1.6,2,,,,,,,,,0,46,46,96,,,,,,,,,,,,,,,1,space,2.4787942,4,1.053,,,,,,,,,,,,,,,,,,2019_Mar_15_1618,60.46384231990025,Cloud_Experiment_FR_REAL,001,25,
images/fcloud_D1.3_4.tif,1.3,0,,,,,,,,,0,47,47,15,,,,,,,,,,,,,,,1,None,,1,0.553,,,,,,,,,,,,,,,,,,2019_Mar_15_1618,60.46384231990025,Cloud_Experiment_FR_REAL,001,25,
images/fcloud65-35_D1.8_4.tif,1.8,1,,,,,,,,,0,48,48,66,,,,,,,,,,,,,,,1,space,4.9928079,3,0.753,,,,,,,,,,,,,,,,,,2019_Mar_15_1618,60.46384231990025,Cloud_Experiment_FR_REAL,001,25,
images/fcloud_D0.8_6.tif,0.8,0,,,,,,,,,0,49,49,2,,,,,,,,,,,,,,,1,space,5.1055735,2,1.369,,,,,,,,,,,,,,,,,,2019_Mar_15_1618,60.46384231990025,Cloud_Experiment_FR_REAL,001,25,
images/fcloud65-35_D1.4_5.tif,1.4,1,,,,,,,,,0,50,50,55,,,,,,,,,,,,,,,1,space,7.5427756,2,1.685,,,,,,,,,,,,,,,,,,2019_Mar_15_1618,60.46384231990025,Cloud_Experiment_FR_REAL,001,25,
images/fcloud80-20_D1.6_5.tif,1.6,2,,,,,,,,,0,51,51,97,,,,,,,,,,,,,,,None,None,,None,10.71,,,,,,,,,,,,,,,,,,2019_Mar_15_1618,60.46384231990025,Cloud_Experiment_FR_REAL,001,25,
images/fcloud_D1.9_6.tif,1.9,0,,,,,,,,,0,52,52,35,,,,,,,,,,,,,,,1,space,7.2128318,2,0.62,,,,,,,,,,,,,,,,,,2019_Mar_15_1618,60.46384231990025,Cloud_Experiment_FR_REAL,001,25,
images/fcloud80-20_D1.1_6.tif,1.1,2,,,,,,,,,0,53,53,83,,,,,,,,,,,,,,,2,space,4.937823,3,1.135,,,,,,,,,,,,,,,,,,2019_Mar_15_1618,60.46384231990025,Cloud_Experiment_FR_REAL,001,25,
images/fcloud65-35_D1.3_5.tif,1.3,1,,,,,,,,,0,54,54,52,,,,,,,,,,,,,,,2,space,3.0949545,3,3.4,,,,,,,,,,,,,,,,,,2019_Mar_15_1618,60.46384231990025,Cloud_Experiment_FR_REAL,001,25,
images/fcloud65-35_D1.1_6.tif,1.1,1,,,,,,,,,0,55,55,47,,,,,,,,,,,,,,,None,None,,None,12.491,,,,,,,,,,,,,,,,,,2019_Mar_15_1618,60.46384231990025,Cloud_Experiment_FR_REAL,001,25,
images/fcloud80-20_D1.4_5.tif,1.4,2,,,,,,,,,0,56,56,91,,,,,,,,,,,,,,,None,None,,None,21.516,,,,,,,,,,,,,,,,,,2019_Mar_15_1618,60.46384231990025,Cloud_Experiment_FR_REAL,001,25,
images/fcloud_D1.2_5.tif,1.2,0,,,,,,,,,0,57,57,13,,,,,,,,,,,,,,,2,space,4.4388729,3,2.252,,,,,,,,,,,,,,,,,,2019_Mar_15_1618,60.46384231990025,Cloud_Experiment_FR_REAL,001,25,
images/fcloud65-35_D1.2_5.tif,1.2,1,,,,,,,,,0,58,58,49,,,,,,,,,,,,,,,None,None,,None,11.158,,,,,,,,,,,,,,,,,,2019_Mar_15_1618,60.46384231990025,Cloud_Experiment_FR_REAL,001,25,
images/fcloud80-20_D0.9_4.tif,0.9,2,,,,,,,,,0,59,59,75,,,,,,,,,,,,,,,1,space,6.0573825,4,3.733,,,,,,,,,,,,,,,,,,2019_Mar_15_1618,60.46384231990025,Cloud_Experiment_FR_REAL,001,25,
images/fcloud65-35_D1.6_5.tif,1.6,1,,,,,,,,,0,60,60,61,,,,,,,,,,,,,,,None,None,,None,12.806,,,,,,,,,,,,,,,,,,2019_Mar_15_1618,60.46384231990025,Cloud_Experiment_FR_REAL,001,25,
images/fcloud65-35_D1.1_5.tif,1.1,1,,,,,,,,,0,61,61,46,,,,,,,,,,,,,,,1,space,6.863682,3,3.283,,,,,,,,,,,,,,,,,,2019_Mar_15_1618,60.46384231990025,Cloud_Experiment_FR_REAL,001,25,
images/fcloud65-35_D1.8_6.tif,1.8,1,,,,,,,,,0,62,62,68,,,,,,,,,,,,,,,None,None,,None,12.308,,,,,,,,,,,,,,,,,,2019_Mar_15_1618,60.46384231990025,Cloud_Experiment_FR_REAL,001,25,
images/fcloud80-20_D0.8_5.tif,0.8,2,,,,,,,,,0,63,63,73,,,,,,,,,,,,,,,None,space,7.8994153,None,21.284,,,,,,,,,,,,,,,,,,2019_Mar_15_1618,60.46384231990025,Cloud_Experiment_FR_REAL,001,25,
images/fcloud_D0.9_4.tif,0.9,0,,,,,,,,,0,64,64,3,,,,,,,,,,,,,,,1,space,3.3812765,4,1.169,,,,,,,,,,,,,,,,,,2019_Mar_15_1618,60.46384231990025,Cloud_Experiment_FR_REAL,001,25,
images/fcloud_D1.1_5.tif,1.1,0,,,,,,,,,0,65,65,10,,,,,,,,,,,,,,,None,None,,None,10.526,,,,,,,,,,,,,,,,,,2019_Mar_15_1618,60.46384231990025,Cloud_Experiment_FR_REAL,001,25,
images/fcloud_D1.5_4.tif,1.5,0,,,,,,,,,0,66,66,21,,,,,,,,,,,,,,,None,None,,None,19.136,,,,,,,,,,,,,,,,,,2019_Mar_15_1618,60.46384231990025,Cloud_Experiment_FR_REAL,001,25,
images/fcloud80-20_D1.3_6.tif,1.3,2,,,,,,,,,0,67,67,89,,,,,,,,,,,,,,,2,space,5.6972746,1,4.382,,,,,,,,,,,,,,,,,,2019_Mar_15_1618,60.46384231990025,Cloud_Experiment_FR_REAL,001,25,
images/fcloud65-35_D1.9_5.tif,1.9,1,,,,,,,,,0,68,68,70,,,,,,,,,,,,,,,1,None,,1,1.57,,,,,,,,,,,,,,,,,,2019_Mar_15_1618,60.46384231990025,Cloud_Experiment_FR_REAL,001,25,
images/fcloud_D1.9_4.tif,1.9,0,,,,,,,,,0,69,69,33,,,,,,,,,,,,,,,None,None,,None,11.825,,,,,,,,,,,,,,,,,,2019_Mar_15_1618,60.46384231990025,Cloud_Experiment_FR_REAL,001,25,
images/fcloud65-35_D0.8_6.tif,0.8,1,,,,,,,,,0,70,70,38,,,,,,,,,,,,,,,2,space,4.6946099,3,6.398,,,,,,,,,,,,,,,,,,2019_Mar_15_1618,60.46384231990025,Cloud_Experiment_FR_REAL,001,25,
images/fcloud65-35_D1.2_4.tif,1.2,1,,,,,,,,,0,71,71,48,,,,,,,,,,,,,,,None,None,,None,15.67,,,,,,,,,,,,,,,,,,2019_Mar_15_1618,60.46384231990025,Cloud_Experiment_FR_REAL,001,25,
images/fcloud_D1.4_5.tif,1.4,0,,,,,,,,,0,72,72,19,,,,,,,,,,,,,,,None,None,,None,24.829,,,,,,,,,,,,,,,,,,2019_Mar_15_1618,60.46384231990025,Cloud_Experiment_FR_REAL,001,25,
images/fcloud_D1.3_5.tif,1.3,0,,,,,,,,,0,73,73,16,,,,,,,,,,,,,,,1,space,6.0907429,3,1.018,,,,,,,,,,,,,,,,,,2019_Mar_15_1618,60.46384231990025,Cloud_Experiment_FR_REAL,001,25,
images/fcloud80-20_D1.8_6.tif,1.8,2,,,,,,,,,0,74,74,104,,,,,,,,,,,,,,,None,None,,None,9.76,,,,,,,,,,,,,,,,,,2019_Mar_15_1618,60.46384231990025,Cloud_Experiment_FR_REAL,001,25,
images/fcloud80-20_D1.1_5.tif,1.1,2,,,,,,,,,0,75,75,82,,,,,,,,,,,,,,,None,None,,None,18.72,,,,,,,,,,,,,,,,,,2019_Mar_15_1618,60.46384231990025,Cloud_Experiment_FR_REAL,001,25,
images/fcloud65-35_D1.7_6.tif,1.7,1,,,,,,,,,0,76,76,65,,,,,,,,,,,,,,,None,None,,None,27.596,,,,,,,,,,,,,,,,,,2019_Mar_15_1618,60.46384231990025,Cloud_Experiment_FR_REAL,001,25,
images/fcloud80-20_D1.3_5.tif,1.3,2,,,,,,,,,0,77,77,88,,,,,,,,,,,,,,,1,space,7.9530943,1,0.768,,,,,,,,,,,,,,,,,,2019_Mar_15_1618,60.46384231990025,Cloud_Experiment_FR_REAL,001,25,
images/fcloud80-20_D1.4_4.tif,1.4,2,,,,,,,,,0,78,78,90,,,,,,,,,,,,,,,None,None,,None,9.726,,,,,,,,,,,,,,,,,,2019_Mar_15_1618,60.46384231990025,Cloud_Experiment_FR_REAL,001,25,
images/fcloud65-35_D1.3_6.tif,1.3,1,,,,,,,,,0,79,79,53,,,,,,,,,,,,,,,1,space,7.1630233,3,0.603,,,,,,,,,,,,,,,,,,2019_Mar_15_1618,60.46384231990025,Cloud_Experiment_FR_REAL,001,25,
images/fcloud80-20_D1.5_6.tif,1.5,2,,,,,,,,,0,80,80,95,,,,,,,,,,,,,,,2,space,6.9925073,1,0.535,,,,,,,,,,,,,,,,,,2019_Mar_15_1618,60.46384231990025,Cloud_Experiment_FR_REAL,001,25,
images/fcloud65-35_D0.9_4.tif,0.9,1,,,,,,,,,0,81,81,39,,,,,,,,,,,,,,,1,None,,1,0.768,,,,,,,,,,,,,,,,,,2019_Mar_15_1618,60.46384231990025,Cloud_Experiment_FR_REAL,001,25,
images/fcloud65-35_D1.4_6.tif,1.4,1,,,,,,,,,0,82,82,56,,,,,,,,,,,,,,,None,None,,None,9.81,,,,,,,,,,,,,,,,,,2019_Mar_15_1618,60.46384231990025,Cloud_Experiment_FR_REAL,001,25,
images/fcloud80-20_D1.9_6.tif,1.9,2,,,,,,,,,0,83,83,107,,,,,,,,,,,,,,,2,space,3.2291912,3,0.968,,,,,,,,,,,,,,,,,,2019_Mar_15_1618,60.46384231990025,Cloud_Experiment_FR_REAL,001,25,
images/fcloud_D1.9_5.tif,1.9,0,,,,,,,,,0,84,84,34,,,,,,,,,,,,,,,1,space,6.0315017,2,2.484,,,,,,,,,,,,,,,,,,2019_Mar_15_1618,60.46384231990025,Cloud_Experiment_FR_REAL,001,25,
images/fcloud80-20_D1.2_4.tif,1.2,2,,,,,,,,,0,85,85,84,,,,,,,,,,,,,,,None,None,,None,11.343,,,,,,,,,,,,,,,,,,2019_Mar_15_1618,60.46384231990025,Cloud_Experiment_FR_REAL,001,25,
images/fcloud_D1.2_4.tif,1.2,0,,,,,,,,,0,86,86,12,,,,,,,,,,,,,,,1,space,2.0684697,2,0.57,,,,,,,,,,,,,,,,,,2019_Mar_15_1618,60.46384231990025,Cloud_Experiment_FR_REAL,001,25,
images/fcloud65-35_D1.9_6.tif,1.9,1,,,,,,,,,0,87,87,71,,,,,,,,,,,,,,,None,None,,None,9.826,,,,,,,,,,,,,,,,,,2019_Mar_15_1618,60.46384231990025,Cloud_Experiment_FR_REAL,001,25,
images/fcloud_D1.1_4.tif,1.1,0,,,,,,,,,0,88,88,9,,,,,,,,,,,,,,,1,space,6.7862185,2,0.985,,,,,,,,,,,,,,,,,,2019_Mar_15_1618,60.46384231990025,Cloud_Experiment_FR_REAL,001,25,
images/fcloud65-35_D1.5_5.tif,1.5,1,,,,,,,,,0,89,89,58,,,,,,,,,,,,,,,None,None,,None,9.427,,,,,,,,,,,,,,,,,,2019_Mar_15_1618,60.46384231990025,Cloud_Experiment_FR_REAL,001,25,
images/fcloud_D1.8_6.tif,1.8,0,,,,,,,,,0,90,90,32,,,,,,,,,,,,,,,2,space,5.570968,2,1.55,,,,,,,,,,,,,,,,,,2019_Mar_15_1618,60.46384231990025,Cloud_Experiment_FR_REAL,001,25,
images/fcloud65-35_D1.2_6.tif,1.2,1,,,,,,,,,0,91,91,50,,,,,,,,,,,,,,,2,space,3.7333253,3,1.085,,,,,,,,,,,,,,,,,,2019_Mar_15_1618,60.46384231990025,Cloud_Experiment_FR_REAL,001,25,
images/fcloud65-35_D1.6_6.tif,1.6,1,,,,,,,,,0,92,92,62,,,,,,,,,,,,,,,None,None,,None,10.227,,,,,,,,,,,,,,,,,,2019_Mar_15_1618,60.46384231990025,Cloud_Experiment_FR_REAL,001,25,
images/fcloud80-20_D1.5_4.tif,1.5,2,,,,,,,,,0,93,93,93,,,,,,,,,,,,,,,None,None,,None,19.901,,,,,,,,,,,,,,,,,,2019_Mar_15_1618,60.46384231990025,Cloud_Experiment_FR_REAL,001,25,
images/fcloud80-20_D1_4.tif,1.0,2,,,,,,,,,0,94,94,78,,,,,,,,,,,,,,,1,space,5.27756,4,1.035,,,,,,,,,,,,,,,,,,2019_Mar_15_1618,60.46384231990025,Cloud_Experiment_FR_REAL,001,25,
images/fcloud65-35_D1.1_4.tif,1.1,1,,,,,,,,,0,95,95,45,,,,,,,,,,,,,,,None,None,,None,9.993,,,,,,,,,,,,,,,,,,2019_Mar_15_1618,60.46384231990025,Cloud_Experiment_FR_REAL,001,25,
images/fcloud65-35_D1.8_5.tif,1.8,1,,,,,,,,,0,96,96,67,,,,,,,,,,,,,,,None,None,,None,20.201,,,,,,,,,,,,,,,,,,2019_Mar_15_1618,60.46384231990025,Cloud_Experiment_FR_REAL,001,25,
images/fcloud80-20_D1.7_5.tif,1.7,2,,,,,,,,,0,97,97,100,,,,,,,,,,,,,,,2,space,6.5673404,3,1.601,,,,,,,,,,,,,,,,,,2019_Mar_15_1618,60.46384231990025,Cloud_Experiment_FR_REAL,001,25,
images/fcloud_D1.5_5.tif,1.5,0,,,,,,,,,0,98,98,22,,,,,,,,,,,,,,,2,space,4.1464749,4,3.183,,,,,,,,,,,,,,,,,,2019_Mar_15_1618,60.46384231990025,Cloud_Experiment_FR_REAL,001,25,
images/fcloud_D1.1_6.tif,1.1,0,,,,,,,,,0,99,99,11,,,,,,,,,,,,,,,2,space,3.7958793,4,1.568,,,,,,,,,,,,,,,,,,2019_Mar_15_1618,60.46384231990025,Cloud_Experiment_FR_REAL,001,25,
images/fcloud_D0.8_4.tif,0.8,0,,,,,,,,,0,100,100,0,,,,,,,,,,,,,,,None,None,,None,10.542,,,,,,,,,,,,,,,,,,2019_Mar_15_1618,60.46384231990025,Cloud_Experiment_FR_REAL,001,25,
images/fcloud80-20_D1.1_4.tif,1.1,2,,,,,,,,,0,101,101,81,,,,,,,,,,,,,,,1,space,7.009635,2,1.402,,,,,,,,,,,,,,,,,,2019_Mar_15_1618,60.46384231990025,Cloud_Experiment_FR_REAL,001,25,
images/fcloud80-20_D1_5.tif,1.0,2,,,,,,,,,0,102,102,79,,,,,,,,,,,,,,,1,space,7.5601364,2,0.768,,,,,,,,,,,,,,,,,,2019_Mar_15_1618,60.46384231990025,Cloud_Experiment_FR_REAL,001,25,
images/fcloud80-20_D0.9_6.tif,0.9,2,,,,,,,,,0,103,103,77,,,,,,,,,,,,,,,1,space,4.5611557,3,1.652,,,,,,,,,,,,,,,,,,2019_Mar_15_1618,60.46384231990025,Cloud_Experiment_FR_REAL,001,25,
images/fcloud80-20_D1_6.tif,1.0,2,,,,,,,,,0,104,104,80,,,,,,,,,,,,,,,None,None,,None,10.593,,,,,,,,,,,,,,,,,,2019_Mar_15_1618,60.46384231990025,Cloud_Experiment_FR_REAL,001,25,
images/fcloud65-35_D1.4_4.tif,1.4,1,,,,,,,,,0,105,105,54,,,,,,,,,,,,,,,None,None,,None,19.901,,,,,,,,,,,,,,,,,,2019_Mar_15_1618,60.46384231990025,Cloud_Experiment_FR_REAL,001,25,
images/fcloud80-20_D1.7_4.tif,1.7,2,,,,,,,,,0,106,106,99,,,,,,,,,,,,,,,1,space,5.9173421,3,2.235,,,,,,,,,,,,,,,,,,2019_Mar_15_1618,60.46384231990025,Cloud_Experiment_FR_REAL,001,25,
images/fcloud65-35_D1.7_4.tif,1.7,1,,,,,,,,,0,107,107,63,,,,,,,,,,,,,,,2,space,4.972911,4,1.085,,,,,,,,,,,,,,,,,,2019_Mar_15_1618,60.46384231990025,Cloud_Experiment_FR_REAL,001,25,
,,,,,,,,,,,,,,,,,,,,,,,,,,,,,,,,,,,,,,,,,,,,,,space,3.1499403,,,,2019_Mar_15_1618,60.46384231990025,Cloud_Experiment_FR_REAL,001,25,
,,,,,,,,,,,,,,,,,,,,,,,,,8,10.805,,,,,,,,,,,,,,,,,,,,,,,,,2019_Mar_15_1618,60.46384231990025,Cloud_Experiment_FR_REAL,001,25,
,,,,,,,,,,,,,,,,,,,,,,,,,,,,,,,,,,4,,,,,,,,,,,,,,,,,2019_Mar_15_1618,60.46384231990025,Cloud_Experiment_FR_REAL,001,25,
,,,,,,,,,,,,,,,,,,,,,,,,,,,,,,,,,,,5,,,,,,,,,,,,,,,,2019_Mar_15_1618,60.46384231990025,Cloud_Experiment_FR_REAL,001,25,
,,,,,,,,,,,,,,,,,,,,,,,,,,,,,,,,,,,,5,,,,,,,,,,,,,,,2019_Mar_15_1618,60.46384231990025,Cloud_Experiment_FR_REAL,001,25,
,,,,,,,,,,,,,,,,,,,,,,,,,,,,,,,,,,,,,4,,,,,,,,,,,,,,2019_Mar_15_1618,60.46384231990025,Cloud_Experiment_FR_REAL,001,25,
,,,,,,,,,,,,,,,,,,,,,,,,,,,,,,,,,,,,,,5,,,,,,,,,,,,,2019_Mar_15_1618,60.46384231990025,Cloud_Experiment_FR_REAL,001,25,
,,,,,,,,,,,,,,,,,,,,,,,,,,,,,,,,,,,,,,,4,,,,,,,,,,,,2019_Mar_15_1618,60.46384231990025,Cloud_Experiment_FR_REAL,001,25,
,,,,,,,,,,,,,,,,,,,,,,,,,,,,,,,,,,,,,,,,5,,,,,,,,,,,2019_Mar_15_1618,60.46384231990025,Cloud_Experiment_FR_REAL,001,25,
,,,,,,,,,,,,,,,,,,,,,,,,,,,,,,,,,,,,,,,,,5,,,,,,,,,,2019_Mar_15_1618,60.46384231990025,Cloud_Experiment_FR_REAL,001,25,
,,,,,,,,,,,,,,,,,,,,,,,,,,,,,,,,,,,,,,,,,,6,,,,,,,,,2019_Mar_15_1618,60.46384231990025,Cloud_Experiment_FR_REAL,001,25,
,,,,,,,,,,,,,,,,,,,,,,,,,,,,,,,,,,,,,,,,,,,3,,,,,,,,2019_Mar_15_1618,60.46384231990025,Cloud_Experiment_FR_REAL,001,25,
,,,,,,,,,,,,,,,,,,,,,,,,,,,,,,,,,,,,,,,,,,,,,,,,space,519.9985136,,2019_Mar_15_1618,60.46384231990025,Cloud_Experiment_FR_REAL,001,25,
images/fcloud_D1_7.tif,1.0,0,,,,,,,,,,,,,0,0,0,8,,,,,,,,,,,2,space,5.9895144,2,1.718,,,,,,,,,,,,,,,,,,2019_Mar_15_1618,60.46384231990025,Cloud_Experiment_FR_REAL,001,25,
images/fcloud65-35_D1.6_9.tif,1.6,1,,,,,,,,,,,,,0,1,1,82,,,,,,,,,,,1,space,5.6500908,2,2.851,,,,,,,,,,,,,,,,,,2019_Mar_15_1618,60.46384231990025,Cloud_Experiment_FR_REAL,001,25,
images/fcloud80-20_D1.9_8.tif,1.9,2,,,,,,,,,,,,,0,2,2,141,,,,,,,,,,,None,None,,None,11.959,,,,,,,,,,,,,,,,,,2019_Mar_15_1618,60.46384231990025,Cloud_Experiment_FR_REAL,001,25,
images/fcloud80-20_D1.1_10.tif,1.1,2,,,,,,,,,,,,,0,3,3,111,,,,,,,,,,,1,space,4.6642064,3,1.368,,,,,,,,,,,,,,,,,,2019_Mar_15_1618,60.46384231990025,Cloud_Experiment_FR_REAL,001,25,
images/fcloud80-20_D1.1_7.tif,1.1,2,,,,,,,,,,,,,0,4,4,108,,,,,,,,,,,1,space,6.9096247,2,1.252,,,,,,,,,,,,,,,,,,2019_Mar_15_1618,60.46384231990025,Cloud_Experiment_FR_REAL,001,25,
images/fcloud65-35_D1_10.tif,1.0,1,,,,,,,,,,,,,0,5,5,59,,,,,,,,,,,None,None,,None,10.642,,,,,,,,,,,,,,,,,,2019_Mar_15_1618,60.46384231990025,Cloud_Experiment_FR_REAL,001,25,
images/fcloud_D1.9_9.tif,1.9,0,,,,,,,,,,,,,0,6,6,46,,,,,,,,,,,None,None,,None,20.153,,,,,,,,,,,,,,,,,,2019_Mar_15_1618,60.46384231990025,Cloud_Experiment_FR_REAL,001,25,
images/fcloud_D1.1_9.tif,1.1,0,,,,,,,,,,,,,0,7,7,14,,,,,,,,,,,None,None,,None,29.242,,,,,,,,,,,,,,,,,,2019_Mar_15_1618,60.46384231990025,Cloud_Experiment_FR_REAL,001,25,
images/fcloud_D1.7_8.tif,1.7,0,,,,,,,,,,,,,0,8,8,37,,,,,,,,,,,2,space,4.7116354,3,1.202,,,,,,,,,,,,,,,,,,2019_Mar_15_1618,60.46384231990025,Cloud_Experiment_FR_REAL,001,25,
images/fcloud65-35_D1.3_7.tif,1.3,1,,,,,,,,,,,,,0,9,9,68,,,,,,,,,,,None,None,,None,10.512,,,,,,,,,,,,,,,,,,2019_Mar_15_1618,60.46384231990025,Cloud_Experiment_FR_REAL,001,25,
images/fcloud80-20_D1_9.tif,1.0,2,,,,,,,,,,,,,0,10,10,106,,,,,,,,,,,None,None,,None,19.734,,,,,,,,,,,,,,,,,,2019_Mar_15_1618,60.46384231990025,Cloud_Experiment_FR_REAL,001,25,
images/fcloud_D1.3_7.tif,1.3,0,,,,,,,,,,,,,0,11,11,20,,,,,,,,,,,1,space,5.4847056,4,3.118,,,,,,,,,,,,,,,,,,2019_Mar_15_1618,60.46384231990025,Cloud_Experiment_FR_REAL,001,25,
images/fcloud_D1.7_7.tif,1.7,0,,,,,,,,,,,,,0,12,12,36,,,,,,,,,,,None,None,,None,12.226,,,,,,,,,,,,,,,,,,2019_Mar_15_1618,60.46384231990025,Cloud_Experiment_FR_REAL,001,25,
images/fcloud65-35_D1.1_9.tif,1.1,1,,,,,,,,,,,,,0,13,13,62,,,,,,,,,,,1,space,2.3953931,4,1.335,,,,,,,,,,,,,,,,,,2019_Mar_15_1618,60.46384231990025,Cloud_Experiment_FR_REAL,001,25,
images/fcloud_D1.2_9.tif,1.2,0,,,,,,,,,,,,,0,14,14,18,,,,,,,,,,,1,None,,1,1.385,,,,,,,,,,,,,,,,,,2019_Mar_15_1618,60.46384231990025,Cloud_Experiment_FR_REAL,001,25,
images/fcloud80-20_D1.7_7.tif,1.7,2,,,,,,,,,,,,,0,15,15,132,,,,,,,,,,,None,None,,None,10.641,,,,,,,,,,,,,,,,,,2019_Mar_15_1618,60.46384231990025,Cloud_Experiment_FR_REAL,001,25,
images/fcloud65-35_D0.9_9.tif,0.9,1,,,,,,,,,,,,,0,16,16,54,,,,,,,,,,,1,space,6.3376142,2,1.336,,,,,,,,,,,,,,,,,,2019_Mar_15_1618,60.46384231990025,Cloud_Experiment_FR_REAL,001,25,
images/fcloud80-20_D1.8_8.tif,1.8,2,,,,,,,,,,,,,0,17,17,137,,,,,,,,,,,1,space,6.8760066,2,1.318,,,,,,,,,,,,,,,,,,2019_Mar_15_1618,60.46384231990025,Cloud_Experiment_FR_REAL,001,25,
images/fcloud65-35_D1.8_7.tif,1.8,1,,,,,,,,,,,,,0,18,18,88,,,,,,,,,,,None,None,,None,10.176,,,,,,,,,,,,,,,,,,2019_Mar_15_1618,60.46384231990025,Cloud_Experiment_FR_REAL,001,25,
images/fcloud65-35_D1.5_8.tif,1.5,1,,,,,,,,,,,,,0,19,19,77,,,,,,,,,,,1,space,3.9800759,2,1.384,,,,,,,,,,,,,,,,,,2019_Mar_15_1618,60.46384231990025,Cloud_Experiment_FR_REAL,001,25,
images/fcloud_D1.4_7.tif,1.4,0,,,,,,,,,,,,,0,20,20,24,,,,,,,,,,,1,space,6.6156294,2,1.104,,,,,,,,,,,,,,,,,,2019_Mar_15_1618,60.46384231990025,Cloud_Experiment_FR_REAL,001,25,
images/fcloud65-35_D1.1_7.tif,1.1,1,,,,,,,,,,,,,0,21,21,60,,,,,,,,,,,1,space,6.9205112,1,1.168,,,,,,,,,,,,,,,,,,2019_Mar_15_1618,60.46384231990025,Cloud_Experiment_FR_REAL,001,25,
images/fcloud_D0.9_7.tif,0.9,0,,,,,,,,,,,,,0,22,22,4,,,,,,,,,,,2,space,5.4976199,1,1.385,,,,,,,,,,,,,,,,,,2019_Mar_15_1618,60.46384231990025,Cloud_Experiment_FR_REAL,001,25,
images/fcloud65-35_D1.5_9.tif,1.5,1,,,,,,,,,,,,,0,23,23,78,,,,,,,,,,,1,None,,1,1.235,,,,,,,,,,,,,,,,,,2019_Mar_15_1618,60.46384231990025,Cloud_Experiment_FR_REAL,001,25,
images/fcloud80-20_D1.5_9.tif,1.5,2,,,,,,,,,,,,,0,24,24,126,,,,,,,,,,,1,space,2.1714455,3,1.333,,,,,,,,,,,,,,,,,,2019_Mar_15_1618,60.46384231990025,Cloud_Experiment_FR_REAL,001,25,
images/fcloud80-20_D1.8_9.tif,1.8,2,,,,,,,,,,,,,0,25,25,138,,,,,,,,,,,None,None,,None,10.427,,,,,,,,,,,,,,,,,,2019_Mar_15_1618,60.46384231990025,Cloud_Experiment_FR_REAL,001,25,
images/fcloud80-20_D1.7_8.tif,1.7,2,,,,,,,,,,,,,0,26,26,133,,,,,,,,,,,1,space,5.8925781,3,3.5,,,,,,,,,,,,,,,,,,2019_Mar_15_1618,60.46384231990025,Cloud_Experiment_FR_REAL,001,25,
images/fcloud80-20_D1.5_10.tif,1.5,2,,,,,,,,,,,,,0,27,27,127,,,,,,,,,,,1,space,7.3877121,2,1.049,,,,,,,,,,,,,,,,,,2019_Mar_15_1618,60.46384231990025,Cloud_Experiment_FR_REAL,001,25,
images/fcloud65-35_D1.2_9.tif,1.2,1,,,,,,,,,,,,,0,28,28,66,,,,,,,,,,,2,space,3.4201549,4,4.216,,,,,,,,,,,,,,,,,,2019_Mar_15_1618,60.46384231990025,Cloud_Experiment_FR_REAL,001,25,
images/fcloud65-35_D0.8_9.tif,0.8,1,,,,,,,,,,,,,0,29,29,50,,,,,,,,,,,1,space,4.7036147,4,1.586,,,,,,,,,,,,,,,,,,2019_Mar_15_1618,60.46384231990025,Cloud_Experiment_FR_REAL,001,25,
images/fcloud65-35_D1.4_8.tif,1.4,1,,,,,,,,,,,,,0,30,30,73,,,,,,,,,,,None,None,,None,10.576,,,,,,,,,,,,,,,,,,2019_Mar_15_1618,60.46384231990025,Cloud_Experiment_FR_REAL,001,25,
images/fcloud_D1.9_8.tif,1.9,0,,,,,,,,,,,,,0,31,31,45,,,,,,,,,,,1,space,5.8685412,3,7.346,,,,,,,,,,,,,,,,,,2019_Mar_15_1618,60.46384231990025,Cloud_Experiment_FR_REAL,001,25,
images/fcloud_D1_10.tif,1.0,0,,,,,,,,,,,,,0,32,32,11,,,,,,,,,,,1,space,3.0832721,4,1.618,,,,,,,,,,,,,,,,,,2019_Mar_15_1618,60.46384231990025,Cloud_Experiment_FR_REAL,001,25,
images/fcloud65-35_D1.4_10.tif,1.4,1,,,,,,,,,,,,,0,33,33,75,,,,,,,,,,,1,space,5.9851198,3,1.236,,,,,,,,,,,,,,,,,,2019_Mar_15_1618,60.46384231990025,Cloud_Experiment_FR_REAL,001,25,
images/fcloud80-20_D0.8_8.tif,0.8,2,,,,,,,,,,,,,0,34,34,97,,,,,,,,,,,1,space,5.0589776,2,1.502,,,,,,,,,,,,,,,,,,2019_Mar_15_1618,60.46384231990025,Cloud_Experiment_FR_REAL,001,25,
images/fcloud65-35_D1.6_8.tif,1.6,1,,,,,,,,,,,,,0,35,35,81,,,,,,,,,,,None,None,,None,10.977,,,,,,,,,,,,,,,,,,2019_Mar_15_1618,60.46384231990025,Cloud_Experiment_FR_REAL,001,25,
images/fcloud65-35_D1.2_8.tif,1.2,1,,,,,,,,,,,,,0,36,36,65,,,,,,,,,,,1,space,5.7929153,2,0.953,,,,,,,,,,,,,,,,,,2019_Mar_15_1618,60.46384231990025,Cloud_Experiment_FR_REAL,001,25,
images/fcloud65-35_D1_7.tif,1.0,1,,,,,,,,,,,,,0,37,37,56,,,,,,,,,,,1,space,6.3782765,1,1.336,,,,,,,,,,,,,,,,,,2019_Mar_15_1618,60.46384231990025,Cloud_Experiment_FR_REAL,001,25,
images/fcloud_D1.7_9.tif,1.7,0,,,,,,,,,,,,,0,38,38,38,,,,,,,,,,,2,space,5.7255334,2,2.168,,,,,,,,,,,,,,,,,,2019_Mar_15_1618,60.46384231990025,Cloud_Experiment_FR_REAL,001,25,
images/fcloud65-35_D1.4_9.tif,1.4,1,,,,,,,,,,,,,0,39,39,74,,,,,,,,,,,None,None,,None,11.424,,,,,,,,,,,,,,,,,,2019_Mar_15_1618,60.46384231990025,Cloud_Experiment_FR_REAL,001,25,
images/fcloud65-35_D1.7_8.tif,1.7,1,,,,,,,,,,,,,0,40,40,85,,,,,,,,,,,1,None,,1,1.101,,,,,,,,,,,,,,,,,,2019_Mar_15_1618,60.46384231990025,Cloud_Experiment_FR_REAL,001,25,
images/fcloud80-20_D1.7_10.tif,1.7,2,,,,,,,,,,,,,0,41,41,135,,,,,,,,,,,1,space,6.2142932,3,3.35,,,,,,,,,,,,,,,,,,2019_Mar_15_1618,60.46384231990025,Cloud_Experiment_FR_REAL,001,25,
images/fcloud_D1.6_10.tif,1.6,0,,,,,,,,,,,,,0,42,42,35,,,,,,,,,,,1,space,7.6490638,3,2.068,,,,,,,,,,,,,,,,,,2019_Mar_15_1618,60.46384231990025,Cloud_Experiment_FR_REAL,001,25,
images/fcloud80-20_D1.4_7.tif,1.4,2,,,,,,,,,,,,,0,43,43,120,,,,,,,,,,,None,None,,None,11.209,,,,,,,,,,,,,,,,,,2019_Mar_15_1618,60.46384231990025,Cloud_Experiment_FR_REAL,001,25,
images/fcloud_D1.2_8.tif,1.2,0,,,,,,,,,,,,,0,44,44,17,,,,,,,,,,,1,space,4.6716135,4,1.835,,,,,,,,,,,,,,,,,,2019_Mar_15_1618,60.46384231990025,Cloud_Experiment_FR_REAL,001,25,
images/fcloud80-20_D0.9_10.tif,0.9,2,,,,,,,,,,,,,0,45,45,103,,,,,,,,,,,2,space,3.8266193,4,1.102,,,,,,,,,,,,,,,,,,2019_Mar_15_1618,60.46384231990025,Cloud_Experiment_FR_REAL,001,25,
images/fcloud_D1.3_9.tif,1.3,0,,,,,,,,,,,,,0,46,46,22,,,,,,,,,,,2,space,3.1961674,4,1.968,,,,,,,,,,,,,,,,,,2019_Mar_15_1618,60.46384231990025,Cloud_Experiment_FR_REAL,001,25,
images/fcloud80-20_D1.3_7.tif,1.3,2,,,,,,,,,,,,,0,47,47,116,,,,,,,,,,,3,space,5.8792259,3,2.219,,,,,,,,,,,,,,,,,,2019_Mar_15_1618,60.46384231990025,Cloud_Experiment_FR_REAL,001,25,
images/fcloud_D0.8_10.tif,0.8,0,,,,,,,,,,,,,0,48,48,3,,,,,,,,,,,2,space,5.6810908,3,1.518,,,,,,,,,,,,,,,,,,2019_Mar_15_1618,60.46384231990025,Cloud_Experiment_FR_REAL,001,25,
images/fcloud65-35_D1.3_9.tif,1.3,1,,,,,,,,,,,,,0,49,49,70,,,,,,,,,,,None,None,,None,11.541,,,,,,,,,,,,,,,,,,2019_Mar_15_1618,60.46384231990025,Cloud_Experiment_FR_REAL,001,25,
images/fcloud_D0.9_8.tif,0.9,0,,,,,,,,,,,,,0,50,50,5,,,,,,,,,,,1,space,6.2961267,2,0.887,,,,,,,,,,,,,,,,,,2019_Mar_15_1618,60.46384231990025,Cloud_Experiment_FR_REAL,001,25,
images/fcloud_D1.8_9.tif,1.8,0,,,,,,,,,,,,,0,51,51,42,,,,,,,,,,,1,space,5.1307142,3,1.552,,,,,,,,,,,,,,,,,,2019_Mar_15_1618,60.46384231990025,Cloud_Experiment_FR_REAL,001,25,
images/fcloud_D1.4_9.tif,1.4,0,,,,,,,,,,,,,0,52,52,26,,,,,,,,,,,1,space,4.945771,4,2.284,,,,,,,,,,,,,,,,,,2019_Mar_15_1618,60.46384231990025,Cloud_Experiment_FR_REAL,001,25,
images/fcloud80-20_D0.9_7.tif,0.9,2,,,,,,,,,,,,,0,53,53,100,,,,,,,,,,,None,None,,None,11.475,,,,,,,,,,,,,,,,,,2019_Mar_15_1618,60.46384231990025,Cloud_Experiment_FR_REAL,001,25,
images/fcloud65-35_D1.5_7.tif,1.5,1,,,,,,,,,,,,,0,54,54,76,,,,,,,,,,,2,space,4.1562245,3,1.402,,,,,,,,,,,,,,,,,,2019_Mar_15_1618,60.46384231990025,Cloud_Experiment_FR_REAL,001,25,
images/fcloud_D1.8_8.tif,1.8,0,,,,,,,,,,,,,0,55,55,41,,,,,,,,,,,None,None,,None,10.693,,,,,,,,,,,,,,,,,,2019_Mar_15_1618,60.46384231990025,Cloud_Experiment_FR_REAL,001,25,
images/fcloud_D0.9_10.tif,0.9,0,,,,,,,,,,,,,0,56,56,7,,,,,,,,,,,2,space,3.5197886,4,2.482,,,,,,,,,,,,,,,,,,2019_Mar_15_1618,60.46384231990025,Cloud_Experiment_FR_REAL,001,25,
images/fcloud80-20_D1.8_7.tif,1.8,2,,,,,,,,,,,,,0,57,57,136,,,,,,,,,,,1,None,,1,1.136,,,,,,,,,,,,,,,,,,2019_Mar_15_1618,60.46384231990025,Cloud_Experiment_FR_REAL,001,25,
images/fcloud65-35_D0.8_8.tif,0.8,1,,,,,,,,,,,,,0,58,58,49,,,,,,,,,,,None,None,,None,10.143,,,,,,,,,,,,,,,,,,2019_Mar_15_1618,60.46384231990025,Cloud_Experiment_FR_REAL,001,25,
images/fcloud_D1.9_7.tif,1.9,0,,,,,,,,,,,,,0,59,59,44,,,,,,,,,,,None,None,,None,19.269,,,,,,,,,,,,,,,,,,2019_Mar_15_1618,60.46384231990025,Cloud_Experiment_FR_REAL,001,25,
images/fcloud80-20_D1.2_10.tif,1.2,2,,,,,,,,,,,,,0,60,60,115,,,,,,,,,,,1,space,7.8002195,2,0.952,,,,,,,,,,,,,,,,,,2019_Mar_15_1618,60.46384231990025,Cloud_Experiment_FR_REAL,001,25,
images/fcloud80-20_D1.7_9.tif,1.7,2,,,,,,,,,,,,,0,61,61,134,,,,,,,,,,,1,None,,2,0.853,,,,,,,,,,,,,,,,,,2019_Mar_15_1618,60.46384231990025,Cloud_Experiment_FR_REAL,001,25,
images/fcloud80-20_D1.6_8.tif,1.6,2,,,,,,,,,,,,,0,62,62,129,,,,,,,,,,,1,space,5.0971426,2,0.986,,,,,,,,,,,,,,,,,,2019_Mar_15_1618,60.46384231990025,Cloud_Experiment_FR_REAL,001,25,
images/fcloud65-35_D1_8.tif,1.0,1,,,,,,,,,,,,,0,63,63,57,,,,,,,,,,,1,space,6.3296633,3,2.034,,,,,,,,,,,,,,,,,,2019_Mar_15_1618,60.46384231990025,Cloud_Experiment_FR_REAL,001,25,
images/fcloud_D1.3_10.tif,1.3,0,,,,,,,,,,,,,0,64,64,23,,,,,,,,,,,2,space,3.7482311,3,1.285,,,,,,,,,,,,,,,,,,2019_Mar_15_1618,60.46384231990025,Cloud_Experiment_FR_REAL,001,25,
images/fcloud65-35_D1.1_8.tif,1.1,1,,,,,,,,,,,,,0,65,65,61,,,,,,,,,,,1,space,3.6235582,4,1.818,,,,,,,,,,,,,,,,,,2019_Mar_15_1618,60.46384231990025,Cloud_Experiment_FR_REAL,001,25,
images/fcloud80-20_D1.9_7.tif,1.9,2,,,,,,,,,,,,,0,66,66,140,,,,,,,,,,,None,None,,None,10.876,,,,,,,,,,,,,,,,,,2019_Mar_15_1618,60.46384231990025,Cloud_Experiment_FR_REAL,001,25,
images/fcloud80-20_D0.8_9.tif,0.8,2,,,,,,,,,,,,,0,67,67,98,,,,,,,,,,,1,space,7.7385446,1,4.082,,,,,,,,,,,,,,,,,,2019_Mar_15_1618,60.46384231990025,Cloud_Experiment_FR_REAL,001,25,
images/fcloud65-35_D1_9.tif,1.0,1,,,,,,,,,,,,,0,68,68,58,,,,,,,,,,,2,space,7.4364488,3,1.734,,,,,,,,,,,,,,,,,,2019_Mar_15_1618,60.46384231990025,Cloud_Experiment_FR_REAL,001,25,
images/fcloud65-35_D1.7_9.tif,1.7,1,,,,,,,,,,,,,0,69,69,86,,,,,,,,,,,None,None,,None,10.892,,,,,,,,,,,,,,,,,,2019_Mar_15_1618,60.46384231990025,Cloud_Experiment_FR_REAL,001,25,
images/fcloud_D1.2_10.tif,1.2,0,,,,,,,,,,,,,0,70,70,19,,,,,,,,,,,2,space,6.3752069,3,2.168,,,,,,,,,,,,,,,,,,2019_Mar_15_1618,60.46384231990025,Cloud_Experiment_FR_REAL,001,25,
images/fcloud80-20_D1.2_7.tif,1.2,2,,,,,,,,,,,,,0,71,71,112,,,,,,,,,,,None,None,,None,12.674,,,,,,,,,,,,,,,,,,2019_Mar_15_1618,60.46384231990025,Cloud_Experiment_FR_REAL,001,25,
images/fcloud_D1.1_10.tif,1.1,0,,,,,,,,,,,,,0,72,72,15,,,,,,,,,,,1,space,2.4251563,4,1.17,,,,,,,,,,,,,,,,,,2019_Mar_15_1618,60.46384231990025,Cloud_Experiment_FR_REAL,001,25,
images/fcloud65-35_D1.6_10.tif,1.6,1,,,,,,,,,,,,,0,73,73,83,,,,,,,,,,,None,None,,None,10.243,,,,,,,,,,,,,,,,,,2019_Mar_15_1618,60.46384231990025,Cloud_Experiment_FR_REAL,001,25,
images/fcloud_D1.5_8.tif,1.5,0,,,,,,,,,,,,,0,74,74,29,,,,,,,,,,,None,None,,None,19.218,,,,,,,,,,,,,,,,,,2019_Mar_15_1618,60.46384231990025,Cloud_Experiment_FR_REAL,001,25,
images/fcloud65-35_D1.1_10.tif,1.1,1,,,,,,,,,,,,,0,75,75,63,,,,,,,,,,,None,None,,None,28.344,,,,,,,,,,,,,,,,,,2019_Mar_15_1618,60.46384231990025,Cloud_Experiment_FR_REAL,001,25,
images/fcloud80-20_D0.8_10.tif,0.8,2,,,,,,,,,,,,,0,76,76,99,,,,,,,,,,,None,None,,None,37.052,,,,,,,,,,,,,,,,,,2019_Mar_15_1618,60.46384231990025,Cloud_Experiment_FR_REAL,001,25,
images/fcloud65-35_D1.8_9.tif,1.8,1,,,,,,,,,,,,,0,77,77,90,,,,,,,,,,,2,space,4.416748,3,1.818,,,,,,,,,,,,,,,,,,2019_Mar_15_1618,60.46384231990025,Cloud_Experiment_FR_REAL,001,25,
images/fcloud65-35_D1.6_7.tif,1.6,1,,,,,,,,,,,,,0,78,78,80,,,,,,,,,,,2,space,7.4939486,1,0.919,,,,,,,,,,,,,,,,,,2019_Mar_15_1618,60.46384231990025,Cloud_Experiment_FR_REAL,001,25,
images/fcloud80-20_D1.6_9.tif,1.6,2,,,,,,,,,,,,,0,79,79,130,,,,,,,,,,,1,space,5.0277334,2,1.518,,,,,,,,,,,,,,,,,,2019_Mar_15_1618,60.46384231990025,Cloud_Experiment_FR_REAL,001,25,
images/fcloud80-20_D1.8_10.tif,1.8,2,,,,,,,,,,,,,0,80,80,139,,,,,,,,,,,None,None,,None,9.961,,,,,,,,,,,,,,,,,,2019_Mar_15_1618,60.46384231990025,Cloud_Experiment_FR_REAL,001,25,
images/fcloud65-35_D1.3_10.tif,1.3,1,,,,,,,,,,,,,0,81,81,71,,,,,,,,,,,None,None,,None,18.869,,,,,,,,,,,,,,,,,,2019_Mar_15_1618,60.46384231990025,Cloud_Experiment_FR_REAL,001,25,
images/fcloud65-35_D1.5_10.tif,1.5,1,,,,,,,,,,,,,0,82,82,79,,,,,,,,,,,2,space,4.2623475,3,0.786,,,,,,,,,,,,,,,,,,2019_Mar_15_1618,60.46384231990025,Cloud_Experiment_FR_REAL,001,25,
images/fcloud_D1_9.tif,1.0,0,,,,,,,,,,,,,0,83,83,10,,,,,,,,,,,2,space,4.9204805,4,3.001,,,,,,,,,,,,,,,,,,2019_Mar_15_1618,60.46384231990025,Cloud_Experiment_FR_REAL,001,25,
images/fcloud65-35_D1.2_7.tif,1.2,1,,,,,,,,,,,,,0,84,84,64,,,,,,,,,,,1,space,4.6705451,4,1.468,,,,,,,,,,,,,,,,,,2019_Mar_15_1618,60.46384231990025,Cloud_Experiment_FR_REAL,001,25,
images/fcloud80-20_D1.3_8.tif,1.3,2,,,,,,,,,,,,,0,85,85,117,,,,,,,,,,,1,None,,3,1.587,,,,,,,,,,,,,,,,,,2019_Mar_15_1618,60.46384231990025,Cloud_Experiment_FR_REAL,001,25,
images/fcloud80-20_D1.3_9.tif,1.3,2,,,,,,,,,,,,,0,86,86,118,,,,,,,,,,,1,space,7.7272163,2,0.818,,,,,,,,,,,,,,,,,,2019_Mar_15_1618,60.46384231990025,Cloud_Experiment_FR_REAL,001,25,
images/fcloud_D1.8_7.tif,1.8,0,,,,,,,,,,,,,0,87,87,40,,,,,,,,,,,None,None,,None,9.943,,,,,,,,,,,,,,,,,,2019_Mar_15_1618,60.46384231990025,Cloud_Experiment_FR_REAL,001,25,
images/fcloud65-35_D1.3_8.tif,1.3,1,,,,,,,,,,,,,0,88,88,69,,,,,,,,,,,1,space,7.2391146,3,1.767,,,,,,,,,,,,,,,,,,2019_Mar_15_1618,60.46384231990025,Cloud_Experiment_FR_REAL,001,25,
images/fcloud65-35_D1.7_10.tif,1.7,1,,,,,,,,,,,,,0,89,89,87,,,,,,,,,,,None,None,,None,10.591,,,,,,,,,,,,,,,,,,2019_Mar_15_1618,60.46384231990025,Cloud_Experiment_FR_REAL,001,25,
images/fcloud_D1.9_10.tif,1.9,0,,,,,,,,,,,,,0,90,90,47,,,,,,,,,,,2,space,5.8721995,2,2.284,,,,,,,,,,,,,,,,,,2019_Mar_15_1618,60.46384231990025,Cloud_Experiment_FR_REAL,001,25,
images/fcloud80-20_D1.2_8.tif,1.2,2,,,,,,,,,,,,,0,91,91,113,,,,,,,,,,,1,space,5.1519608,3,1.117,,,,,,,,,,,,,,,,,,2019_Mar_15_1618,60.46384231990025,Cloud_Experiment_FR_REAL,001,25,
images/fcloud_D0.8_7.tif,0.8,0,,,,,,,,,,,,,0,92,92,0,,,,,,,,,,,None,None,,None,10.243,,,,,,,,,,,,,,,,,,2019_Mar_15_1618,60.46384231990025,Cloud_Experiment_FR_REAL,001,25,
images/fcloud_D1_8.tif,1.0,0,,,,,,,,,,,,,0,93,93,9,,,,,,,,,,,2,space,4.406824,4,2.317,,,,,,,,,,,,,,,,,,2019_Mar_15_1618,60.46384231990025,Cloud_Experiment_FR_REAL,001,25,
images/fcloud80-20_D1_10.tif,1.0,2,,,,,,,,,,,,,0,94,94,107,,,,,,,,,,,1,space,5.6240404,3,1.085,,,,,,,,,,,,,,,,,,2019_Mar_15_1618,60.46384231990025,Cloud_Experiment_FR_REAL,001,25,
images/fcloud65-35_D0.9_10.tif,0.9,1,,,,,,,,,,,,,0,95,95,55,,,,,,,,,,,1,None,,1,0.885,,,,,,,,,,,,,,,,,,2019_Mar_15_1618,60.46384231990025,Cloud_Experiment_FR_REAL,001,25,
images/fcloud_D1.2_7.tif,1.2,0,,,,,,,,,,,,,0,96,96,16,,,,,,,,,,,1,space,5.5375434,3,3.219,,,,,,,,,,,,,,,,,,2019_Mar_15_1618,60.46384231990025,Cloud_Experiment_FR_REAL,001,25,
images/fcloud80-20_D0.9_9.tif,0.9,2,,,,,,,,,,,,,0,97,97,102,,,,,,,,,,,None,None,,None,12.59,,,,,,,,,,,,,,,,,,2019_Mar_15_1618,60.46384231990025,Cloud_Experiment_FR_REAL,001,25,
images/fcloud_D1.4_10.tif,1.4,0,,,,,,,,,,,,,0,98,98,27,,,,,,,,,,,None,None,,None,21.499,,,,,,,,,,,,,,,,,,2019_Mar_15_1618,60.46384231990025,Cloud_Experiment_FR_REAL,001,25,
images/fcloud_D1.7_10.tif,1.7,0,,,,,,,,,,,,,0,99,99,39,,,,,,,,,,,None,None,,None,30.342,,,,,,,,,,,,,,,,,,2019_Mar_15_1618,60.46384231990025,Cloud_Experiment_FR_REAL,001,25,
images/fcloud_D0.8_9.tif,0.8,0,,,,,,,,,,,,,0,100,100,2,,,,,,,,,,,2,space,5.9591326,1,1.069,,,,,,,,,,,,,,,,,,2019_Mar_15_1618,60.46384231990025,Cloud_Experiment_FR_REAL,001,25,
images/fcloud_D1.8_10.tif,1.8,0,,,,,,,,,,,,,0,101,101,43,,,,,,,,,,,1,None,,2,0.92,,,,,,,,,,,,,,,,,,2019_Mar_15_1618,60.46384231990025,Cloud_Experiment_FR_REAL,001,25,
images/fcloud_D1.1_7.tif,1.1,0,,,,,,,,,,,,,0,102,102,12,,,,,,,,,,,1,space,4.3229558,4,0.735,,,,,,,,,,,,,,,,,,2019_Mar_15_1618,60.46384231990025,Cloud_Experiment_FR_REAL,001,25,
images/fcloud80-20_D1.5_8.tif,1.5,2,,,,,,,,,,,,,0,103,103,125,,,,,,,,,,,None,None,,None,9.743,,,,,,,,,,,,,,,,,,2019_Mar_15_1618,60.46384231990025,Cloud_Experiment_FR_REAL,001,25,
images/fcloud_D1.6_9.tif,1.6,0,,,,,,,,,,,,,0,104,104,34,,,,,,,,,,,2,space,7.1219784,3,1.619,,,,,,,,,,,,,,,,,,2019_Mar_15_1618,60.46384231990025,Cloud_Experiment_FR_REAL,001,25,
images/fcloud65-35_D1.8_8.tif,1.8,1,,,,,,,,,,,,,0,105,105,89,,,,,,,,,,,None,None,,None,10.476,,,,,,,,,,,,,,,,,,2019_Mar_15_1618,60.46384231990025,Cloud_Experiment_FR_REAL,001,25,
images/fcloud65-35_D0.8_7.tif,0.8,1,,,,,,,,,,,,,0,106,106,48,,,,,,,,,,,1,space,6.1795418,2,1.484,,,,,,,,,,,,,,,,,,2019_Mar_15_1618,60.46384231990025,Cloud_Experiment_FR_REAL,001,25,
images/fcloud80-20_D0.9_8.tif,0.9,2,,,,,,,,,,,,,0,107,107,101,,,,,,,,,,,1,space,4.4028706,2,0.838,,,,,,,,,,,,,,,,,,2019_Mar_15_1618,60.46384231990025,Cloud_Experiment_FR_REAL,001,25,
images/fcloud80-20_D1_7.tif,1.0,2,,,,,,,,,,,,,0,108,108,104,,,,,,,,,,,1,space,6.0268846,2,1.401,,,,,,,,,,,,,,,,,,2019_Mar_15_1618,60.46384231990025,Cloud_Experiment_FR_REAL,001,25,
images/fcloud_D1.5_9.tif,1.5,0,,,,,,,,,,,,,0,109,109,30,,,,,,,,,,,None,None,,None,10.543,,,,,,,,,,,,,,,,,,2019_Mar_15_1618,60.46384231990025,Cloud_Experiment_FR_REAL,001,25,
images/fcloud80-20_D1.6_10.tif,1.6,2,,,,,,,,,,,,,0,110,110,131,,,,,,,,,,,None,None,,None,19.804,,,,,,,,,,,,,,,,,,2019_Mar_15_1618,60.46384231990025,Cloud_Experiment_FR_REAL,001,25,
images/fcloud80-20_D1.6_7.tif,1.6,2,,,,,,,,,,,,,0,111,111,128,,,,,,,,,,,1,space,5.2743386,2,0.871,,,,,,,,,,,,,,,,,,2019_Mar_15_1618,60.46384231990025,Cloud_Experiment_FR_REAL,001,25,
images/fcloud_D1.5_10.tif,1.5,0,,,,,,,,,,,,,0,112,112,31,,,,,,,,,,,1,space,5.2766593,2,1.218,,,,,,,,,,,,,,,,,,2019_Mar_15_1618,60.46384231990025,Cloud_Experiment_FR_REAL,001,25,
images/fcloud65-35_D1.2_10.tif,1.2,1,,,,,,,,,,,,,0,113,113,67,,,,,,,,,,,None,None,,None,10.193,,,,,,,,,,,,,,,,,,2019_Mar_15_1618,60.46384231990025,Cloud_Experiment_FR_REAL,001,25,
images/fcloud80-20_D1.1_8.tif,1.1,2,,,,,,,,,,,,,0,114,114,109,,,,,,,,,,,None,None,,None,19.152,,,,,,,,,,,,,,,,,,2019_Mar_15_1618,60.46384231990025,Cloud_Experiment_FR_REAL,001,25,
images/fcloud65-35_D1.4_7.tif,1.4,1,,,,,,,,,,,,,0,115,115,72,,,,,,,,,,,1,space,6.2666001,2,0.918,,,,,,,,,,,,,,,,,,2019_Mar_15_1618,60.46384231990025,Cloud_Experiment_FR_REAL,001,25,
images/fcloud65-35_D1.8_10.tif,1.8,1,,,,,,,,,,,,,0,116,116,91,,,,,,,,,,,1,space,5.5304732,3,3.299,,,,,,,,,,,,,,,,,,2019_Mar_15_1618,60.46384231990025,Cloud_Experiment_FR_REAL,001,25,
images/fcloud65-35_D1.9_9.tif,1.9,1,,,,,,,,,,,,,0,117,117,94,,,,,,,,,,,None,None,,None,12.774,,,,,,,,,,,,,,,,,,2019_Mar_15_1618,60.46384231990025,Cloud_Experiment_FR_REAL,001,25,
images/fcloud_D1.6_7.tif,1.6,0,,,,,,,,,,,,,0,118,118,32,,,,,,,,,,,1,None,,1,0.92,,,,,,,,,,,,,,,,,,2019_Mar_15_1618,60.46384231990025,Cloud_Experiment_FR_REAL,001,25,
images/fcloud80-20_D1.4_9.tif,1.4,2,,,,,,,,,,,,,0,119,119,122,,,,,,,,,,,1,space,5.9604165,3,1.019,,,,,,,,,,,,,,,,,,2019_Mar_15_1618,60.46384231990025,Cloud_Experiment_FR_REAL,001,25,
images/fcloud80-20_D1.1_9.tif,1.1,2,,,,,,,,,,,,,0,120,120,110,,,,,,,,,,,1,space,8.0023536,1,0.935,,,,,,,,,,,,,,,,,,2019_Mar_15_1618,60.46384231990025,Cloud_Experiment_FR_REAL,001,25,
images/fcloud80-20_D1.9_10.tif,1.9,2,,,,,,,,,,,,,0,121,121,143,,,,,,,,,,,1,space,7.7245737,3,1.552,,,,,,,,,,,,,,,,,,2019_Mar_15_1618,60.46384231990025,Cloud_Experiment_FR_REAL,001,25,
images/fcloud80-20_D1.4_10.tif,1.4,2,,,,,,,,,,,,,0,122,122,123,,,,,,,,,,,None,None,,None,10.575,,,,,,,,,,,,,,,,,,2019_Mar_15_1618,60.46384231990025,Cloud_Experiment_FR_REAL,001,25,
images/fcloud_D1.6_8.tif,1.6,0,,,,,,,,,,,,,0,123,123,33,,,,,,,,,,,None,None,,None,19.3,,,,,,,,,,,,,,,,,,2019_Mar_15_1618,60.46384231990025,Cloud_Experiment_FR_REAL,001,25,
images/fcloud80-20_D1_8.tif,1.0,2,,,,,,,,,,,,,0,124,124,105,,,,,,,,,,,1,space,3.9447634,2,0.919,,,,,,,,,,,,,,,,,,2019_Mar_15_1618,60.46384231990025,Cloud_Experiment_FR_REAL,001,25,
images/fcloud_D0.9_9.tif,0.9,0,,,,,,,,,,,,,0,125,125,6,,,,,,,,,,,None,None,,None,10.427,,,,,,,,,,,,,,,,,,2019_Mar_15_1618,60.46384231990025,Cloud_Experiment_FR_REAL,001,25,
images/fcloud_D1.4_8.tif,1.4,0,,,,,,,,,,,,,0,126,126,25,,,,,,,,,,,None,None,,None,19.434,,,,,,,,,,,,,,,,,,2019_Mar_15_1618,60.46384231990025,Cloud_Experiment_FR_REAL,001,25,
images/fcloud65-35_D1.9_10.tif,1.9,1,,,,,,,,,,,,,0,127,127,95,,,,,,,,,,,1,space,3.7339341,3,1.118,,,,,,,,,,,,,,,,,,2019_Mar_15_1618,60.46384231990025,Cloud_Experiment_FR_REAL,001,25,
images/fcloud65-35_D0.8_10.tif,0.8,1,,,,,,,,,,,,,0,128,128,51,,,,,,,,,,,None,None,,None,11.925,,,,,,,,,,,,,,,,,,2019_Mar_15_1618,60.46384231990025,Cloud_Experiment_FR_REAL,001,25,
images/fcloud65-35_D0.9_7.tif,0.9,1,,,,,,,,,,,,,0,129,129,52,,,,,,,,,,,None,None,,None,20.715,,,,,,,,,,,,,,,,,,2019_Mar_15_1618,60.46384231990025,Cloud_Experiment_FR_REAL,001,25,
images/fcloud_D1.1_8.tif,1.1,0,,,,,,,,,,,,,0,130,130,13,,,,,,,,,,,1,space,6.2750712,3,1.133,,,,,,,,,,,,,,,,,,2019_Mar_15_1618,60.46384231990025,Cloud_Experiment_FR_REAL,001,25,
images/fcloud65-35_D1.9_8.tif,1.9,1,,,,,,,,,,,,,0,131,131,93,,,,,,,,,,,1,space,3.6054411,1,1.086,,,,,,,,,,,,,,,,,,2019_Mar_15_1618,60.46384231990025,Cloud_Experiment_FR_REAL,001,25,
images/fcloud80-20_D0.8_7.tif,0.8,2,,,,,,,,,,,,,0,132,132,96,,,,,,,,,,,1,space,5.9500773,3,1.769,,,,,,,,,,,,,,,,,,2019_Mar_15_1618,60.46384231990025,Cloud_Experiment_FR_REAL,001,25,
images/fcloud80-20_D1.3_10.tif,1.3,2,,,,,,,,,,,,,0,133,133,119,,,,,,,,,,,None,None,,None,10.876,,,,,,,,,,,,,,,,,,2019_Mar_15_1618,60.46384231990025,Cloud_Experiment_FR_REAL,001,25,
images/fcloud80-20_D1.5_7.tif,1.5,2,,,,,,,,,,,,,0,134,134,124,,,,,,,,,,,1,space,7.5092499,2,1.019,,,,,,,,,,,,,,,,,,2019_Mar_15_1618,60.46384231990025,Cloud_Experiment_FR_REAL,001,25,
images/fcloud80-20_D1.2_9.tif,1.2,2,,,,,,,,,,,,,0,135,135,114,,,,,,,,,,,None,None,,None,10.192,,,,,,,,,,,,,,,,,,2019_Mar_15_1618,60.46384231990025,Cloud_Experiment_FR_REAL,001,25,
images/fcloud65-35_D1.9_7.tif,1.9,1,,,,,,,,,,,,,0,136,136,92,,,,,,,,,,,None,None,,None,19.034,,,,,,,,,,,,,,,,,,2019_Mar_15_1618,60.46384231990025,Cloud_Experiment_FR_REAL,001,25,
images/fcloud_D1.3_8.tif,1.3,0,,,,,,,,,,,,,0,137,137,21,,,,,,,,,,,2,space,2.4305533,4,1.452,,,,,,,,,,,,,,,,,,2019_Mar_15_1618,60.46384231990025,Cloud_Experiment_FR_REAL,001,25,
images/fcloud65-35_D0.9_8.tif,0.9,1,,,,,,,,,,,,,0,138,138,53,,,,,,,,,,,1,space,7.5414264,3,1.169,,,,,,,,,,,,,,,,,,2019_Mar_15_1618,60.46384231990025,Cloud_Experiment_FR_REAL,001,25,
images/fcloud65-35_D1.7_7.tif,1.7,1,,,,,,,,,,,,,0,139,139,84,,,,,,,,,,,None,None,,None,10.293,,,,,,,,,,,,,,,,,,2019_Mar_15_1618,60.46384231990025,Cloud_Experiment_FR_REAL,001,25,
images/fcloud_D0.8_8.tif,0.8,0,,,,,,,,,,,,,0,140,140,1,,,,,,,,,,,2,space,7.6402274,2,3.235,,,,,,,,,,,,,,,,,,2019_Mar_15_1618,60.46384231990025,Cloud_Experiment_FR_REAL,001,25,
images/fcloud80-20_D1.4_8.tif,1.4,2,,,,,,,,,,,,,0,141,141,121,,,,,,,,,,,1,None,,1,0.984,,,,,,,,,,,,,,,,,,2019_Mar_15_1618,60.46384231990025,Cloud_Experiment_FR_REAL,001,25,
images/fcloud80-20_D1.9_9.tif,1.9,2,,,,,,,,,,,,,0,142,142,142,,,,,,,,,,,None,None,,None,15.288,,,,,,,,,,,,,,,,,,2019_Mar_15_1618,60.46384231990025,Cloud_Experiment_FR_REAL,001,25,
images/fcloud_D1.5_7.tif,1.5,0,,,,,,,,,,,,,0,143,143,28,,,,,,,,,,,2,space,5.0917395,3,1.251,,,,,,,,,,,,,,,,,,2019_Mar_15_1618,60.46384231990025,Cloud_Experiment_FR_REAL,001,25,
,,,,,,,,,,,,,,,,,,,,,,,,,7,9.618,,,,,,,,,,,,,,,,,,,,,,,,,2019_Mar_15_1618,60.46384231990025,Cloud_Experiment_FR_REAL,001,25,
,,,,,,,,,,,,,,,,,,,,,,,,,,,,,,,,,,5,,,,,,,,,,,,,,,,,2019_Mar_15_1618,60.46384231990025,Cloud_Experiment_FR_REAL,001,25,
,,,,,,,,,,,,,,,,,,,,,,,,,,,,,,,,,,,5,,,,,,,,,,,,,,,,2019_Mar_15_1618,60.46384231990025,Cloud_Experiment_FR_REAL,001,25,
,,,,,,,,,,,,,,,,,,,,,,,,,,,,,,,,,,,,4,,,,,,,,,,,,,,,2019_Mar_15_1618,60.46384231990025,Cloud_Experiment_FR_REAL,001,25,
,,,,,,,,,,,,,,,,,,,,,,,,,,,,,,,,,,,,,3,,,,,,,,,,,,,,2019_Mar_15_1618,60.46384231990025,Cloud_Experiment_FR_REAL,001,25,
,,,,,,,,,,,,,,,,,,,,,,,,,,,,,,,,,,,,,,4,,,,,,,,,,,,,2019_Mar_15_1618,60.46384231990025,Cloud_Experiment_FR_REAL,001,25,
,,,,,,,,,,,,,,,,,,,,,,,,,,,,,,,,,,,,,,,4,,,,,,,,,,,,2019_Mar_15_1618,60.46384231990025,Cloud_Experiment_FR_REAL,001,25,
,,,,,,,,,,,,,,,,,,,,,,,,,,,,,,,,,,,,,,,,6,,,,,,,,,,,2019_Mar_15_1618,60.46384231990025,Cloud_Experiment_FR_REAL,001,25,
,,,,,,,,,,,,,,,,,,,,,,,,,,,,,,,,,,,,,,,,,6,,,,,,,,,,2019_Mar_15_1618,60.46384231990025,Cloud_Experiment_FR_REAL,001,25,
,,,,,,,,,,,,,,,,,,,,,,,,,,,,,,,,,,,,,,,,,,6,,,,,,,,,2019_Mar_15_1618,60.46384231990025,Cloud_Experiment_FR_REAL,001,25,
,,,,,,,,,,,,,,,,,,,,,,,,,,,,,,,,,,,,,,,,,,,3,,,,,,,,2019_Mar_15_1618,60.46384231990025,Cloud_Experiment_FR_REAL,001,25,
,,,,,,,,,,,,,,,,,,,,,,,,,,,,,,,,,,,,,,,,,,,,,,,,,,3,2019_Mar_15_1618,60.46384231990025,Cloud_Experiment_FR_REAL,001,25,
