ImageFile,FD,Contrast,trials_4.thisRepN,trials_4.thisTrialN,trials_4.thisN,trials_4.thisIndex,trials.thisRepN,trials.thisTrialN,trials.thisN,trials.thisIndex,trials_2.thisRepN,trials_2.thisTrialN,trials_2.thisN,trials_2.thisIndex,trials_3.thisRepN,trials_3.thisTrialN,trials_3.thisN,trials_3.thisIndex,end_instructions.keys,end_instructions.rt,key_resp_4.keys,key_resp_4.rt,key_resp_6.keys,key_resp_6.rt,Fatigue.response,Fatigue.rt,key_resp_5.keys,key_resp_5.rt,n_objets.response,reaction_time.keys,vividness.response,vividness.rt,reaction_time.rt,Flow01.response,Flow02.response,Flow03.response,Flow04.response,Flow05.response,Flow06.response,Flow07.response,Flow08.response,Flow09.response,Flow10.response,key_resp_2.keys,key_resp_2.rt,key_resp_8.keys,key_resp_8.rt,key_resp_3.keys,key_resp_3.rt,Redondance_question.response,date,frameRate,expName,session,participant,
,,,,,,,,,,,,,,,,,,,space,35.3682566,,,,,,,,,,,,,,,,,,,,,,,,,,,,,,,2019_Mar_15_1801,59.610670786920174,Cloud_Experiment_FR_REAL,001,26,
,,,,,,,,,,,,,,,,,,,,,space,139.8288152,,,,,,,,,,,,,,,,,,,,,,,,,,,,,2019_Mar_15_1801,59.610670786920174,Cloud_Experiment_FR_REAL,001,26,
,,,,,,,,,,,,,,,,,,,,,,,space,107.9561339,,,,,,,,,,,,,,,,,,,,,,,,,,,2019_Mar_15_1801,59.610670786920174,Cloud_Experiment_FR_REAL,001,26,
,,,,,,,,,,,,,,,,,,,,,,,,,7,15.604,,,,,,,,,,,,,,,,,,,,,,,,,2019_Mar_15_1801,59.610670786920174,Cloud_Experiment_FR_REAL,001,26,
,,,,,,,,,,,,,,,,,,,,,,,,,,,space,5.064277,,,,,,,,,,,,,,,,,,,,,,,2019_Mar_15_1801,59.610670786920174,Cloud_Experiment_FR_REAL,001,26,
pratique/fcloud65-35_D1.3_30,1.3,1,0,0,0,6,,,,,,,,,,,,,,,,,,,,,,,1,None,3,6.714,,,,,,,,,,,,,,,,,,,2019_Mar_15_1801,59.610670786920174,Cloud_Experiment_FR_REAL,001,26,
pratique/fcloud_D1.6_28,1.6,0,0,1,1,5,,,,,,,,,,,,,,,,,,,,,,,1,space,4,5.198,20.3847587,,,,,,,,,,,,,,,,,,2019_Mar_15_1801,59.610670786920174,Cloud_Experiment_FR_REAL,001,26,
pratique/fcloud_D0.8_30,0.8,0,0,2,2,0,,,,,,,,,,,,,,,,,,,,,,,1,None,3,3.417,,,,,,,,,,,,,,,,,,,2019_Mar_15_1801,59.610670786920174,Cloud_Experiment_FR_REAL,001,26,
pratique/fcloud_D1.4_30,1.4,0,0,3,3,1,,,,,,,,,,,,,,,,,,,,,,,1,space,4,31.425,5.5346091,,,,,,,,,,,,,,,,,,2019_Mar_15_1801,59.610670786920174,Cloud_Experiment_FR_REAL,001,26,
pratique/fcloud80-20_D1_30,1.0,2,0,4,4,9,,,,,,,,,,,,,,,,,,,,,,,1,space,2,3.267,2.5400645,,,,,,,,,,,,,,,,,,2019_Mar_15_1801,59.610670786920174,Cloud_Experiment_FR_REAL,001,26,
pratique/fcloud80-20_D1.5_30,1.5,2,0,5,5,8,,,,,,,,,,,,,,,,,,,,,,,None,None,None,13.055,,,,,,,,,,,,,,,,,,,2019_Mar_15_1801,59.610670786920174,Cloud_Experiment_FR_REAL,001,26,
pratique/fcloud80-20_D1.8_30,1.8,2,0,6,6,4,,,,,,,,,,,,,,,,,,,,,,,1,space,1,3.117,7.5926711,,,,,,,,,,,,,,,,,,2019_Mar_15_1801,59.610670786920174,Cloud_Experiment_FR_REAL,001,26,
pratique/fcloud65-35_D1.2_30,1.2,1,0,7,7,3,,,,,,,,,,,,,,,,,,,,,,,1,None,2,1.901,,,,,,,,,,,,,,,,,,,2019_Mar_15_1801,59.610670786920174,Cloud_Experiment_FR_REAL,001,26,
pratique/fcloud65-35_D1.6_30,1.6,1,0,8,8,2,,,,,,,,,,,,,,,,,,,,,,,1,space,1,1.001,11.1513721,,,,,,,,,,,,,,,,,,2019_Mar_15_1801,59.610670786920174,Cloud_Experiment_FR_REAL,001,26,
pratique/fcloud65-35_D1.9_29,1.9,1,0,9,9,7,,,,,,,,,,,,,,,,,,,,,,,1,None,1,1.202,,,,,,,,,,,,,,,,,,,2019_Mar_15_1801,59.610670786920174,Cloud_Experiment_FR_REAL,001,26,
,,,,,,,,,,,,,,,,,,,,,,,,,,,,,,,,,,6,,,,,,,,,,,,,,,,,2019_Mar_15_1801,59.610670786920174,Cloud_Experiment_FR_REAL,001,26,
,,,,,,,,,,,,,,,,,,,,,,,,,,,,,,,,,,,6,,,,,,,,,,,,,,,,2019_Mar_15_1801,59.610670786920174,Cloud_Experiment_FR_REAL,001,26,
,,,,,,,,,,,,,,,,,,,,,,,,,,,,,,,,,,,,4,,,,,,,,,,,,,,,2019_Mar_15_1801,59.610670786920174,Cloud_Experiment_FR_REAL,001,26,
,,,,,,,,,,,,,,,,,,,,,,,,,,,,,,,,,,,,,4,,,,,,,,,,,,,,2019_Mar_15_1801,59.610670786920174,Cloud_Experiment_FR_REAL,001,26,
,,,,,,,,,,,,,,,,,,,,,,,,,,,,,,,,,,,,,,5,,,,,,,,,,,,,2019_Mar_15_1801,59.610670786920174,Cloud_Experiment_FR_REAL,001,26,
,,,,,,,,,,,,,,,,,,,,,,,,,,,,,,,,,,,,,,,4,,,,,,,,,,,,2019_Mar_15_1801,59.610670786920174,Cloud_Experiment_FR_REAL,001,26,
,,,,,,,,,,,,,,,,,,,,,,,,,,,,,,,,,,,,,,,,5,,,,,,,,,,,2019_Mar_15_1801,59.610670786920174,Cloud_Experiment_FR_REAL,001,26,
,,,,,,,,,,,,,,,,,,,,,,,,,,,,,,,,,,,,,,,,,7,,,,,,,,,,2019_Mar_15_1801,59.610670786920174,Cloud_Experiment_FR_REAL,001,26,
,,,,,,,,,,,,,,,,,,,,,,,,,,,,,,,,,,,,,,,,,,6,,,,,,,,,2019_Mar_15_1801,59.610670786920174,Cloud_Experiment_FR_REAL,001,26,
,,,,,,,,,,,,,,,,,,,,,,,,,,,,,,,,,,,,,,,,,,,2,,,,,,,,2019_Mar_15_1801,59.610670786920174,Cloud_Experiment_FR_REAL,001,26,
,,,,,,,,,,,,,,,,,,,,,,,,,,,,,,,,,,,,,,,,,,,,space,1.8357153,,,,,,2019_Mar_15_1801,59.610670786920174,Cloud_Experiment_FR_REAL,001,26,
images/fcloud80-20_D0.8_2.tif,0.8,2,,,,,0,0,0,73,,,,,,,,,,,,,,,,,,,1,space,2,4.931,4.7042669,,,,,,,,,,,,,,,,,,2019_Mar_15_1801,59.610670786920174,Cloud_Experiment_FR_REAL,001,26,
images/fcloud80-20_D1.4_1.tif,1.4,2,,,,,0,1,1,90,,,,,,,,,,,,,,,,,,,1,space,2,2.201,5.7095984,,,,,,,,,,,,,,,,,,2019_Mar_15_1801,59.610670786920174,Cloud_Experiment_FR_REAL,001,26,
images/fcloud_D1.8_3.tif,1.8,0,,,,,0,2,2,32,,,,,,,,,,,,,,,,,,,1,space,1,3.183,5.8093143,,,,,,,,,,,,,,,,,,2019_Mar_15_1801,59.610670786920174,Cloud_Experiment_FR_REAL,001,26,
images/fcloud65-35_D1.3_3.tif,1.3,1,,,,,0,3,3,53,,,,,,,,,,,,,,,,,,,None,None,None,12.993,,,,,,,,,,,,,,,,,,,2019_Mar_15_1801,59.610670786920174,Cloud_Experiment_FR_REAL,001,26,
images/fcloud65-35_D1.9_2.tif,1.9,1,,,,,0,4,4,70,,,,,,,,,,,,,,,,,,,2,space,3,3.798,2.4090402,,,,,,,,,,,,,,,,,,2019_Mar_15_1801,59.610670786920174,Cloud_Experiment_FR_REAL,001,26,
images/fcloud80-20_D1.6_2.tif,1.6,2,,,,,0,5,5,97,,,,,,,,,,,,,,,,,,,1,space,2,1.634,7.5865902,,,,,,,,,,,,,,,,,,2019_Mar_15_1801,59.610670786920174,Cloud_Experiment_FR_REAL,001,26,
images/fcloud80-20_D1.7_1.tif,1.7,2,,,,,0,6,6,99,,,,,,,,,,,,,,,,,,,None,None,None,11.193,,,,,,,,,,,,,,,,,,,2019_Mar_15_1801,59.610670786920174,Cloud_Experiment_FR_REAL,001,26,
images/fcloud65-35_D1.6_1.tif,1.6,1,,,,,0,7,7,60,,,,,,,,,,,,,,,,,,,2,space,2,1.602,3.1996597,,,,,,,,,,,,,,,,,,2019_Mar_15_1801,59.610670786920174,Cloud_Experiment_FR_REAL,001,26,
images/fcloud65-35_D0.9_3.tif,0.9,1,,,,,0,8,8,41,,,,,,,,,,,,,,,,,,,2,space,4,2.818,5.5887727,,,,,,,,,,,,,,,,,,2019_Mar_15_1801,59.610670786920174,Cloud_Experiment_FR_REAL,001,26,
images/fcloud80-20_D1.9_2.tif,1.9,2,,,,,0,9,9,106,,,,,,,,,,,,,,,,,,,None,None,None,12.259,,,,,,,,,,,,,,,,,,,2019_Mar_15_1801,59.610670786920174,Cloud_Experiment_FR_REAL,001,26,
images/fcloud_D1.7_3.tif,1.7,0,,,,,0,10,10,29,,,,,,,,,,,,,,,,,,,1,space,4,2.684,7.7127321,,,,,,,,,,,,,,,,,,2019_Mar_15_1801,59.610670786920174,Cloud_Experiment_FR_REAL,001,26,
images/fcloud65-35_D0.8_1.tif,0.8,1,,,,,0,11,11,36,,,,,,,,,,,,,,,,,,,2,space,4,1.906,2.1104444,,,,,,,,,,,,,,,,,,2019_Mar_15_1801,59.610670786920174,Cloud_Experiment_FR_REAL,001,26,
images/fcloud80-20_D1.6_3.tif,1.6,2,,,,,0,12,12,98,,,,,,,,,,,,,,,,,,,None,None,None,11.31,,,,,,,,,,,,,,,,,,,2019_Mar_15_1801,59.610670786920174,Cloud_Experiment_FR_REAL,001,26,
images/fcloud80-20_D1.7_2.tif,1.7,2,,,,,0,13,13,100,,,,,,,,,,,,,,,,,,,1,space,2,1.369,3.0026061,,,,,,,,,,,,,,,,,,2019_Mar_15_1801,59.610670786920174,Cloud_Experiment_FR_REAL,001,26,
images/fcloud65-35_D1.1_1.tif,1.1,1,,,,,0,14,14,45,,,,,,,,,,,,,,,,,,,1,space,2,1.416,7.4573085,,,,,,,,,,,,,,,,,,2019_Mar_15_1801,59.610670786920174,Cloud_Experiment_FR_REAL,001,26,
images/fcloud65-35_D1.3_1.tif,1.3,1,,,,,0,15,15,51,,,,,,,,,,,,,,,,,,,1,space,4,4.333,3.8479173,,,,,,,,,,,,,,,,,,2019_Mar_15_1801,59.610670786920174,Cloud_Experiment_FR_REAL,001,26,
images/fcloud65-35_D1.1_2.tif,1.1,1,,,,,0,16,16,46,,,,,,,,,,,,,,,,,,,None,None,None,13.906,,,,,,,,,,,,,,,,,,,2019_Mar_15_1801,59.610670786920174,Cloud_Experiment_FR_REAL,001,26,
images/fcloud_D1.9_2.tif,1.9,0,,,,,0,17,17,34,,,,,,,,,,,,,,,,,,,1,space,2,1.402,5.4147892,,,,,,,,,,,,,,,,,,2019_Mar_15_1801,59.610670786920174,Cloud_Experiment_FR_REAL,001,26,
images/fcloud_D0.9_2.tif,0.9,0,,,,,0,18,18,4,,,,,,,,,,,,,,,,,,,1,space,3,1.586,2.727019,,,,,,,,,,,,,,,,,,2019_Mar_15_1801,59.610670786920174,Cloud_Experiment_FR_REAL,001,26,
images/fcloud_D1_3.tif,1.0,0,,,,,0,19,19,8,,,,,,,,,,,,,,,,,,,1,space,4,1.418,3.7070229,,,,,,,,,,,,,,,,,,2019_Mar_15_1801,59.610670786920174,Cloud_Experiment_FR_REAL,001,26,
images/fcloud_D1.6_3.tif,1.6,0,,,,,0,20,20,26,,,,,,,,,,,,,,,,,,,None,None,None,10.643,,,,,,,,,,,,,,,,,,,2019_Mar_15_1801,59.610670786920174,Cloud_Experiment_FR_REAL,001,26,
images/fcloud65-35_D1.4_1.tif,1.4,1,,,,,0,21,21,54,,,,,,,,,,,,,,,,,,,None,None,None,20.468,,,,,,,,,,,,,,,,,,,2019_Mar_15_1801,59.610670786920174,Cloud_Experiment_FR_REAL,001,26,
images/fcloud_D1.5_2.tif,1.5,0,,,,,0,22,22,22,,,,,,,,,,,,,,,,,,,2,space,3,6.78,5.5317133,,,,,,,,,,,,,,,,,,2019_Mar_15_1801,59.610670786920174,Cloud_Experiment_FR_REAL,001,26,
images/fcloud80-20_D1.7_3.tif,1.7,2,,,,,0,23,23,101,,,,,,,,,,,,,,,,,,,None,None,None,16.07,,,,,,,,,,,,,,,,,,,2019_Mar_15_1801,59.610670786920174,Cloud_Experiment_FR_REAL,001,26,
images/fcloud80-20_D0.9_3.tif,0.9,2,,,,,0,24,24,77,,,,,,,,,,,,,,,,,,,1,space,1,3.833,7.5266272,,,,,,,,,,,,,,,,,,2019_Mar_15_1801,59.610670786920174,Cloud_Experiment_FR_REAL,001,26,
images/fcloud80-20_D0.9_2.tif,0.9,2,,,,,0,25,25,76,,,,,,,,,,,,,,,,,,,3,space,4,4.833,5.2434622,,,,,,,,,,,,,,,,,,2019_Mar_15_1801,59.610670786920174,Cloud_Experiment_FR_REAL,001,26,
images/fcloud65-35_D1.5_3.tif,1.5,1,,,,,0,26,26,59,,,,,,,,,,,,,,,,,,,1,space,3,2.501,6.4639455,,,,,,,,,,,,,,,,,,2019_Mar_15_1801,59.610670786920174,Cloud_Experiment_FR_REAL,001,26,
images/fcloud65-35_D0.9_2.tif,0.9,1,,,,,0,27,27,40,,,,,,,,,,,,,,,,,,,1,space,4,2.086,3.6734667,,,,,,,,,,,,,,,,,,2019_Mar_15_1801,59.610670786920174,Cloud_Experiment_FR_REAL,001,26,
images/fcloud_D1.3_3.tif,1.3,0,,,,,0,28,28,17,,,,,,,,,,,,,,,,,,,None,None,None,11.475,,,,,,,,,,,,,,,,,,,2019_Mar_15_1801,59.610670786920174,Cloud_Experiment_FR_REAL,001,26,
images/fcloud_D1.2_1.tif,1.2,0,,,,,0,29,29,12,,,,,,,,,,,,,,,,,,,1,space,2,4.034,5.3614503,,,,,,,,,,,,,,,,,,2019_Mar_15_1801,59.610670786920174,Cloud_Experiment_FR_REAL,001,26,
images/fcloud_D1.5_3.tif,1.5,0,,,,,0,30,30,23,,,,,,,,,,,,,,,,,,,1,None,1,1.468,,,,,,,,,,,,,,,,,,,2019_Mar_15_1801,59.610670786920174,Cloud_Experiment_FR_REAL,001,26,
images/fcloud65-35_D1.8_3.tif,1.8,1,,,,,0,31,31,68,,,,,,,,,,,,,,,,,,,None,None,None,14.189,,,,,,,,,,,,,,,,,,,2019_Mar_15_1801,59.610670786920174,Cloud_Experiment_FR_REAL,001,26,
images/fcloud65-35_D1.8_1.tif,1.8,1,,,,,0,32,32,66,,,,,,,,,,,,,,,,,,,1,space,3,3.419,3.6739184,,,,,,,,,,,,,,,,,,2019_Mar_15_1801,59.610670786920174,Cloud_Experiment_FR_REAL,001,26,
images/fcloud65-35_D1_2.tif,1.0,1,,,,,0,33,33,43,,,,,,,,,,,,,,,,,,,1,space,1,2.685,2.6449422,,,,,,,,,,,,,,,,,,2019_Mar_15_1801,59.610670786920174,Cloud_Experiment_FR_REAL,001,26,
images/fcloud65-35_D1.9_3.tif,1.9,1,,,,,0,34,34,71,,,,,,,,,,,,,,,,,,,1,space,2,0.934,4.636907,,,,,,,,,,,,,,,,,,2019_Mar_15_1801,59.610670786920174,Cloud_Experiment_FR_REAL,001,26,
images/fcloud_D1.1_1.tif,1.1,0,,,,,0,35,35,9,,,,,,,,,,,,,,,,,,,3,space,3,3.215,4.916444,,,,,,,,,,,,,,,,,,2019_Mar_15_1801,59.610670786920174,Cloud_Experiment_FR_REAL,001,26,
images/fcloud80-20_D0.8_1.tif,0.8,2,,,,,0,36,36,72,,,,,,,,,,,,,,,,,,,2,space,3,3.55,2.8780711,,,,,,,,,,,,,,,,,,2019_Mar_15_1801,59.610670786920174,Cloud_Experiment_FR_REAL,001,26,
images/fcloud_D1.1_3.tif,1.1,0,,,,,0,37,37,11,,,,,,,,,,,,,,,,,,,None,None,None,12.656,,,,,,,,,,,,,,,,,,,2019_Mar_15_1801,59.610670786920174,Cloud_Experiment_FR_REAL,001,26,
images/fcloud65-35_D1.4_3.tif,1.4,1,,,,,0,38,38,56,,,,,,,,,,,,,,,,,,,1,space,2,3.051,4.9494577,,,,,,,,,,,,,,,,,,2019_Mar_15_1801,59.610670786920174,Cloud_Experiment_FR_REAL,001,26,
images/fcloud_D1.4_2.tif,1.4,0,,,,,0,39,39,19,,,,,,,,,,,,,,,,,,,1,space,3,1.617,8.1564257,,,,,,,,,,,,,,,,,,2019_Mar_15_1801,59.610670786920174,Cloud_Experiment_FR_REAL,001,26,
images/fcloud_D1.9_1.tif,1.9,0,,,,,0,40,40,33,,,,,,,,,,,,,,,,,,,None,None,None,10.992,,,,,,,,,,,,,,,,,,,2019_Mar_15_1801,59.610670786920174,Cloud_Experiment_FR_REAL,001,26,
images/fcloud80-20_D1.1_1.tif,1.1,2,,,,,0,41,41,81,,,,,,,,,,,,,,,,,,,None,None,None,20.067,,,,,,,,,,,,,,,,,,,2019_Mar_15_1801,59.610670786920174,Cloud_Experiment_FR_REAL,001,26,
images/fcloud65-35_D1.2_2.tif,1.2,1,,,,,0,42,42,49,,,,,,,,,,,,,,,,,,,1,space,3,1.168,4.2596831,,,,,,,,,,,,,,,,,,2019_Mar_15_1801,59.610670786920174,Cloud_Experiment_FR_REAL,001,26,
images/fcloud_D1.8_1.tif,1.8,0,,,,,0,43,43,30,,,,,,,,,,,,,,,,,,,None,None,None,10.761,,,,,,,,,,,,,,,,,,,2019_Mar_15_1801,59.610670786920174,Cloud_Experiment_FR_REAL,001,26,
images/fcloud80-20_D1.3_1.tif,1.3,2,,,,,0,44,44,87,,,,,,,,,,,,,,,,,,,2,space,2,1.268,2.6849249,,,,,,,,,,,,,,,,,,2019_Mar_15_1801,59.610670786920174,Cloud_Experiment_FR_REAL,001,26,
images/fcloud80-20_D1.2_1.tif,1.2,2,,,,,0,45,45,84,,,,,,,,,,,,,,,,,,,1,space,1,2.084,4.8422422,,,,,,,,,,,,,,,,,,2019_Mar_15_1801,59.610670786920174,Cloud_Experiment_FR_REAL,001,26,
images/fcloud_D1.1_2.tif,1.1,0,,,,,0,46,46,10,,,,,,,,,,,,,,,,,,,1,space,4,1.401,1.5462527,,,,,,,,,,,,,,,,,,2019_Mar_15_1801,59.610670786920174,Cloud_Experiment_FR_REAL,001,26,
images/fcloud65-35_D1_3.tif,1.0,1,,,,,0,47,47,44,,,,,,,,,,,,,,,,,,,None,None,None,11.14,,,,,,,,,,,,,,,,,,,2019_Mar_15_1801,59.610670786920174,Cloud_Experiment_FR_REAL,001,26,
images/fcloud65-35_D1.1_3.tif,1.1,1,,,,,0,48,48,47,,,,,,,,,,,,,,,,,,,1,None,2,1.17,,,,,,,,,,,,,,,,,,,2019_Mar_15_1801,59.610670786920174,Cloud_Experiment_FR_REAL,001,26,
images/fcloud_D1.7_1.tif,1.7,0,,,,,0,49,49,27,,,,,,,,,,,,,,,,,,,1,space,1,0.868,7.729204,,,,,,,,,,,,,,,,,,2019_Mar_15_1801,59.610670786920174,Cloud_Experiment_FR_REAL,001,26,
images/fcloud65-35_D1.7_1.tif,1.7,1,,,,,0,50,50,63,,,,,,,,,,,,,,,,,,,None,None,None,10.31,,,,,,,,,,,,,,,,,,,2019_Mar_15_1801,59.610670786920174,Cloud_Experiment_FR_REAL,001,26,
images/fcloud80-20_D1.1_3.tif,1.1,2,,,,,0,51,51,83,,,,,,,,,,,,,,,,,,,2,space,4,3.316,4.0478393,,,,,,,,,,,,,,,,,,2019_Mar_15_1801,59.610670786920174,Cloud_Experiment_FR_REAL,001,26,
images/fcloud80-20_D1.3_2.tif,1.3,2,,,,,0,52,52,88,,,,,,,,,,,,,,,,,,,1,None,1,2.301,,,,,,,,,,,,,,,,,,,2019_Mar_15_1801,59.610670786920174,Cloud_Experiment_FR_REAL,001,26,
images/fcloud65-35_D1.3_2.tif,1.3,1,,,,,0,53,53,52,,,,,,,,,,,,,,,,,,,2,space,3,2.666,2.6348434,,,,,,,,,,,,,,,,,,2019_Mar_15_1801,59.610670786920174,Cloud_Experiment_FR_REAL,001,26,
images/fcloud80-20_D1.4_2.tif,1.4,2,,,,,0,54,54,91,,,,,,,,,,,,,,,,,,,1,space,2,2.551,7.9851627,,,,,,,,,,,,,,,,,,2019_Mar_15_1801,59.610670786920174,Cloud_Experiment_FR_REAL,001,26,
images/fcloud65-35_D1.6_3.tif,1.6,1,,,,,0,55,55,62,,,,,,,,,,,,,,,,,,,None,None,None,11.758,,,,,,,,,,,,,,,,,,,2019_Mar_15_1801,59.610670786920174,Cloud_Experiment_FR_REAL,001,26,
images/fcloud80-20_D1.8_2.tif,1.8,2,,,,,0,56,56,103,,,,,,,,,,,,,,,,,,,1,space,2,1.25,3.9158266,,,,,,,,,,,,,,,,,,2019_Mar_15_1801,59.610670786920174,Cloud_Experiment_FR_REAL,001,26,
images/fcloud80-20_D1_3.tif,1.0,2,,,,,0,57,57,80,,,,,,,,,,,,,,,,,,,None,None,None,11.492,,,,,,,,,,,,,,,,,,,2019_Mar_15_1801,59.610670786920174,Cloud_Experiment_FR_REAL,001,26,
images/fcloud80-20_D1_2.tif,1.0,2,,,,,0,58,58,79,,,,,,,,,,,,,,,,,,,1,None,1,0.919,,,,,,,,,,,,,,,,,,,2019_Mar_15_1801,59.610670786920174,Cloud_Experiment_FR_REAL,001,26,
images/fcloud_D0.9_1.tif,0.9,0,,,,,0,59,59,3,,,,,,,,,,,,,,,,,,,1,space,4,1.269,2.362621,,,,,,,,,,,,,,,,,,2019_Mar_15_1801,59.610670786920174,Cloud_Experiment_FR_REAL,001,26,
images/fcloud65-35_D1.5_2.tif,1.5,1,,,,,0,60,60,58,,,,,,,,,,,,,,,,,,,1,None,1,5.764,,,,,,,,,,,,,,,,,,,2019_Mar_15_1801,59.610670786920174,Cloud_Experiment_FR_REAL,001,26,
images/fcloud_D1_2.tif,1.0,0,,,,,0,61,61,7,,,,,,,,,,,,,,,,,,,2,space,3,1.385,3.1080641,,,,,,,,,,,,,,,,,,2019_Mar_15_1801,59.610670786920174,Cloud_Experiment_FR_REAL,001,26,
images/fcloud80-20_D1.9_3.tif,1.9,2,,,,,0,62,62,107,,,,,,,,,,,,,,,,,,,2,space,2,0.852,3.2399029,,,,,,,,,,,,,,,,,,2019_Mar_15_1801,59.610670786920174,Cloud_Experiment_FR_REAL,001,26,
images/fcloud80-20_D1.1_2.tif,1.1,2,,,,,0,63,63,82,,,,,,,,,,,,,,,,,,,None,None,None,10.711,,,,,,,,,,,,,,,,,,,2019_Mar_15_1801,59.610670786920174,Cloud_Experiment_FR_REAL,001,26,
images/fcloud_D0.8_1.tif,0.8,0,,,,,0,64,64,0,,,,,,,,,,,,,,,,,,,1,space,2,0.921,5.6128442,,,,,,,,,,,,,,,,,,2019_Mar_15_1801,59.610670786920174,Cloud_Experiment_FR_REAL,001,26,
images/fcloud80-20_D1.2_2.tif,1.2,2,,,,,0,65,65,85,,,,,,,,,,,,,,,,,,,1,space,1,3.416,4.6223598,,,,,,,,,,,,,,,,,,2019_Mar_15_1801,59.610670786920174,Cloud_Experiment_FR_REAL,001,26,
images/fcloud80-20_D1.6_1.tif,1.6,2,,,,,0,66,66,96,,,,,,,,,,,,,,,,,,,3,space,2,0.969,3.2234449,,,,,,,,,,,,,,,,,,2019_Mar_15_1801,59.610670786920174,Cloud_Experiment_FR_REAL,001,26,
images/fcloud80-20_D0.9_1.tif,0.9,2,,,,,0,67,67,75,,,,,,,,,,,,,,,,,,,1,space,1,2.0,4.7740322,,,,,,,,,,,,,,,,,,2019_Mar_15_1801,59.610670786920174,Cloud_Experiment_FR_REAL,001,26,
images/fcloud65-35_D1.4_2.tif,1.4,1,,,,,0,68,68,55,,,,,,,,,,,,,,,,,,,2,space,2,0.851,3.6104076,,,,,,,,,,,,,,,,,,2019_Mar_15_1801,59.610670786920174,Cloud_Experiment_FR_REAL,001,26,
images/fcloud_D1.4_3.tif,1.4,0,,,,,0,69,69,20,,,,,,,,,,,,,,,,,,,1,space,1,0.753,6.0850839,,,,,,,,,,,,,,,,,,2019_Mar_15_1801,59.610670786920174,Cloud_Experiment_FR_REAL,001,26,
images/fcloud80-20_D1.5_3.tif,1.5,2,,,,,0,70,70,95,,,,,,,,,,,,,,,,,,,1,space,1,0.836,7.1655242,,,,,,,,,,,,,,,,,,2019_Mar_15_1801,59.610670786920174,Cloud_Experiment_FR_REAL,001,26,
images/fcloud_D1.3_2.tif,1.3,0,,,,,0,71,71,16,,,,,,,,,,,,,,,,,,,None,None,None,11.491,,,,,,,,,,,,,,,,,,,2019_Mar_15_1801,59.610670786920174,Cloud_Experiment_FR_REAL,001,26,
images/fcloud65-35_D1.9_1.tif,1.9,1,,,,,0,72,72,69,,,,,,,,,,,,,,,,,,,1,space,2,1.035,6.7142651,,,,,,,,,,,,,,,,,,2019_Mar_15_1801,59.610670786920174,Cloud_Experiment_FR_REAL,001,26,
images/fcloud80-20_D1.9_1.tif,1.9,2,,,,,0,73,73,105,,,,,,,,,,,,,,,,,,,None,None,None,10.526,,,,,,,,,,,,,,,,,,,2019_Mar_15_1801,59.610670786920174,Cloud_Experiment_FR_REAL,001,26,
images/fcloud_D1_1.tif,1.0,0,,,,,0,74,74,6,,,,,,,,,,,,,,,,,,,1,space,1,1.401,5.0618668,,,,,,,,,,,,,,,,,,2019_Mar_15_1801,59.610670786920174,Cloud_Experiment_FR_REAL,001,26,
images/fcloud_D1.4_1.tif,1.4,0,,,,,0,75,75,18,,,,,,,,,,,,,,,,,,,1,space,4,1.601,5.2439725,,,,,,,,,,,,,,,,,,2019_Mar_15_1801,59.610670786920174,Cloud_Experiment_FR_REAL,001,26,
images/fcloud_D1.3_1.tif,1.3,0,,,,,0,76,76,15,,,,,,,,,,,,,,,,,,,1,space,3,2.901,4.5928024,,,,,,,,,,,,,,,,,,2019_Mar_15_1801,59.610670786920174,Cloud_Experiment_FR_REAL,001,26,
images/fcloud65-35_D0.8_3.tif,0.8,1,,,,,0,77,77,38,,,,,,,,,,,,,,,,,,,1,space,2,2.665,8.0993767,,,,,,,,,,,,,,,,,,2019_Mar_15_1801,59.610670786920174,Cloud_Experiment_FR_REAL,001,26,
images/fcloud65-35_D1.8_2.tif,1.8,1,,,,,0,78,78,67,,,,,,,,,,,,,,,,,,,None,None,None,12.374,,,,,,,,,,,,,,,,,,,2019_Mar_15_1801,59.610670786920174,Cloud_Experiment_FR_REAL,001,26,
images/fcloud65-35_D1.7_3.tif,1.7,1,,,,,0,79,79,65,,,,,,,,,,,,,,,,,,,1,space,3,2.1,1.8892767,,,,,,,,,,,,,,,,,,2019_Mar_15_1801,59.610670786920174,Cloud_Experiment_FR_REAL,001,26,
images/fcloud_D1.9_3.tif,1.9,0,,,,,0,80,80,35,,,,,,,,,,,,,,,,,,,1,space,1,1.869,6.5255881,,,,,,,,,,,,,,,,,,2019_Mar_15_1801,59.610670786920174,Cloud_Experiment_FR_REAL,001,26,
images/fcloud80-20_D1.4_3.tif,1.4,2,,,,,0,81,81,92,,,,,,,,,,,,,,,,,,,1,space,1,0.819,7.5874874,,,,,,,,,,,,,,,,,,2019_Mar_15_1801,59.610670786920174,Cloud_Experiment_FR_REAL,001,26,
images/fcloud80-20_D1.3_3.tif,1.3,2,,,,,0,82,82,89,,,,,,,,,,,,,,,,,,,None,None,None,10.493,,,,,,,,,,,,,,,,,,,2019_Mar_15_1801,59.610670786920174,Cloud_Experiment_FR_REAL,001,26,
images/fcloud_D0.8_2.tif,0.8,0,,,,,0,83,83,1,,,,,,,,,,,,,,,,,,,1,None,1,0.752,,,,,,,,,,,,,,,,,,,2019_Mar_15_1801,59.610670786920174,Cloud_Experiment_FR_REAL,001,26,
images/fcloud80-20_D0.8_3.tif,0.8,2,,,,,0,84,84,74,,,,,,,,,,,,,,,,,,,None,None,None,10.162,,,,,,,,,,,,,,,,,,,2019_Mar_15_1801,59.610670786920174,Cloud_Experiment_FR_REAL,001,26,
images/fcloud_D1.5_1.tif,1.5,0,,,,,0,85,85,21,,,,,,,,,,,,,,,,,,,1,space,1,0.652,6.9468991,,,,,,,,,,,,,,,,,,2019_Mar_15_1801,59.610670786920174,Cloud_Experiment_FR_REAL,001,26,
images/fcloud65-35_D1.2_1.tif,1.2,1,,,,,0,86,86,48,,,,,,,,,,,,,,,,,,,None,None,None,9.758,,,,,,,,,,,,,,,,,,,2019_Mar_15_1801,59.610670786920174,Cloud_Experiment_FR_REAL,001,26,
images/fcloud65-35_D1.2_3.tif,1.2,1,,,,,0,87,87,50,,,,,,,,,,,,,,,,,,,None,None,None,18.854,,,,,,,,,,,,,,,,,,,2019_Mar_15_1801,59.610670786920174,Cloud_Experiment_FR_REAL,001,26,
images/fcloud_D1.7_2.tif,1.7,0,,,,,0,88,88,28,,,,,,,,,,,,,,,,,,,1,space,3,1.535,6.7266284,,,,,,,,,,,,,,,,,,2019_Mar_15_1801,59.610670786920174,Cloud_Experiment_FR_REAL,001,26,
images/fcloud_D1.8_2.tif,1.8,0,,,,,0,89,89,31,,,,,,,,,,,,,,,,,,,None,None,None,10.943,,,,,,,,,,,,,,,,,,,2019_Mar_15_1801,59.610670786920174,Cloud_Experiment_FR_REAL,001,26,
images/fcloud65-35_D1.5_1.tif,1.5,1,,,,,0,90,90,57,,,,,,,,,,,,,,,,,,,1,space,2,2.499,4.5118558,,,,,,,,,,,,,,,,,,2019_Mar_15_1801,59.610670786920174,Cloud_Experiment_FR_REAL,001,26,
images/fcloud80-20_D1.5_2.tif,1.5,2,,,,,0,91,91,94,,,,,,,,,,,,,,,,,,,1,space,1,1.551,5.4924251,,,,,,,,,,,,,,,,,,2019_Mar_15_1801,59.610670786920174,Cloud_Experiment_FR_REAL,001,26,
images/fcloud_D1.2_2.tif,1.2,0,,,,,0,92,92,13,,,,,,,,,,,,,,,,,,,2,space,2,2.418,5.1291828,,,,,,,,,,,,,,,,,,2019_Mar_15_1801,59.610670786920174,Cloud_Experiment_FR_REAL,001,26,
images/fcloud65-35_D1.7_2.tif,1.7,1,,,,,0,93,93,64,,,,,,,,,,,,,,,,,,,None,None,None,11.824,,,,,,,,,,,,,,,,,,,2019_Mar_15_1801,59.610670786920174,Cloud_Experiment_FR_REAL,001,26,
images/fcloud_D1.6_1.tif,1.6,0,,,,,0,94,94,24,,,,,,,,,,,,,,,,,,,1,space,4,3.034,5.642281,,,,,,,,,,,,,,,,,,2019_Mar_15_1801,59.610670786920174,Cloud_Experiment_FR_REAL,001,26,
images/fcloud80-20_D1.5_1.tif,1.5,2,,,,,0,95,95,93,,,,,,,,,,,,,,,,,,,1,space,2,1.967,4.9845845,,,,,,,,,,,,,,,,,,2019_Mar_15_1801,59.610670786920174,Cloud_Experiment_FR_REAL,001,26,
images/fcloud65-35_D1.6_2.tif,1.6,1,,,,,0,96,96,61,,,,,,,,,,,,,,,,,,,1,space,2,1.769,7.3942877,,,,,,,,,,,,,,,,,,2019_Mar_15_1801,59.610670786920174,Cloud_Experiment_FR_REAL,001,26,
images/fcloud80-20_D1_1.tif,1.0,2,,,,,0,97,97,78,,,,,,,,,,,,,,,,,,,1,space,2,1.002,6.8823361,,,,,,,,,,,,,,,,,,2019_Mar_15_1801,59.610670786920174,Cloud_Experiment_FR_REAL,001,26,
images/fcloud80-20_D1.2_3.tif,1.2,2,,,,,0,98,98,86,,,,,,,,,,,,,,,,,,,1,space,4,3.315,1.6728698,,,,,,,,,,,,,,,,,,2019_Mar_15_1801,59.610670786920174,Cloud_Experiment_FR_REAL,001,26,
images/fcloud_D1.6_2.tif,1.6,0,,,,,0,99,99,25,,,,,,,,,,,,,,,,,,,1,space,3,1.418,3.4128823,,,,,,,,,,,,,,,,,,2019_Mar_15_1801,59.610670786920174,Cloud_Experiment_FR_REAL,001,26,
images/fcloud65-35_D0.8_2.tif,0.8,1,,,,,0,100,100,37,,,,,,,,,,,,,,,,,,,1,None,1,1.269,,,,,,,,,,,,,,,,,,,2019_Mar_15_1801,59.610670786920174,Cloud_Experiment_FR_REAL,001,26,
images/fcloud65-35_D1_1.tif,1.0,1,,,,,0,101,101,42,,,,,,,,,,,,,,,,,,,1,space,4,4.499,2.4579633,,,,,,,,,,,,,,,,,,2019_Mar_15_1801,59.610670786920174,Cloud_Experiment_FR_REAL,001,26,
images/fcloud_D0.8_3.tif,0.8,0,,,,,0,102,102,2,,,,,,,,,,,,,,,,,,,None,None,None,15.704,,,,,,,,,,,,,,,,,,,2019_Mar_15_1801,59.610670786920174,Cloud_Experiment_FR_REAL,001,26,
images/fcloud65-35_D0.9_1.tif,0.9,1,,,,,0,103,103,39,,,,,,,,,,,,,,,,,,,1,space,4,1.35,4.3596512,,,,,,,,,,,,,,,,,,2019_Mar_15_1801,59.610670786920174,Cloud_Experiment_FR_REAL,001,26,
images/fcloud_D1.2_3.tif,1.2,0,,,,,0,104,104,14,,,,,,,,,,,,,,,,,,,2,space,3,1.867,2.3015439,,,,,,,,,,,,,,,,,,2019_Mar_15_1801,59.610670786920174,Cloud_Experiment_FR_REAL,001,26,
images/fcloud80-20_D1.8_3.tif,1.8,2,,,,,0,105,105,104,,,,,,,,,,,,,,,,,,,None,None,None,11.224,,,,,,,,,,,,,,,,,,,2019_Mar_15_1801,59.610670786920174,Cloud_Experiment_FR_REAL,001,26,
images/fcloud_D0.9_3.tif,0.9,0,,,,,0,106,106,5,,,,,,,,,,,,,,,,,,,None,None,None,20.449,,,,,,,,,,,,,,,,,,,2019_Mar_15_1801,59.610670786920174,Cloud_Experiment_FR_REAL,001,26,
images/fcloud80-20_D1.8_1.tif,1.8,2,,,,,0,107,107,102,,,,,,,,,,,,,,,,,,,None,None,None,30.145,,,,,,,,,,,,,,,,,,,2019_Mar_15_1801,59.610670786920174,Cloud_Experiment_FR_REAL,001,26,
,,,,,,,,,,,,,,,,,,,,,,,,,,,,,,,,,,,,,,,,,,,,,,space,4.4645281,,,,2019_Mar_15_1801,59.610670786920174,Cloud_Experiment_FR_REAL,001,26,
,,,,,,,,,,,,,,,,,,,,,,,,,6,12.784,,,,,,,,,,,,,,,,,,,,,,,,,2019_Mar_15_1801,59.610670786920174,Cloud_Experiment_FR_REAL,001,26,
,,,,,,,,,,,,,,,,,,,,,,,,,,,,,,,,,,6,,,,,,,,,,,,,,,,,2019_Mar_15_1801,59.610670786920174,Cloud_Experiment_FR_REAL,001,26,
,,,,,,,,,,,,,,,,,,,,,,,,,,,,,,,,,,,5,,,,,,,,,,,,,,,,2019_Mar_15_1801,59.610670786920174,Cloud_Experiment_FR_REAL,001,26,
,,,,,,,,,,,,,,,,,,,,,,,,,,,,,,,,,,,,5,,,,,,,,,,,,,,,2019_Mar_15_1801,59.610670786920174,Cloud_Experiment_FR_REAL,001,26,
,,,,,,,,,,,,,,,,,,,,,,,,,,,,,,,,,,,,,5,,,,,,,,,,,,,,2019_Mar_15_1801,59.610670786920174,Cloud_Experiment_FR_REAL,001,26,
,,,,,,,,,,,,,,,,,,,,,,,,,,,,,,,,,,,,,,5,,,,,,,,,,,,,2019_Mar_15_1801,59.610670786920174,Cloud_Experiment_FR_REAL,001,26,
,,,,,,,,,,,,,,,,,,,,,,,,,,,,,,,,,,,,,,,5,,,,,,,,,,,,2019_Mar_15_1801,59.610670786920174,Cloud_Experiment_FR_REAL,001,26,
,,,,,,,,,,,,,,,,,,,,,,,,,,,,,,,,,,,,,,,,4,,,,,,,,,,,2019_Mar_15_1801,59.610670786920174,Cloud_Experiment_FR_REAL,001,26,
,,,,,,,,,,,,,,,,,,,,,,,,,,,,,,,,,,,,,,,,,5,,,,,,,,,,2019_Mar_15_1801,59.610670786920174,Cloud_Experiment_FR_REAL,001,26,
,,,,,,,,,,,,,,,,,,,,,,,,,,,,,,,,,,,,,,,,,,6,,,,,,,,,2019_Mar_15_1801,59.610670786920174,Cloud_Experiment_FR_REAL,001,26,
,,,,,,,,,,,,,,,,,,,,,,,,,,,,,,,,,,,,,,,,,,,5,,,,,,,,2019_Mar_15_1801,59.610670786920174,Cloud_Experiment_FR_REAL,001,26,
,,,,,,,,,,,,,,,,,,,,,,,,,,,,,,,,,,,,,,,,,,,,,,,,space,569.6728365,,2019_Mar_15_1801,59.610670786920174,Cloud_Experiment_FR_REAL,001,26,
images/fcloud65-35_D1.8_5.tif,1.8,1,,,,,,,,,0,0,0,67,,,,,,,,,,,,,,,3,space,4,1.435,3.0447071,,,,,,,,,,,,,,,,,,2019_Mar_15_1801,59.610670786920174,Cloud_Experiment_FR_REAL,001,26,
images/fcloud_D1_5.tif,1.0,0,,,,,,,,,0,1,1,7,,,,,,,,,,,,,,,2,space,3,2.417,3.6163264,,,,,,,,,,,,,,,,,,2019_Mar_15_1801,59.610670786920174,Cloud_Experiment_FR_REAL,001,26,
images/fcloud65-35_D1.5_5.tif,1.5,1,,,,,,,,,0,2,2,58,,,,,,,,,,,,,,,1,space,2,1.219,7.0140915,,,,,,,,,,,,,,,,,,2019_Mar_15_1801,59.610670786920174,Cloud_Experiment_FR_REAL,001,26,
images/fcloud_D1.1_5.tif,1.1,0,,,,,,,,,0,3,3,10,,,,,,,,,,,,,,,1,space,1,1.334,7.3698554,,,,,,,,,,,,,,,,,,2019_Mar_15_1801,59.610670786920174,Cloud_Experiment_FR_REAL,001,26,
images/fcloud65-35_D1.7_4.tif,1.7,1,,,,,,,,,0,4,4,63,,,,,,,,,,,,,,,None,None,None,10.907,,,,,,,,,,,,,,,,,,,2019_Mar_15_1801,59.610670786920174,Cloud_Experiment_FR_REAL,001,26,
images/fcloud65-35_D1.7_6.tif,1.7,1,,,,,,,,,0,5,5,65,,,,,,,,,,,,,,,1,space,2,0.953,8.0897078,,,,,,,,,,,,,,,,,,2019_Mar_15_1801,59.610670786920174,Cloud_Experiment_FR_REAL,001,26,
images/fcloud_D1.4_6.tif,1.4,0,,,,,,,,,0,6,6,20,,,,,,,,,,,,,,,None,None,None,10.591,,,,,,,,,,,,,,,,,,,2019_Mar_15_1801,59.610670786920174,Cloud_Experiment_FR_REAL,001,26,
images/fcloud80-20_D1.9_5.tif,1.9,2,,,,,,,,,0,7,7,106,,,,,,,,,,,,,,,2,space,1,1.052,5.8025934,,,,,,,,,,,,,,,,,,2019_Mar_15_1801,59.610670786920174,Cloud_Experiment_FR_REAL,001,26,
images/fcloud65-35_D1_5.tif,1.0,1,,,,,,,,,0,8,8,43,,,,,,,,,,,,,,,1,space,4,1.652,7.6029821,,,,,,,,,,,,,,,,,,2019_Mar_15_1801,59.610670786920174,Cloud_Experiment_FR_REAL,001,26,
images/fcloud_D1.2_5.tif,1.2,0,,,,,,,,,0,9,9,13,,,,,,,,,,,,,,,1,space,2,1.351,6.7521169,,,,,,,,,,,,,,,,,,2019_Mar_15_1801,59.610670786920174,Cloud_Experiment_FR_REAL,001,26,
images/fcloud80-20_D1.1_5.tif,1.1,2,,,,,,,,,0,10,10,82,,,,,,,,,,,,,,,1,None,1,1.217,,,,,,,,,,,,,,,,,,,2019_Mar_15_1801,59.610670786920174,Cloud_Experiment_FR_REAL,001,26,
images/fcloud65-35_D1.4_5.tif,1.4,1,,,,,,,,,0,11,11,55,,,,,,,,,,,,,,,1,space,4,2.201,4.7329358,,,,,,,,,,,,,,,,,,2019_Mar_15_1801,59.610670786920174,Cloud_Experiment_FR_REAL,001,26,
images/fcloud_D1.9_4.tif,1.9,0,,,,,,,,,0,12,12,33,,,,,,,,,,,,,,,1,space,2,1.368,7.6362962,,,,,,,,,,,,,,,,,,2019_Mar_15_1801,59.610670786920174,Cloud_Experiment_FR_REAL,001,26,
images/fcloud_D1.9_5.tif,1.9,0,,,,,,,,,0,13,13,34,,,,,,,,,,,,,,,None,None,None,11.256,,,,,,,,,,,,,,,,,,,2019_Mar_15_1801,59.610670786920174,Cloud_Experiment_FR_REAL,001,26,
images/fcloud_D1.7_5.tif,1.7,0,,,,,,,,,0,14,14,28,,,,,,,,,,,,,,,None,None,None,21.465,,,,,,,,,,,,,,,,,,,2019_Mar_15_1801,59.610670786920174,Cloud_Experiment_FR_REAL,001,26,
images/fcloud80-20_D1.6_5.tif,1.6,2,,,,,,,,,0,15,15,97,,,,,,,,,,,,,,,None,None,None,31.206,,,,,,,,,,,,,,,,,,,2019_Mar_15_1801,59.610670786920174,Cloud_Experiment_FR_REAL,001,26,
images/fcloud80-20_D0.8_5.tif,0.8,2,,,,,,,,,0,16,16,73,,,,,,,,,,,,,,,None,space,None,41.8,9.3886518,,,,,,,,,,,,,,,,,,2019_Mar_15_1801,59.610670786920174,Cloud_Experiment_FR_REAL,001,26,
images/fcloud65-35_D0.8_4.tif,0.8,1,,,,,,,,,0,17,17,36,,,,,,,,,,,,,,,None,None,None,51.222,,,,,,,,,,,,,,,,,,,2019_Mar_15_1801,59.610670786920174,Cloud_Experiment_FR_REAL,001,26,
images/fcloud65-35_D0.9_5.tif,0.9,1,,,,,,,,,0,18,18,40,,,,,,,,,,,,,,,None,None,None,60.566,,,,,,,,,,,,,,,,,,,2019_Mar_15_1801,59.610670786920174,Cloud_Experiment_FR_REAL,001,26,
images/fcloud_D1.7_6.tif,1.7,0,,,,,,,,,0,19,19,29,,,,,,,,,,,,,,,None,None,None,69.326,,,,,,,,,,,,,,,,,,,2019_Mar_15_1801,59.610670786920174,Cloud_Experiment_FR_REAL,001,26,
images/fcloud80-20_D1.7_5.tif,1.7,2,,,,,,,,,0,20,20,100,,,,,,,,,,,,,,,1,space,1,1.719,4.6611229,,,,,,,,,,,,,,,,,,2019_Mar_15_1801,59.610670786920174,Cloud_Experiment_FR_REAL,001,26,
images/fcloud_D0.9_6.tif,0.9,0,,,,,,,,,0,21,21,5,,,,,,,,,,,,,,,1,space,2,1.702,7.433815,,,,,,,,,,,,,,,,,,2019_Mar_15_1801,59.610670786920174,Cloud_Experiment_FR_REAL,001,26,
images/fcloud80-20_D1.7_4.tif,1.7,2,,,,,,,,,0,22,22,99,,,,,,,,,,,,,,,1,None,1,0.801,,,,,,,,,,,,,,,,,,,2019_Mar_15_1801,59.610670786920174,Cloud_Experiment_FR_REAL,001,26,
images/fcloud80-20_D1.2_4.tif,1.2,2,,,,,,,,,0,23,23,84,,,,,,,,,,,,,,,1,space,1,1.417,6.8249691,,,,,,,,,,,,,,,,,,2019_Mar_15_1801,59.610670786920174,Cloud_Experiment_FR_REAL,001,26,
images/fcloud_D1.2_6.tif,1.2,0,,,,,,,,,0,24,24,14,,,,,,,,,,,,,,,1,space,3,1.352,5.2618332,,,,,,,,,,,,,,,,,,2019_Mar_15_1801,59.610670786920174,Cloud_Experiment_FR_REAL,001,26,
images/fcloud65-35_D1_4.tif,1.0,1,,,,,,,,,0,25,25,42,,,,,,,,,,,,,,,None,None,None,11.141,,,,,,,,,,,,,,,,,,,2019_Mar_15_1801,59.610670786920174,Cloud_Experiment_FR_REAL,001,26,
images/fcloud65-35_D0.8_6.tif,0.8,1,,,,,,,,,0,26,26,38,,,,,,,,,,,,,,,None,None,None,20.5,,,,,,,,,,,,,,,,,,,2019_Mar_15_1801,59.610670786920174,Cloud_Experiment_FR_REAL,001,26,
images/fcloud_D1.2_4.tif,1.2,0,,,,,,,,,0,27,27,12,,,,,,,,,,,,,,,None,None,None,29.576,,,,,,,,,,,,,,,,,,,2019_Mar_15_1801,59.610670786920174,Cloud_Experiment_FR_REAL,001,26,
images/fcloud80-20_D1.3_4.tif,1.3,2,,,,,,,,,0,28,28,87,,,,,,,,,,,,,,,None,None,None,38.751,,,,,,,,,,,,,,,,,,,2019_Mar_15_1801,59.610670786920174,Cloud_Experiment_FR_REAL,001,26,
images/fcloud65-35_D1.5_6.tif,1.5,1,,,,,,,,,0,29,29,59,,,,,,,,,,,,,,,1,space,4,1.318,1.9323173,,,,,,,,,,,,,,,,,,2019_Mar_15_1801,59.610670786920174,Cloud_Experiment_FR_REAL,001,26,
images/fcloud80-20_D1_4.tif,1.0,2,,,,,,,,,0,30,30,78,,,,,,,,,,,,,,,None,None,None,11.925,,,,,,,,,,,,,,,,,,,2019_Mar_15_1801,59.610670786920174,Cloud_Experiment_FR_REAL,001,26,
images/fcloud80-20_D1.7_6.tif,1.7,2,,,,,,,,,0,31,31,101,,,,,,,,,,,,,,,2,space,2,3.267,4.5491468,,,,,,,,,,,,,,,,,,2019_Mar_15_1801,59.610670786920174,Cloud_Experiment_FR_REAL,001,26,
images/fcloud65-35_D1.1_4.tif,1.1,1,,,,,,,,,0,32,32,45,,,,,,,,,,,,,,,1,space,3,1.368,4.7124533,,,,,,,,,,,,,,,,,,2019_Mar_15_1801,59.610670786920174,Cloud_Experiment_FR_REAL,001,26,
images/fcloud_D0.8_4.tif,0.8,0,,,,,,,,,0,33,33,0,,,,,,,,,,,,,,,1,space,1,0.651,2.4997231,,,,,,,,,,,,,,,,,,2019_Mar_15_1801,59.610670786920174,Cloud_Experiment_FR_REAL,001,26,
images/fcloud80-20_D1.6_6.tif,1.6,2,,,,,,,,,0,34,34,98,,,,,,,,,,,,,,,1,space,2,2.018,3.5098775,,,,,,,,,,,,,,,,,,2019_Mar_15_1801,59.610670786920174,Cloud_Experiment_FR_REAL,001,26,
images/fcloud80-20_D1.2_6.tif,1.2,2,,,,,,,,,0,35,35,86,,,,,,,,,,,,,,,1,space,3,1.483,7.0659156,,,,,,,,,,,,,,,,,,2019_Mar_15_1801,59.610670786920174,Cloud_Experiment_FR_REAL,001,26,
images/fcloud65-35_D1.9_5.tif,1.9,1,,,,,,,,,0,36,36,70,,,,,,,,,,,,,,,None,None,None,12.36,,,,,,,,,,,,,,,,,,,2019_Mar_15_1801,59.610670786920174,Cloud_Experiment_FR_REAL,001,26,
images/fcloud80-20_D1.4_6.tif,1.4,2,,,,,,,,,0,37,37,92,,,,,,,,,,,,,,,2,space,2,1.318,5.8744181,,,,,,,,,,,,,,,,,,2019_Mar_15_1801,59.610670786920174,Cloud_Experiment_FR_REAL,001,26,
images/fcloud80-20_D1.2_5.tif,1.2,2,,,,,,,,,0,38,38,85,,,,,,,,,,,,,,,1,space,1,0.786,8.0323187,,,,,,,,,,,,,,,,,,2019_Mar_15_1801,59.610670786920174,Cloud_Experiment_FR_REAL,001,26,
images/fcloud_D1.6_4.tif,1.6,0,,,,,,,,,0,39,39,24,,,,,,,,,,,,,,,None,None,None,10.409,,,,,,,,,,,,,,,,,,,2019_Mar_15_1801,59.610670786920174,Cloud_Experiment_FR_REAL,001,26,
images/fcloud80-20_D1.5_6.tif,1.5,2,,,,,,,,,0,40,40,95,,,,,,,,,,,,,,,1,None,1,0.702,,,,,,,,,,,,,,,,,,,2019_Mar_15_1801,59.610670786920174,Cloud_Experiment_FR_REAL,001,26,
images/fcloud65-35_D1.9_6.tif,1.9,1,,,,,,,,,0,41,41,71,,,,,,,,,,,,,,,None,None,None,10.16,,,,,,,,,,,,,,,,,,,2019_Mar_15_1801,59.610670786920174,Cloud_Experiment_FR_REAL,001,26,
images/fcloud65-35_D1.2_5.tif,1.2,1,,,,,,,,,0,42,42,49,,,,,,,,,,,,,,,1,space,2,0.753,5.3830843,,,,,,,,,,,,,,,,,,2019_Mar_15_1801,59.610670786920174,Cloud_Experiment_FR_REAL,001,26,
images/fcloud65-35_D1.1_5.tif,1.1,1,,,,,,,,,0,43,43,46,,,,,,,,,,,,,,,None,None,None,10.11,,,,,,,,,,,,,,,,,,,2019_Mar_15_1801,59.610670786920174,Cloud_Experiment_FR_REAL,001,26,
images/fcloud65-35_D1.7_5.tif,1.7,1,,,,,,,,,0,44,44,64,,,,,,,,,,,,,,,1,space,3,1.334,2.0874877,,,,,,,,,,,,,,,,,,2019_Mar_15_1801,59.610670786920174,Cloud_Experiment_FR_REAL,001,26,
images/fcloud80-20_D1.8_6.tif,1.8,2,,,,,,,,,0,45,45,104,,,,,,,,,,,,,,,1,space,1,0.654,8.0863808,,,,,,,,,,,,,,,,,,2019_Mar_15_1801,59.610670786920174,Cloud_Experiment_FR_REAL,001,26,
images/fcloud80-20_D1.3_5.tif,1.3,2,,,,,,,,,0,46,46,88,,,,,,,,,,,,,,,None,None,None,9.909,,,,,,,,,,,,,,,,,,,2019_Mar_15_1801,59.610670786920174,Cloud_Experiment_FR_REAL,001,26,
images/fcloud80-20_D1.1_6.tif,1.1,2,,,,,,,,,0,47,47,83,,,,,,,,,,,,,,,1,space,3,2.55,3.7986385,,,,,,,,,,,,,,,,,,2019_Mar_15_1801,59.610670786920174,Cloud_Experiment_FR_REAL,001,26,
images/fcloud80-20_D1.6_4.tif,1.6,2,,,,,,,,,0,48,48,96,,,,,,,,,,,,,,,1,None,2,1.268,,,,,,,,,,,,,,,,,,,2019_Mar_15_1801,59.610670786920174,Cloud_Experiment_FR_REAL,001,26,
images/fcloud65-35_D1.9_4.tif,1.9,1,,,,,,,,,0,49,49,69,,,,,,,,,,,,,,,None,None,None,10.874,,,,,,,,,,,,,,,,,,,2019_Mar_15_1801,59.610670786920174,Cloud_Experiment_FR_REAL,001,26,
images/fcloud65-35_D1.1_6.tif,1.1,1,,,,,,,,,0,50,50,47,,,,,,,,,,,,,,,1,space,2,3.151,7.4419403,,,,,,,,,,,,,,,,,,2019_Mar_15_1801,59.610670786920174,Cloud_Experiment_FR_REAL,001,26,
images/fcloud_D0.8_6.tif,0.8,0,,,,,,,,,0,51,51,2,,,,,,,,,,,,,,,None,None,None,13.155,,,,,,,,,,,,,,,,,,,2019_Mar_15_1801,59.610670786920174,Cloud_Experiment_FR_REAL,001,26,
images/fcloud80-20_D1.5_5.tif,1.5,2,,,,,,,,,0,52,52,94,,,,,,,,,,,,,,,None,None,None,22.248,,,,,,,,,,,,,,,,,,,2019_Mar_15_1801,59.610670786920174,Cloud_Experiment_FR_REAL,001,26,
images/fcloud80-20_D1.4_5.tif,1.4,2,,,,,,,,,0,53,53,91,,,,,,,,,,,,,,,1,space,1,0.669,6.5225711,,,,,,,,,,,,,,,,,,2019_Mar_15_1801,59.610670786920174,Cloud_Experiment_FR_REAL,001,26,
images/fcloud_D1.8_5.tif,1.8,0,,,,,,,,,0,54,54,31,,,,,,,,,,,,,,,None,None,None,10.675,,,,,,,,,,,,,,,,,,,2019_Mar_15_1801,59.610670786920174,Cloud_Experiment_FR_REAL,001,26,
images/fcloud_D1.5_6.tif,1.5,0,,,,,,,,,0,55,55,23,,,,,,,,,,,,,,,1,None,1,0.835,,,,,,,,,,,,,,,,,,,2019_Mar_15_1801,59.610670786920174,Cloud_Experiment_FR_REAL,001,26,
images/fcloud65-35_D1.8_6.tif,1.8,1,,,,,,,,,0,56,56,68,,,,,,,,,,,,,,,None,None,None,10.176,,,,,,,,,,,,,,,,,,,2019_Mar_15_1801,59.610670786920174,Cloud_Experiment_FR_REAL,001,26,
images/fcloud_D1.8_6.tif,1.8,0,,,,,,,,,0,57,57,32,,,,,,,,,,,,,,,None,None,None,19.902,,,,,,,,,,,,,,,,,,,2019_Mar_15_1801,59.610670786920174,Cloud_Experiment_FR_REAL,001,26,
images/fcloud80-20_D1.1_4.tif,1.1,2,,,,,,,,,0,58,58,81,,,,,,,,,,,,,,,None,None,None,29.009,,,,,,,,,,,,,,,,,,,2019_Mar_15_1801,59.610670786920174,Cloud_Experiment_FR_REAL,001,26,
images/fcloud_D1.8_4.tif,1.8,0,,,,,,,,,0,59,59,30,,,,,,,,,,,,,,,1,space,1,0.704,7.3247865,,,,,,,,,,,,,,,,,,2019_Mar_15_1801,59.610670786920174,Cloud_Experiment_FR_REAL,001,26,
images/fcloud_D1_4.tif,1.0,0,,,,,,,,,0,60,60,6,,,,,,,,,,,,,,,1,space,4,1.468,3.7755202,,,,,,,,,,,,,,,,,,2019_Mar_15_1801,59.610670786920174,Cloud_Experiment_FR_REAL,001,26,
images/fcloud_D1.9_6.tif,1.9,0,,,,,,,,,0,61,61,35,,,,,,,,,,,,,,,None,None,None,13.774,,,,,,,,,,,,,,,,,,,2019_Mar_15_1801,59.610670786920174,Cloud_Experiment_FR_REAL,001,26,
images/fcloud65-35_D1.3_6.tif,1.3,1,,,,,,,,,0,62,62,53,,,,,,,,,,,,,,,1,space,1,0.872,5.8845971,,,,,,,,,,,,,,,,,,2019_Mar_15_1801,59.610670786920174,Cloud_Experiment_FR_REAL,001,26,
images/fcloud_D0.9_5.tif,0.9,0,,,,,,,,,0,63,63,4,,,,,,,,,,,,,,,1,space,1,0.617,6.5100933,,,,,,,,,,,,,,,,,,2019_Mar_15_1801,59.610670786920174,Cloud_Experiment_FR_REAL,001,26,
images/fcloud_D1.1_6.tif,1.1,0,,,,,,,,,0,64,64,11,,,,,,,,,,,,,,,None,None,None,10.143,,,,,,,,,,,,,,,,,,,2019_Mar_15_1801,59.610670786920174,Cloud_Experiment_FR_REAL,001,26,
images/fcloud_D1_6.tif,1.0,0,,,,,,,,,0,65,65,8,,,,,,,,,,,,,,,2,space,2,1.052,4.5299413,,,,,,,,,,,,,,,,,,2019_Mar_15_1801,59.610670786920174,Cloud_Experiment_FR_REAL,001,26,
images/fcloud80-20_D0.8_6.tif,0.8,2,,,,,,,,,0,66,66,74,,,,,,,,,,,,,,,None,None,None,11.508,,,,,,,,,,,,,,,,,,,2019_Mar_15_1801,59.610670786920174,Cloud_Experiment_FR_REAL,001,26,
images/fcloud80-20_D0.9_6.tif,0.9,2,,,,,,,,,0,67,67,77,,,,,,,,,,,,,,,None,None,None,24.547,,,,,,,,,,,,,,,,,,,2019_Mar_15_1801,59.610670786920174,Cloud_Experiment_FR_REAL,001,26,
images/fcloud_D1.4_5.tif,1.4,0,,,,,,,,,0,68,68,19,,,,,,,,,,,,,,,2,space,3,1.851,3.966007,,,,,,,,,,,,,,,,,,2019_Mar_15_1801,59.610670786920174,Cloud_Experiment_FR_REAL,001,26,
images/fcloud65-35_D1_6.tif,1.0,1,,,,,,,,,0,69,69,44,,,,,,,,,,,,,,,None,space,None,11.392,9.2830167,,,,,,,,,,,,,,,,,,2019_Mar_15_1801,59.610670786920174,Cloud_Experiment_FR_REAL,001,26,
images/fcloud65-35_D1.6_5.tif,1.6,1,,,,,,,,,0,70,70,61,,,,,,,,,,,,,,,None,None,None,22.015,,,,,,,,,,,,,,,,,,,2019_Mar_15_1801,59.610670786920174,Cloud_Experiment_FR_REAL,001,26,
images/fcloud_D1.3_6.tif,1.3,0,,,,,,,,,0,71,71,17,,,,,,,,,,,,,,,1,space,2,0.868,5.9251192,,,,,,,,,,,,,,,,,,2019_Mar_15_1801,59.610670786920174,Cloud_Experiment_FR_REAL,001,26,
images/fcloud65-35_D1.3_4.tif,1.3,1,,,,,,,,,0,72,72,51,,,,,,,,,,,,,,,2,space,2,1.716,5.644556,,,,,,,,,,,,,,,,,,2019_Mar_15_1801,59.610670786920174,Cloud_Experiment_FR_REAL,001,26,
images/fcloud_D1.5_4.tif,1.5,0,,,,,,,,,0,73,73,21,,,,,,,,,,,,,,,None,None,None,10.91,,,,,,,,,,,,,,,,,,,2019_Mar_15_1801,59.610670786920174,Cloud_Experiment_FR_REAL,001,26,
images/fcloud65-35_D1.2_6.tif,1.2,1,,,,,,,,,0,74,74,50,,,,,,,,,,,,,,,1,space,3,1.418,2.8627421,,,,,,,,,,,,,,,,,,2019_Mar_15_1801,59.610670786920174,Cloud_Experiment_FR_REAL,001,26,
images/fcloud80-20_D1.5_4.tif,1.5,2,,,,,,,,,0,75,75,93,,,,,,,,,,,,,,,1,space,3,1.068,5.0258876,,,,,,,,,,,,,,,,,,2019_Mar_15_1801,59.610670786920174,Cloud_Experiment_FR_REAL,001,26,
images/fcloud80-20_D1.3_6.tif,1.3,2,,,,,,,,,0,76,76,89,,,,,,,,,,,,,,,1,space,1,2.719,4.892244,,,,,,,,,,,,,,,,,,2019_Mar_15_1801,59.610670786920174,Cloud_Experiment_FR_REAL,001,26,
images/fcloud_D0.9_4.tif,0.9,0,,,,,,,,,0,77,77,3,,,,,,,,,,,,,,,None,None,None,12.108,,,,,,,,,,,,,,,,,,,2019_Mar_15_1801,59.610670786920174,Cloud_Experiment_FR_REAL,001,26,
images/fcloud65-35_D1.6_6.tif,1.6,1,,,,,,,,,0,78,78,62,,,,,,,,,,,,,,,None,None,None,21.467,,,,,,,,,,,,,,,,,,,2019_Mar_15_1801,59.610670786920174,Cloud_Experiment_FR_REAL,001,26,
images/fcloud65-35_D1.8_4.tif,1.8,1,,,,,,,,,0,79,79,66,,,,,,,,,,,,,,,1,space,1,1.252,5.0162992,,,,,,,,,,,,,,,,,,2019_Mar_15_1801,59.610670786920174,Cloud_Experiment_FR_REAL,001,26,
images/fcloud_D0.8_5.tif,0.8,0,,,,,,,,,0,80,80,1,,,,,,,,,,,,,,,1,space,3,1.435,5.7786028,,,,,,,,,,,,,,,,,,2019_Mar_15_1801,59.610670786920174,Cloud_Experiment_FR_REAL,001,26,
images/fcloud65-35_D1.3_5.tif,1.3,1,,,,,,,,,0,81,81,52,,,,,,,,,,,,,,,None,None,None,10.643,,,,,,,,,,,,,,,,,,,2019_Mar_15_1801,59.610670786920174,Cloud_Experiment_FR_REAL,001,26,
images/fcloud80-20_D1.9_4.tif,1.9,2,,,,,,,,,0,82,82,105,,,,,,,,,,,,,,,1,space,1,0.818,5.2301359,,,,,,,,,,,,,,,,,,2019_Mar_15_1801,59.610670786920174,Cloud_Experiment_FR_REAL,001,26,
images/fcloud_D1.3_4.tif,1.3,0,,,,,,,,,0,83,83,15,,,,,,,,,,,,,,,1,None,1,0.585,,,,,,,,,,,,,,,,,,,2019_Mar_15_1801,59.610670786920174,Cloud_Experiment_FR_REAL,001,26,
images/fcloud80-20_D1_6.tif,1.0,2,,,,,,,,,0,84,84,80,,,,,,,,,,,,,,,None,None,None,12.558,,,,,,,,,,,,,,,,,,,2019_Mar_15_1801,59.610670786920174,Cloud_Experiment_FR_REAL,001,26,
images/fcloud65-35_D0.9_4.tif,0.9,1,,,,,,,,,0,85,85,39,,,,,,,,,,,,,,,1,space,3,1.234,2.9826725,,,,,,,,,,,,,,,,,,2019_Mar_15_1801,59.610670786920174,Cloud_Experiment_FR_REAL,001,26,
images/fcloud_D1.3_5.tif,1.3,0,,,,,,,,,0,86,86,16,,,,,,,,,,,,,,,1,space,3,0.618,2.5461248,,,,,,,,,,,,,,,,,,2019_Mar_15_1801,59.610670786920174,Cloud_Experiment_FR_REAL,001,26,
images/fcloud65-35_D0.8_5.tif,0.8,1,,,,,,,,,0,87,87,37,,,,,,,,,,,,,,,None,None,None,10.41,,,,,,,,,,,,,,,,,,,2019_Mar_15_1801,59.610670786920174,Cloud_Experiment_FR_REAL,001,26,
images/fcloud80-20_D0.9_4.tif,0.9,2,,,,,,,,,0,88,88,75,,,,,,,,,,,,,,,1,space,3,4.182,4.9325297,,,,,,,,,,,,,,,,,,2019_Mar_15_1801,59.610670786920174,Cloud_Experiment_FR_REAL,001,26,
images/fcloud65-35_D0.9_6.tif,0.9,1,,,,,,,,,0,89,89,41,,,,,,,,,,,,,,,None,None,None,13.456,,,,,,,,,,,,,,,,,,,2019_Mar_15_1801,59.610670786920174,Cloud_Experiment_FR_REAL,001,26,
images/fcloud_D1.7_4.tif,1.7,0,,,,,,,,,0,90,90,27,,,,,,,,,,,,,,,1,space,2,0.568,4.2845751,,,,,,,,,,,,,,,,,,2019_Mar_15_1801,59.610670786920174,Cloud_Experiment_FR_REAL,001,26,
images/fcloud80-20_D0.9_5.tif,0.9,2,,,,,,,,,0,91,91,76,,,,,,,,,,,,,,,1,space,4,1.252,2.1534032,,,,,,,,,,,,,,,,,,2019_Mar_15_1801,59.610670786920174,Cloud_Experiment_FR_REAL,001,26,
images/fcloud65-35_D1.4_6.tif,1.4,1,,,,,,,,,0,92,92,56,,,,,,,,,,,,,,,None,None,None,10.544,,,,,,,,,,,,,,,,,,,2019_Mar_15_1801,59.610670786920174,Cloud_Experiment_FR_REAL,001,26,
images/fcloud_D1.6_6.tif,1.6,0,,,,,,,,,0,93,93,26,,,,,,,,,,,,,,,1,space,1,1.5,5.5968693,,,,,,,,,,,,,,,,,,2019_Mar_15_1801,59.610670786920174,Cloud_Experiment_FR_REAL,001,26,
images/fcloud65-35_D1.4_4.tif,1.4,1,,,,,,,,,0,94,94,54,,,,,,,,,,,,,,,None,None,None,13.905,,,,,,,,,,,,,,,,,,,2019_Mar_15_1801,59.610670786920174,Cloud_Experiment_FR_REAL,001,26,
images/fcloud_D1.6_5.tif,1.6,0,,,,,,,,,0,95,95,25,,,,,,,,,,,,,,,1,space,2,0.768,5.9433443,,,,,,,,,,,,,,,,,,2019_Mar_15_1801,59.610670786920174,Cloud_Experiment_FR_REAL,001,26,
images/fcloud65-35_D1.5_4.tif,1.5,1,,,,,,,,,0,96,96,57,,,,,,,,,,,,,,,None,None,None,10.043,,,,,,,,,,,,,,,,,,,2019_Mar_15_1801,59.610670786920174,Cloud_Experiment_FR_REAL,001,26,
images/fcloud_D1.1_4.tif,1.1,0,,,,,,,,,0,97,97,9,,,,,,,,,,,,,,,None,None,None,19.568,,,,,,,,,,,,,,,,,,,2019_Mar_15_1801,59.610670786920174,Cloud_Experiment_FR_REAL,001,26,
images/fcloud80-20_D0.8_4.tif,0.8,2,,,,,,,,,0,98,98,72,,,,,,,,,,,,,,,1,space,1,1.233,4.1839452,,,,,,,,,,,,,,,,,,2019_Mar_15_1801,59.610670786920174,Cloud_Experiment_FR_REAL,001,26,
images/fcloud65-35_D1.2_4.tif,1.2,1,,,,,,,,,0,99,99,48,,,,,,,,,,,,,,,None,None,None,10.463,,,,,,,,,,,,,,,,,,,2019_Mar_15_1801,59.610670786920174,Cloud_Experiment_FR_REAL,001,26,
images/fcloud80-20_D1.9_6.tif,1.9,2,,,,,,,,,0,100,100,107,,,,,,,,,,,,,,,None,None,None,19.734,,,,,,,,,,,,,,,,,,,2019_Mar_15_1801,59.610670786920174,Cloud_Experiment_FR_REAL,001,26,
images/fcloud80-20_D1.8_4.tif,1.8,2,,,,,,,,,0,101,101,102,,,,,,,,,,,,,,,None,None,None,29.259,,,,,,,,,,,,,,,,,,,2019_Mar_15_1801,59.610670786920174,Cloud_Experiment_FR_REAL,001,26,
images/fcloud65-35_D1.6_4.tif,1.6,1,,,,,,,,,0,102,102,60,,,,,,,,,,,,,,,1,space,1,1.418,4.8955755,,,,,,,,,,,,,,,,,,2019_Mar_15_1801,59.610670786920174,Cloud_Experiment_FR_REAL,001,26,
images/fcloud80-20_D1.4_4.tif,1.4,2,,,,,,,,,0,103,103,90,,,,,,,,,,,,,,,1,space,1,0.419,2.6859327,,,,,,,,,,,,,,,,,,2019_Mar_15_1801,59.610670786920174,Cloud_Experiment_FR_REAL,001,26,
images/fcloud80-20_D1_5.tif,1.0,2,,,,,,,,,0,104,104,79,,,,,,,,,,,,,,,None,None,None,9.944,,,,,,,,,,,,,,,,,,,2019_Mar_15_1801,59.610670786920174,Cloud_Experiment_FR_REAL,001,26,
images/fcloud80-20_D1.8_5.tif,1.8,2,,,,,,,,,0,105,105,103,,,,,,,,,,,,,,,None,None,None,19.816,,,,,,,,,,,,,,,,,,,2019_Mar_15_1801,59.610670786920174,Cloud_Experiment_FR_REAL,001,26,
images/fcloud_D1.4_4.tif,1.4,0,,,,,,,,,0,106,106,18,,,,,,,,,,,,,,,None,None,None,29.543,,,,,,,,,,,,,,,,,,,2019_Mar_15_1801,59.610670786920174,Cloud_Experiment_FR_REAL,001,26,
images/fcloud_D1.5_5.tif,1.5,0,,,,,,,,,0,107,107,22,,,,,,,,,,,,,,,None,None,None,38.867,,,,,,,,,,,,,,,,,,,2019_Mar_15_1801,59.610670786920174,Cloud_Experiment_FR_REAL,001,26,
,,,,,,,,,,,,,,,,,,,,,,,,,,,,,,,,,,,,,,,,,,,,,,space,4.214621,,,,2019_Mar_15_1801,59.610670786920174,Cloud_Experiment_FR_REAL,001,26,
,,,,,,,,,,,,,,,,,,,,,,,,,6,7.125,,,,,,,,,,,,,,,,,,,,,,,,,2019_Mar_15_1801,59.610670786920174,Cloud_Experiment_FR_REAL,001,26,
,,,,,,,,,,,,,,,,,,,,,,,,,,,,,,,,,,6,,,,,,,,,,,,,,,,,2019_Mar_15_1801,59.610670786920174,Cloud_Experiment_FR_REAL,001,26,
,,,,,,,,,,,,,,,,,,,,,,,,,,,,,,,,,,,5,,,,,,,,,,,,,,,,2019_Mar_15_1801,59.610670786920174,Cloud_Experiment_FR_REAL,001,26,
,,,,,,,,,,,,,,,,,,,,,,,,,,,,,,,,,,,,6,,,,,,,,,,,,,,,2019_Mar_15_1801,59.610670786920174,Cloud_Experiment_FR_REAL,001,26,
,,,,,,,,,,,,,,,,,,,,,,,,,,,,,,,,,,,,,4,,,,,,,,,,,,,,2019_Mar_15_1801,59.610670786920174,Cloud_Experiment_FR_REAL,001,26,
,,,,,,,,,,,,,,,,,,,,,,,,,,,,,,,,,,,,,,4,,,,,,,,,,,,,2019_Mar_15_1801,59.610670786920174,Cloud_Experiment_FR_REAL,001,26,
,,,,,,,,,,,,,,,,,,,,,,,,,,,,,,,,,,,,,,,5,,,,,,,,,,,,2019_Mar_15_1801,59.610670786920174,Cloud_Experiment_FR_REAL,001,26,
,,,,,,,,,,,,,,,,,,,,,,,,,,,,,,,,,,,,,,,,6,,,,,,,,,,,2019_Mar_15_1801,59.610670786920174,Cloud_Experiment_FR_REAL,001,26,
,,,,,,,,,,,,,,,,,,,,,,,,,,,,,,,,,,,,,,,,,7,,,,,,,,,,2019_Mar_15_1801,59.610670786920174,Cloud_Experiment_FR_REAL,001,26,
,,,,,,,,,,,,,,,,,,,,,,,,,,,,,,,,,,,,,,,,,,6,,,,,,,,,2019_Mar_15_1801,59.610670786920174,Cloud_Experiment_FR_REAL,001,26,
,,,,,,,,,,,,,,,,,,,,,,,,,,,,,,,,,,,,,,,,,,,3,,,,,,,,2019_Mar_15_1801,59.610670786920174,Cloud_Experiment_FR_REAL,001,26,
,,,,,,,,,,,,,,,,,,,,,,,,,,,,,,,,,,,,,,,,,,,,,,,,space,215.8132223,,2019_Mar_15_1801,59.610670786920174,Cloud_Experiment_FR_REAL,001,26,
images/fcloud65-35_D1.2_9.tif,1.2,1,,,,,,,,,,,,,0,0,0,66,,,,,,,,,,,1,space,1,0.619,7.4039034,,,,,,,,,,,,,,,,,,2019_Mar_15_1801,59.610670786920174,Cloud_Experiment_FR_REAL,001,26,
images/fcloud65-35_D1.4_7.tif,1.4,1,,,,,,,,,,,,,0,1,1,72,,,,,,,,,,,1,space,2,1.036,4.7257274,,,,,,,,,,,,,,,,,,2019_Mar_15_1801,59.610670786920174,Cloud_Experiment_FR_REAL,001,26,
images/fcloud_D1.4_8.tif,1.4,0,,,,,,,,,,,,,0,2,2,25,,,,,,,,,,,None,None,None,10.54,,,,,,,,,,,,,,,,,,,2019_Mar_15_1801,59.610670786920174,Cloud_Experiment_FR_REAL,001,26,
images/fcloud65-35_D1.9_10.tif,1.9,1,,,,,,,,,,,,,0,3,3,95,,,,,,,,,,,2,space,1,1.301,7.1217209,,,,,,,,,,,,,,,,,,2019_Mar_15_1801,59.610670786920174,Cloud_Experiment_FR_REAL,001,26,
images/fcloud80-20_D1.8_10.tif,1.8,2,,,,,,,,,,,,,0,4,4,139,,,,,,,,,,,None,None,None,11.543,,,,,,,,,,,,,,,,,,,2019_Mar_15_1801,59.610670786920174,Cloud_Experiment_FR_REAL,001,26,
images/fcloud80-20_D1.2_9.tif,1.2,2,,,,,,,,,,,,,0,5,5,114,,,,,,,,,,,None,None,None,21.47,,,,,,,,,,,,,,,,,,,2019_Mar_15_1801,59.610670786920174,Cloud_Experiment_FR_REAL,001,26,
images/fcloud80-20_D1_10.tif,1.0,2,,,,,,,,,,,,,0,6,6,107,,,,,,,,,,,1,space,1,0.986,4.2419323,,,,,,,,,,,,,,,,,,2019_Mar_15_1801,59.610670786920174,Cloud_Experiment_FR_REAL,001,26,
images/fcloud80-20_D1_9.tif,1.0,2,,,,,,,,,,,,,0,7,7,106,,,,,,,,,,,1,space,1,0.57,7.5228703,,,,,,,,,,,,,,,,,,2019_Mar_15_1801,59.610670786920174,Cloud_Experiment_FR_REAL,001,26,
images/fcloud65-35_D1.8_10.tif,1.8,1,,,,,,,,,,,,,0,8,8,91,,,,,,,,,,,1,space,1,0.835,6.6365206,,,,,,,,,,,,,,,,,,2019_Mar_15_1801,59.610670786920174,Cloud_Experiment_FR_REAL,001,26,
images/fcloud80-20_D1.5_10.tif,1.5,2,,,,,,,,,,,,,0,9,9,127,,,,,,,,,,,None,None,None,10.874,,,,,,,,,,,,,,,,,,,2019_Mar_15_1801,59.610670786920174,Cloud_Experiment_FR_REAL,001,26,
images/fcloud_D1.7_10.tif,1.7,0,,,,,,,,,,,,,0,10,10,39,,,,,,,,,,,1,space,1,0.686,4.528971,,,,,,,,,,,,,,,,,,2019_Mar_15_1801,59.610670786920174,Cloud_Experiment_FR_REAL,001,26,
images/fcloud80-20_D1.8_9.tif,1.8,2,,,,,,,,,,,,,0,11,11,138,,,,,,,,,,,None,None,None,10.427,,,,,,,,,,,,,,,,,,,2019_Mar_15_1801,59.610670786920174,Cloud_Experiment_FR_REAL,001,26,
images/fcloud_D1.8_9.tif,1.8,0,,,,,,,,,,,,,0,12,12,42,,,,,,,,,,,1,space,1,1.036,4.2433985,,,,,,,,,,,,,,,,,,2019_Mar_15_1801,59.610670786920174,Cloud_Experiment_FR_REAL,001,26,
images/fcloud80-20_D1_7.tif,1.0,2,,,,,,,,,,,,,0,13,13,104,,,,,,,,,,,3,space,2,1.252,2.9583871,,,,,,,,,,,,,,,,,,2019_Mar_15_1801,59.610670786920174,Cloud_Experiment_FR_REAL,001,26,
images/fcloud_D1.4_10.tif,1.4,0,,,,,,,,,,,,,0,14,14,27,,,,,,,,,,,None,None,None,10.508,,,,,,,,,,,,,,,,,,,2019_Mar_15_1801,59.610670786920174,Cloud_Experiment_FR_REAL,001,26,
images/fcloud_D1.3_10.tif,1.3,0,,,,,,,,,,,,,0,15,15,23,,,,,,,,,,,None,None,None,19.584,,,,,,,,,,,,,,,,,,,2019_Mar_15_1801,59.610670786920174,Cloud_Experiment_FR_REAL,001,26,
images/fcloud65-35_D1.8_8.tif,1.8,1,,,,,,,,,,,,,0,16,16,89,,,,,,,,,,,None,None,None,28.842,,,,,,,,,,,,,,,,,,,2019_Mar_15_1801,59.610670786920174,Cloud_Experiment_FR_REAL,001,26,
images/fcloud65-35_D1.1_9.tif,1.1,1,,,,,,,,,,,,,0,17,17,62,,,,,,,,,,,1,space,1,0.918,4.344883,,,,,,,,,,,,,,,,,,2019_Mar_15_1801,59.610670786920174,Cloud_Experiment_FR_REAL,001,26,
images/fcloud80-20_D1.4_10.tif,1.4,2,,,,,,,,,,,,,0,18,18,123,,,,,,,,,,,None,None,None,10.391,,,,,,,,,,,,,,,,,,,2019_Mar_15_1801,59.610670786920174,Cloud_Experiment_FR_REAL,001,26,
images/fcloud_D1.2_8.tif,1.2,0,,,,,,,,,,,,,0,19,19,17,,,,,,,,,,,1,None,1,0.719,,,,,,,,,,,,,,,,,,,2019_Mar_15_1801,59.610670786920174,Cloud_Experiment_FR_REAL,001,26,
images/fcloud_D1.1_9.tif,1.1,0,,,,,,,,,,,,,0,20,20,14,,,,,,,,,,,None,space,None,10.276,0.4064984,,,,,,,,,,,,,,,,,,2019_Mar_15_1801,59.610670786920174,Cloud_Experiment_FR_REAL,001,26,
images/fcloud65-35_D1_10.tif,1.0,1,,,,,,,,,,,,,0,21,21,59,,,,,,,,,,,1,space,2,0.868,5.2755661,,,,,,,,,,,,,,,,,,2019_Mar_15_1801,59.610670786920174,Cloud_Experiment_FR_REAL,001,26,
images/fcloud80-20_D1.2_8.tif,1.2,2,,,,,,,,,,,,,0,22,22,113,,,,,,,,,,,1,space,1,0.702,6.3777969,,,,,,,,,,,,,,,,,,2019_Mar_15_1801,59.610670786920174,Cloud_Experiment_FR_REAL,001,26,
images/fcloud65-35_D1.1_7.tif,1.1,1,,,,,,,,,,,,,0,23,23,60,,,,,,,,,,,1,space,2,0.785,3.3227898,,,,,,,,,,,,,,,,,,2019_Mar_15_1801,59.610670786920174,Cloud_Experiment_FR_REAL,001,26,
images/fcloud80-20_D1.9_10.tif,1.9,2,,,,,,,,,,,,,0,24,24,143,,,,,,,,,,,1,space,1,1.867,11.0211476,,,,,,,,,,,,,,,,,,2019_Mar_15_1801,59.610670786920174,Cloud_Experiment_FR_REAL,001,26,
images/fcloud80-20_D0.9_9.tif,0.9,2,,,,,,,,,,,,,0,25,25,102,,,,,,,,,,,None,None,None,12.993,,,,,,,,,,,,,,,,,,,2019_Mar_15_1801,59.610670786920174,Cloud_Experiment_FR_REAL,001,26,
images/fcloud65-35_D1_7.tif,1.0,1,,,,,,,,,,,,,0,26,26,56,,,,,,,,,,,None,None,None,24.398,,,,,,,,,,,,,,,,,,,2019_Mar_15_1801,59.610670786920174,Cloud_Experiment_FR_REAL,001,26,
images/fcloud65-35_D1.4_10.tif,1.4,1,,,,,,,,,,,,,0,27,27,75,,,,,,,,,,,None,None,None,33.738,,,,,,,,,,,,,,,,,,,2019_Mar_15_1801,59.610670786920174,Cloud_Experiment_FR_REAL,001,26,
images/fcloud_D1_8.tif,1.0,0,,,,,,,,,,,,,0,28,28,9,,,,,,,,,,,None,None,None,45.313,,,,,,,,,,,,,,,,,,,2019_Mar_15_1801,59.610670786920174,Cloud_Experiment_FR_REAL,001,26,
images/fcloud80-20_D1.1_10.tif,1.1,2,,,,,,,,,,,,,0,29,29,111,,,,,,,,,,,None,None,None,54.586,,,,,,,,,,,,,,,,,,,2019_Mar_15_1801,59.610670786920174,Cloud_Experiment_FR_REAL,001,26,
images/fcloud80-20_D1.7_7.tif,1.7,2,,,,,,,,,,,,,0,30,30,132,,,,,,,,,,,None,None,None,63.646,,,,,,,,,,,,,,,,,,,2019_Mar_15_1801,59.610670786920174,Cloud_Experiment_FR_REAL,001,26,
images/fcloud80-20_D1.4_7.tif,1.4,2,,,,,,,,,,,,,0,31,31,120,,,,,,,,,,,1,None,1,0.935,,,,,,,,,,,,,,,,,,,2019_Mar_15_1801,59.610670786920174,Cloud_Experiment_FR_REAL,001,26,
images/fcloud_D1.7_9.tif,1.7,0,,,,,,,,,,,,,0,32,32,38,,,,,,,,,,,1,space,1,0.636,6.8219366,,,,,,,,,,,,,,,,,,2019_Mar_15_1801,59.610670786920174,Cloud_Experiment_FR_REAL,001,26,
images/fcloud80-20_D1.7_9.tif,1.7,2,,,,,,,,,,,,,0,33,33,134,,,,,,,,,,,1,None,1,0.935,,,,,,,,,,,,,,,,,,,2019_Mar_15_1801,59.610670786920174,Cloud_Experiment_FR_REAL,001,26,
images/fcloud65-35_D1.7_9.tif,1.7,1,,,,,,,,,,,,,0,34,34,86,,,,,,,,,,,None,None,None,10.526,,,,,,,,,,,,,,,,,,,2019_Mar_15_1801,59.610670786920174,Cloud_Experiment_FR_REAL,001,26,
images/fcloud80-20_D1.6_7.tif,1.6,2,,,,,,,,,,,,,0,35,35,128,,,,,,,,,,,1,space,1,0.986,4.1015413,,,,,,,,,,,,,,,,,,2019_Mar_15_1801,59.610670786920174,Cloud_Experiment_FR_REAL,001,26,
images/fcloud_D1.9_7.tif,1.9,0,,,,,,,,,,,,,0,36,36,44,,,,,,,,,,,None,None,None,10.691,,,,,,,,,,,,,,,,,,,2019_Mar_15_1801,59.610670786920174,Cloud_Experiment_FR_REAL,001,26,
images/fcloud80-20_D1.2_10.tif,1.2,2,,,,,,,,,,,,,0,37,37,115,,,,,,,,,,,1,None,1,1.036,,,,,,,,,,,,,,,,,,,2019_Mar_15_1801,59.610670786920174,Cloud_Experiment_FR_REAL,001,26,
images/fcloud65-35_D1.5_7.tif,1.5,1,,,,,,,,,,,,,0,38,38,76,,,,,,,,,,,1,None,2,2.4,,,,,,,,,,,,,,,,,,,2019_Mar_15_1801,59.610670786920174,Cloud_Experiment_FR_REAL,001,26,
images/fcloud80-20_D1.6_10.tif,1.6,2,,,,,,,,,,,,,0,39,39,131,,,,,,,,,,,None,None,None,11.873,,,,,,,,,,,,,,,,,,,2019_Mar_15_1801,59.610670786920174,Cloud_Experiment_FR_REAL,001,26,
images/fcloud_D0.8_7.tif,0.8,0,,,,,,,,,,,,,0,40,40,0,,,,,,,,,,,1,space,2,0.885,6.7764817,,,,,,,,,,,,,,,,,,2019_Mar_15_1801,59.610670786920174,Cloud_Experiment_FR_REAL,001,26,
images/fcloud65-35_D1.6_9.tif,1.6,1,,,,,,,,,,,,,0,41,41,82,,,,,,,,,,,None,None,None,10.258,,,,,,,,,,,,,,,,,,,2019_Mar_15_1801,59.610670786920174,Cloud_Experiment_FR_REAL,001,26,
images/fcloud80-20_D1.1_7.tif,1.1,2,,,,,,,,,,,,,0,42,42,108,,,,,,,,,,,None,None,None,19.584,,,,,,,,,,,,,,,,,,,2019_Mar_15_1801,59.610670786920174,Cloud_Experiment_FR_REAL,001,26,
images/fcloud65-35_D1.3_10.tif,1.3,1,,,,,,,,,,,,,0,43,43,71,,,,,,,,,,,None,space,None,29.543,7.9789988,,,,,,,,,,,,,,,,,,2019_Mar_15_1801,59.610670786920174,Cloud_Experiment_FR_REAL,001,26,
images/fcloud65-35_D1.1_8.tif,1.1,1,,,,,,,,,,,,,0,44,44,61,,,,,,,,,,,1,space,1,0.804,6.5323146,,,,,,,,,,,,,,,,,,2019_Mar_15_1801,59.610670786920174,Cloud_Experiment_FR_REAL,001,26,
images/fcloud_D1.9_8.tif,1.9,0,,,,,,,,,,,,,0,45,45,45,,,,,,,,,,,1,None,1,0.602,,,,,,,,,,,,,,,,,,,2019_Mar_15_1801,59.610670786920174,Cloud_Experiment_FR_REAL,001,26,
images/fcloud80-20_D1.5_7.tif,1.5,2,,,,,,,,,,,,,0,46,46,124,,,,,,,,,,,None,None,None,10.481,,,,,,,,,,,,,,,,,,,2019_Mar_15_1801,59.610670786920174,Cloud_Experiment_FR_REAL,001,26,
images/fcloud80-20_D1.5_9.tif,1.5,2,,,,,,,,,,,,,0,47,47,126,,,,,,,,,,,None,None,None,19.918,,,,,,,,,,,,,,,,,,,2019_Mar_15_1801,59.610670786920174,Cloud_Experiment_FR_REAL,001,26,
images/fcloud80-20_D0.8_8.tif,0.8,2,,,,,,,,,,,,,0,48,48,97,,,,,,,,,,,2,space,2,2.566,7.5061102,,,,,,,,,,,,,,,,,,2019_Mar_15_1801,59.610670786920174,Cloud_Experiment_FR_REAL,001,26,
images/fcloud_D1_10.tif,1.0,0,,,,,,,,,,,,,0,49,49,11,,,,,,,,,,,1,space,3,1.984,5.7917798,,,,,,,,,,,,,,,,,,2019_Mar_15_1801,59.610670786920174,Cloud_Experiment_FR_REAL,001,26,
images/fcloud65-35_D1.2_7.tif,1.2,1,,,,,,,,,,,,,0,50,50,64,,,,,,,,,,,2,space,4,3.784,5.6530504,,,,,,,,,,,,,,,,,,2019_Mar_15_1801,59.610670786920174,Cloud_Experiment_FR_REAL,001,26,
images/fcloud_D1.2_7.tif,1.2,0,,,,,,,,,,,,,0,51,51,16,,,,,,,,,,,1,space,2,3.2,4.4290704,,,,,,,,,,,,,,,,,,2019_Mar_15_1801,59.610670786920174,Cloud_Experiment_FR_REAL,001,26,
images/fcloud_D1.3_8.tif,1.3,0,,,,,,,,,,,,,0,52,52,21,,,,,,,,,,,None,None,None,15.605,,,,,,,,,,,,,,,,,,,2019_Mar_15_1801,59.610670786920174,Cloud_Experiment_FR_REAL,001,26,
images/fcloud65-35_D0.9_8.tif,0.9,1,,,,,,,,,,,,,0,53,53,53,,,,,,,,,,,1,space,1,0.802,6.5416792,,,,,,,,,,,,,,,,,,2019_Mar_15_1801,59.610670786920174,Cloud_Experiment_FR_REAL,001,26,
images/fcloud65-35_D0.8_10.tif,0.8,1,,,,,,,,,,,,,0,54,54,51,,,,,,,,,,,None,None,None,10.111,,,,,,,,,,,,,,,,,,,2019_Mar_15_1801,59.610670786920174,Cloud_Experiment_FR_REAL,001,26,
images/fcloud_D1.6_10.tif,1.6,0,,,,,,,,,,,,,0,55,55,35,,,,,,,,,,,None,None,None,19.851,,,,,,,,,,,,,,,,,,,2019_Mar_15_1801,59.610670786920174,Cloud_Experiment_FR_REAL,001,26,
images/fcloud65-35_D1.7_10.tif,1.7,1,,,,,,,,,,,,,0,56,56,87,,,,,,,,,,,None,None,None,29.907,,,,,,,,,,,,,,,,,,,2019_Mar_15_1801,59.610670786920174,Cloud_Experiment_FR_REAL,001,26,
images/fcloud_D1.2_10.tif,1.2,0,,,,,,,,,,,,,0,57,57,19,,,,,,,,,,,None,None,None,40.35,,,,,,,,,,,,,,,,,,,2019_Mar_15_1801,59.610670786920174,Cloud_Experiment_FR_REAL,001,26,
images/fcloud_D0.8_9.tif,0.8,0,,,,,,,,,,,,,0,58,58,2,,,,,,,,,,,1,space,2,0.869,7.1345507,,,,,,,,,,,,,,,,,,2019_Mar_15_1801,59.610670786920174,Cloud_Experiment_FR_REAL,001,26,
images/fcloud65-35_D0.9_9.tif,0.9,1,,,,,,,,,,,,,0,59,59,54,,,,,,,,,,,None,None,None,10.875,,,,,,,,,,,,,,,,,,,2019_Mar_15_1801,59.610670786920174,Cloud_Experiment_FR_REAL,001,26,
images/fcloud80-20_D0.9_8.tif,0.9,2,,,,,,,,,,,,,0,60,60,101,,,,,,,,,,,1,space,3,2.333,3.9982807,,,,,,,,,,,,,,,,,,2019_Mar_15_1801,59.610670786920174,Cloud_Experiment_FR_REAL,001,26,
images/fcloud_D1.9_10.tif,1.9,0,,,,,,,,,,,,,0,61,61,47,,,,,,,,,,,None,None,None,11.509,,,,,,,,,,,,,,,,,,,2019_Mar_15_1801,59.610670786920174,Cloud_Experiment_FR_REAL,001,26,
images/fcloud_D1.6_7.tif,1.6,0,,,,,,,,,,,,,0,62,62,32,,,,,,,,,,,None,None,None,22.314,,,,,,,,,,,,,,,,,,,2019_Mar_15_1801,59.610670786920174,Cloud_Experiment_FR_REAL,001,26,
images/fcloud80-20_D1.3_8.tif,1.3,2,,,,,,,,,,,,,0,63,63,117,,,,,,,,,,,None,None,None,31.758,,,,,,,,,,,,,,,,,,,2019_Mar_15_1801,59.610670786920174,Cloud_Experiment_FR_REAL,001,26,
images/fcloud_D1.7_7.tif,1.7,0,,,,,,,,,,,,,0,64,64,36,,,,,,,,,,,1,space,2,2.735,7.6295354,,,,,,,,,,,,,,,,,,2019_Mar_15_1801,59.610670786920174,Cloud_Experiment_FR_REAL,001,26,
images/fcloud80-20_D1.3_9.tif,1.3,2,,,,,,,,,,,,,0,65,65,118,,,,,,,,,,,1,space,2,1.185,6.8003139,,,,,,,,,,,,,,,,,,2019_Mar_15_1801,59.610670786920174,Cloud_Experiment_FR_REAL,001,26,
images/fcloud65-35_D0.9_10.tif,0.9,1,,,,,,,,,,,,,0,66,66,55,,,,,,,,,,,1,None,1,0.518,,,,,,,,,,,,,,,,,,,2019_Mar_15_1801,59.610670786920174,Cloud_Experiment_FR_REAL,001,26,
images/fcloud_D1.5_8.tif,1.5,0,,,,,,,,,,,,,0,67,67,29,,,,,,,,,,,1,None,1,0.668,,,,,,,,,,,,,,,,,,,2019_Mar_15_1801,59.610670786920174,Cloud_Experiment_FR_REAL,001,26,
images/fcloud_D1.5_7.tif,1.5,0,,,,,,,,,,,,,0,68,68,28,,,,,,,,,,,None,None,None,10.326,,,,,,,,,,,,,,,,,,,2019_Mar_15_1801,59.610670786920174,Cloud_Experiment_FR_REAL,001,26,
images/fcloud80-20_D1.4_8.tif,1.4,2,,,,,,,,,,,,,0,69,69,121,,,,,,,,,,,1,None,3,1.419,,,,,,,,,,,,,,,,,,,2019_Mar_15_1801,59.610670786920174,Cloud_Experiment_FR_REAL,001,26,
images/fcloud80-20_D1.6_9.tif,1.6,2,,,,,,,,,,,,,0,70,70,130,,,,,,,,,,,None,None,None,10.759,,,,,,,,,,,,,,,,,,,2019_Mar_15_1801,59.610670786920174,Cloud_Experiment_FR_REAL,001,26,
images/fcloud80-20_D1.9_9.tif,1.9,2,,,,,,,,,,,,,0,71,71,142,,,,,,,,,,,None,None,None,19.933,,,,,,,,,,,,,,,,,,,2019_Mar_15_1801,59.610670786920174,Cloud_Experiment_FR_REAL,001,26,
images/fcloud65-35_D1.5_8.tif,1.5,1,,,,,,,,,,,,,0,72,72,77,,,,,,,,,,,1,space,4,4.516,4.6894515,,,,,,,,,,,,,,,,,,2019_Mar_15_1801,59.610670786920174,Cloud_Experiment_FR_REAL,001,26,
images/fcloud80-20_D1.4_9.tif,1.4,2,,,,,,,,,,,,,0,73,73,122,,,,,,,,,,,None,None,None,14.439,,,,,,,,,,,,,,,,,,,2019_Mar_15_1801,59.610670786920174,Cloud_Experiment_FR_REAL,001,26,
images/fcloud80-20_D0.9_7.tif,0.9,2,,,,,,,,,,,,,0,74,74,100,,,,,,,,,,,1,None,1,1.402,,,,,,,,,,,,,,,,,,,2019_Mar_15_1801,59.610670786920174,Cloud_Experiment_FR_REAL,001,26,
images/fcloud65-35_D1.2_10.tif,1.2,1,,,,,,,,,,,,,0,75,75,67,,,,,,,,,,,1,space,1,1.035,5.6192837,,,,,,,,,,,,,,,,,,2019_Mar_15_1801,59.610670786920174,Cloud_Experiment_FR_REAL,001,26,
images/fcloud_D0.8_10.tif,0.8,0,,,,,,,,,,,,,0,76,76,3,,,,,,,,,,,1,space,5,2.801,6.6244659,,,,,,,,,,,,,,,,,,2019_Mar_15_1801,59.610670786920174,Cloud_Experiment_FR_REAL,001,26,
images/fcloud65-35_D1_8.tif,1.0,1,,,,,,,,,,,,,0,77,77,57,,,,,,,,,,,None,None,None,12.407,,,,,,,,,,,,,,,,,,,2019_Mar_15_1801,59.610670786920174,Cloud_Experiment_FR_REAL,001,26,
images/fcloud65-35_D0.8_7.tif,0.8,1,,,,,,,,,,,,,0,78,78,48,,,,,,,,,,,None,None,None,21.633,,,,,,,,,,,,,,,,,,,2019_Mar_15_1801,59.610670786920174,Cloud_Experiment_FR_REAL,001,26,
images/fcloud65-35_D1.6_10.tif,1.6,1,,,,,,,,,,,,,0,79,79,83,,,,,,,,,,,1,space,1,0.704,7.7148085,,,,,,,,,,,,,,,,,,2019_Mar_15_1801,59.610670786920174,Cloud_Experiment_FR_REAL,001,26,
images/fcloud_D1.2_9.tif,1.2,0,,,,,,,,,,,,,0,80,80,18,,,,,,,,,,,None,None,None,10.009,,,,,,,,,,,,,,,,,,,2019_Mar_15_1801,59.610670786920174,Cloud_Experiment_FR_REAL,001,26,
images/fcloud80-20_D1.7_10.tif,1.7,2,,,,,,,,,,,,,0,81,81,135,,,,,,,,,,,None,None,None,19.367,,,,,,,,,,,,,,,,,,,2019_Mar_15_1801,59.610670786920174,Cloud_Experiment_FR_REAL,001,26,
images/fcloud65-35_D1.8_7.tif,1.8,1,,,,,,,,,,,,,0,82,82,88,,,,,,,,,,,None,None,None,28.88,,,,,,,,,,,,,,,,,,,2019_Mar_15_1801,59.610670786920174,Cloud_Experiment_FR_REAL,001,26,
images/fcloud80-20_D1.3_7.tif,1.3,2,,,,,,,,,,,,,0,83,83,116,,,,,,,,,,,None,None,None,38.417,,,,,,,,,,,,,,,,,,,2019_Mar_15_1801,59.610670786920174,Cloud_Experiment_FR_REAL,001,26,
images/fcloud65-35_D1.3_7.tif,1.3,1,,,,,,,,,,,,,0,84,84,68,,,,,,,,,,,1,None,3,1.352,,,,,,,,,,,,,,,,,,,2019_Mar_15_1801,59.610670786920174,Cloud_Experiment_FR_REAL,001,26,
images/fcloud65-35_D1_9.tif,1.0,1,,,,,,,,,,,,,0,85,85,58,,,,,,,,,,,1,None,1,0.586,,,,,,,,,,,,,,,,,,,2019_Mar_15_1801,59.610670786920174,Cloud_Experiment_FR_REAL,001,26,
images/fcloud65-35_D1.6_7.tif,1.6,1,,,,,,,,,,,,,0,86,86,80,,,,,,,,,,,2,space,2,0.886,5.5051769,,,,,,,,,,,,,,,,,,2019_Mar_15_1801,59.610670786920174,Cloud_Experiment_FR_REAL,001,26,
images/fcloud65-35_D1.1_10.tif,1.1,1,,,,,,,,,,,,,0,87,87,63,,,,,,,,,,,1,space,3,1.485,7.473155,,,,,,,,,,,,,,,,,,2019_Mar_15_1801,59.610670786920174,Cloud_Experiment_FR_REAL,001,26,
images/fcloud80-20_D0.8_7.tif,0.8,2,,,,,,,,,,,,,0,88,88,96,,,,,,,,,,,None,None,None,11.877,,,,,,,,,,,,,,,,,,,2019_Mar_15_1801,59.610670786920174,Cloud_Experiment_FR_REAL,001,26,
images/fcloud_D1.9_9.tif,1.9,0,,,,,,,,,,,,,0,89,89,46,,,,,,,,,,,None,None,None,21.532,,,,,,,,,,,,,,,,,,,2019_Mar_15_1801,59.610670786920174,Cloud_Experiment_FR_REAL,001,26,
images/fcloud65-35_D1.5_9.tif,1.5,1,,,,,,,,,,,,,0,90,90,78,,,,,,,,,,,None,None,None,30.86,,,,,,,,,,,,,,,,,,,2019_Mar_15_1801,59.610670786920174,Cloud_Experiment_FR_REAL,001,26,
images/fcloud65-35_D1.2_8.tif,1.2,1,,,,,,,,,,,,,0,91,91,65,,,,,,,,,,,1,space,1,1.617,8.1928198,,,,,,,,,,,,,,,,,,2019_Mar_15_1801,59.610670786920174,Cloud_Experiment_FR_REAL,001,26,
images/fcloud_D1.6_9.tif,1.6,0,,,,,,,,,,,,,0,92,92,34,,,,,,,,,,,1,space,3,1.135,6.0122993,,,,,,,,,,,,,,,,,,2019_Mar_15_1801,59.610670786920174,Cloud_Experiment_FR_REAL,001,26,
images/fcloud_D1.4_9.tif,1.4,0,,,,,,,,,,,,,0,93,93,26,,,,,,,,,,,None,None,None,11.091,,,,,,,,,,,,,,,,,,,2019_Mar_15_1801,59.610670786920174,Cloud_Experiment_FR_REAL,001,26,
images/fcloud65-35_D0.8_9.tif,0.8,1,,,,,,,,,,,,,0,94,94,50,,,,,,,,,,,1,space,1,1.435,7.0408767,,,,,,,,,,,,,,,,,,2019_Mar_15_1801,59.610670786920174,Cloud_Experiment_FR_REAL,001,26,
images/fcloud65-35_D1.9_8.tif,1.9,1,,,,,,,,,,,,,0,95,95,93,,,,,,,,,,,1,space,1,0.502,8.7485129,,,,,,,,,,,,,,,,,,2019_Mar_15_1801,59.610670786920174,Cloud_Experiment_FR_REAL,001,26,
images/fcloud_D1.1_7.tif,1.1,0,,,,,,,,,,,,,0,96,96,12,,,,,,,,,,,None,None,None,9.793,,,,,,,,,,,,,,,,,,,2019_Mar_15_1801,59.610670786920174,Cloud_Experiment_FR_REAL,001,26,
images/fcloud_D1.3_9.tif,1.3,0,,,,,,,,,,,,,0,97,97,22,,,,,,,,,,,None,None,None,18.885,,,,,,,,,,,,,,,,,,,2019_Mar_15_1801,59.610670786920174,Cloud_Experiment_FR_REAL,001,26,
images/fcloud65-35_D1.4_9.tif,1.4,1,,,,,,,,,,,,,0,98,98,74,,,,,,,,,,,None,None,None,28.11,,,,,,,,,,,,,,,,,,,2019_Mar_15_1801,59.610670786920174,Cloud_Experiment_FR_REAL,001,26,
images/fcloud80-20_D1.9_7.tif,1.9,2,,,,,,,,,,,,,0,99,99,140,,,,,,,,,,,1,space,2,3.483,6.1428392,,,,,,,,,,,,,,,,,,2019_Mar_15_1801,59.610670786920174,Cloud_Experiment_FR_REAL,001,26,
images/fcloud_D1.4_7.tif,1.4,0,,,,,,,,,,,,,0,100,100,24,,,,,,,,,,,None,None,None,12.625,,,,,,,,,,,,,,,,,,,2019_Mar_15_1801,59.610670786920174,Cloud_Experiment_FR_REAL,001,26,
images/fcloud80-20_D1_8.tif,1.0,2,,,,,,,,,,,,,0,101,101,105,,,,,,,,,,,None,None,None,22.366,,,,,,,,,,,,,,,,,,,2019_Mar_15_1801,59.610670786920174,Cloud_Experiment_FR_REAL,001,26,
images/fcloud80-20_D1.1_8.tif,1.1,2,,,,,,,,,,,,,0,102,102,109,,,,,,,,,,,None,None,None,31.591,,,,,,,,,,,,,,,,,,,2019_Mar_15_1801,59.610670786920174,Cloud_Experiment_FR_REAL,001,26,
images/fcloud80-20_D1.2_7.tif,1.2,2,,,,,,,,,,,,,0,103,103,112,,,,,,,,,,,1,space,2,1.7,7.3437953,,,,,,,,,,,,,,,,,,2019_Mar_15_1801,59.610670786920174,Cloud_Experiment_FR_REAL,001,26,
images/fcloud_D1.5_10.tif,1.5,0,,,,,,,,,,,,,0,104,104,31,,,,,,,,,,,None,None,None,15.005,,,,,,,,,,,,,,,,,,,2019_Mar_15_1801,59.610670786920174,Cloud_Experiment_FR_REAL,001,26,
images/fcloud_D1.5_9.tif,1.5,0,,,,,,,,,,,,,0,105,105,30,,,,,,,,,,,None,None,None,25.113,,,,,,,,,,,,,,,,,,,2019_Mar_15_1801,59.610670786920174,Cloud_Experiment_FR_REAL,001,26,
images/fcloud_D0.9_8.tif,0.9,0,,,,,,,,,,,,,0,106,106,5,,,,,,,,,,,1,None,1,2.467,,,,,,,,,,,,,,,,,,,2019_Mar_15_1801,59.610670786920174,Cloud_Experiment_FR_REAL,001,26,
images/fcloud80-20_D0.8_9.tif,0.8,2,,,,,,,,,,,,,0,107,107,98,,,,,,,,,,,None,None,None,11.558,,,,,,,,,,,,,,,,,,,2019_Mar_15_1801,59.610670786920174,Cloud_Experiment_FR_REAL,001,26,
images/fcloud_D0.9_10.tif,0.9,0,,,,,,,,,,,,,0,108,108,7,,,,,,,,,,,None,None,None,21.066,,,,,,,,,,,,,,,,,,,2019_Mar_15_1801,59.610670786920174,Cloud_Experiment_FR_REAL,001,26,
images/fcloud65-35_D1.6_8.tif,1.6,1,,,,,,,,,,,,,0,109,109,81,,,,,,,,,,,None,None,None,31.558,,,,,,,,,,,,,,,,,,,2019_Mar_15_1801,59.610670786920174,Cloud_Experiment_FR_REAL,001,26,
images/fcloud80-20_D1.8_8.tif,1.8,2,,,,,,,,,,,,,0,110,110,137,,,,,,,,,,,1,None,1,1.002,,,,,,,,,,,,,,,,,,,2019_Mar_15_1801,59.610670786920174,Cloud_Experiment_FR_REAL,001,26,
images/fcloud80-20_D1.3_10.tif,1.3,2,,,,,,,,,,,,,0,111,111,119,,,,,,,,,,,None,None,None,10.593,,,,,,,,,,,,,,,,,,,2019_Mar_15_1801,59.610670786920174,Cloud_Experiment_FR_REAL,001,26,
images/fcloud_D1_7.tif,1.0,0,,,,,,,,,,,,,0,112,112,8,,,,,,,,,,,3,space,3,4.931,4.0349152,,,,,,,,,,,,,,,,,,2019_Mar_15_1801,59.610670786920174,Cloud_Experiment_FR_REAL,001,26,
images/fcloud65-35_D1.9_7.tif,1.9,1,,,,,,,,,,,,,0,113,113,92,,,,,,,,,,,None,None,None,14.174,,,,,,,,,,,,,,,,,,,2019_Mar_15_1801,59.610670786920174,Cloud_Experiment_FR_REAL,001,26,
images/fcloud65-35_D1.3_8.tif,1.3,1,,,,,,,,,,,,,0,114,114,69,,,,,,,,,,,1,space,1,0.57,6.7156818,,,,,,,,,,,,,,,,,,2019_Mar_15_1801,59.610670786920174,Cloud_Experiment_FR_REAL,001,26,
images/fcloud_D1.8_8.tif,1.8,0,,,,,,,,,,,,,0,115,115,41,,,,,,,,,,,None,None,None,9.842,,,,,,,,,,,,,,,,,,,2019_Mar_15_1801,59.610670786920174,Cloud_Experiment_FR_REAL,001,26,
images/fcloud80-20_D1.7_8.tif,1.7,2,,,,,,,,,,,,,0,116,116,133,,,,,,,,,,,1,space,1,0.485,8.0576286,,,,,,,,,,,,,,,,,,2019_Mar_15_1801,59.610670786920174,Cloud_Experiment_FR_REAL,001,26,
images/fcloud80-20_D1.8_7.tif,1.8,2,,,,,,,,,,,,,0,117,117,136,,,,,,,,,,,1,space,1,0.436,7.6874259,,,,,,,,,,,,,,,,,,2019_Mar_15_1801,59.610670786920174,Cloud_Experiment_FR_REAL,001,26,
images/fcloud65-35_D1.7_8.tif,1.7,1,,,,,,,,,,,,,0,118,118,85,,,,,,,,,,,None,None,None,10.691,,,,,,,,,,,,,,,,,,,2019_Mar_15_1801,59.610670786920174,Cloud_Experiment_FR_REAL,001,26,
images/fcloud_D1.1_10.tif,1.1,0,,,,,,,,,,,,,0,119,119,15,,,,,,,,,,,1,space,2,0.951,5.2713455,,,,,,,,,,,,,,,,,,2019_Mar_15_1801,59.610670786920174,Cloud_Experiment_FR_REAL,001,26,
images/fcloud_D0.9_7.tif,0.9,0,,,,,,,,,,,,,0,120,120,4,,,,,,,,,,,2,space,2,1.67,4.5472405,,,,,,,,,,,,,,,,,,2019_Mar_15_1801,59.610670786920174,Cloud_Experiment_FR_REAL,001,26,
images/fcloud80-20_D0.9_10.tif,0.9,2,,,,,,,,,,,,,0,121,121,103,,,,,,,,,,,None,None,None,11.807,,,,,,,,,,,,,,,,,,,2019_Mar_15_1801,59.610670786920174,Cloud_Experiment_FR_REAL,001,26,
images/fcloud80-20_D1.5_8.tif,1.5,2,,,,,,,,,,,,,0,122,122,125,,,,,,,,,,,None,None,None,22.082,,,,,,,,,,,,,,,,,,,2019_Mar_15_1801,59.610670786920174,Cloud_Experiment_FR_REAL,001,26,
images/fcloud_D0.8_8.tif,0.8,0,,,,,,,,,,,,,0,123,123,1,,,,,,,,,,,2,space,2,0.971,3.8967658,,,,,,,,,,,,,,,,,,2019_Mar_15_1801,59.610670786920174,Cloud_Experiment_FR_REAL,001,26,
images/fcloud80-20_D0.8_10.tif,0.8,2,,,,,,,,,,,,,0,124,124,99,,,,,,,,,,,None,None,None,10.042,,,,,,,,,,,,,,,,,,,2019_Mar_15_1801,59.610670786920174,Cloud_Experiment_FR_REAL,001,26,
images/fcloud_D1.8_10.tif,1.8,0,,,,,,,,,,,,,0,125,125,43,,,,,,,,,,,None,None,None,19.817,,,,,,,,,,,,,,,,,,,2019_Mar_15_1801,59.610670786920174,Cloud_Experiment_FR_REAL,001,26,
images/fcloud65-35_D1.3_9.tif,1.3,1,,,,,,,,,,,,,0,126,126,70,,,,,,,,,,,None,None,None,29.077,,,,,,,,,,,,,,,,,,,2019_Mar_15_1801,59.610670786920174,Cloud_Experiment_FR_REAL,001,26,
images/fcloud_D1.3_7.tif,1.3,0,,,,,,,,,,,,,0,127,127,20,,,,,,,,,,,1,None,1,0.569,,,,,,,,,,,,,,,,,,,2019_Mar_15_1801,59.610670786920174,Cloud_Experiment_FR_REAL,001,26,
images/fcloud65-35_D0.9_7.tif,0.9,1,,,,,,,,,,,,,0,128,128,52,,,,,,,,,,,1,space,1,0.736,5.1497065,,,,,,,,,,,,,,,,,,2019_Mar_15_1801,59.610670786920174,Cloud_Experiment_FR_REAL,001,26,
images/fcloud80-20_D1.1_9.tif,1.1,2,,,,,,,,,,,,,0,129,129,110,,,,,,,,,,,None,None,None,10.042,,,,,,,,,,,,,,,,,,,2019_Mar_15_1801,59.610670786920174,Cloud_Experiment_FR_REAL,001,26,
images/fcloud80-20_D1.6_8.tif,1.6,2,,,,,,,,,,,,,0,130,130,129,,,,,,,,,,,None,None,None,19.467,,,,,,,,,,,,,,,,,,,2019_Mar_15_1801,59.610670786920174,Cloud_Experiment_FR_REAL,001,26,
images/fcloud_D1_9.tif,1.0,0,,,,,,,,,,,,,0,131,131,10,,,,,,,,,,,1,space,1,1.952,6.6391955,,,,,,,,,,,,,,,,,,2019_Mar_15_1801,59.610670786920174,Cloud_Experiment_FR_REAL,001,26,
images/fcloud65-35_D1.9_9.tif,1.9,1,,,,,,,,,,,,,0,132,132,94,,,,,,,,,,,None,None,None,12.658,,,,,,,,,,,,,,,,,,,2019_Mar_15_1801,59.610670786920174,Cloud_Experiment_FR_REAL,001,26,
images/fcloud80-20_D1.9_8.tif,1.9,2,,,,,,,,,,,,,0,133,133,141,,,,,,,,,,,None,None,None,22.399,,,,,,,,,,,,,,,,,,,2019_Mar_15_1801,59.610670786920174,Cloud_Experiment_FR_REAL,001,26,
images/fcloud65-35_D1.5_10.tif,1.5,1,,,,,,,,,,,,,0,134,134,79,,,,,,,,,,,None,None,None,32.44,,,,,,,,,,,,,,,,,,,2019_Mar_15_1801,59.610670786920174,Cloud_Experiment_FR_REAL,001,26,
images/fcloud65-35_D1.8_9.tif,1.8,1,,,,,,,,,,,,,0,135,135,90,,,,,,,,,,,None,None,None,41.533,,,,,,,,,,,,,,,,,,,2019_Mar_15_1801,59.610670786920174,Cloud_Experiment_FR_REAL,001,26,
images/fcloud65-35_D1.7_7.tif,1.7,1,,,,,,,,,,,,,0,136,136,84,,,,,,,,,,,None,None,None,50.674,,,,,,,,,,,,,,,,,,,2019_Mar_15_1801,59.610670786920174,Cloud_Experiment_FR_REAL,001,26,
images/fcloud65-35_D0.8_8.tif,0.8,1,,,,,,,,,,,,,0,137,137,49,,,,,,,,,,,None,None,None,59.601,,,,,,,,,,,,,,,,,,,2019_Mar_15_1801,59.610670786920174,Cloud_Experiment_FR_REAL,001,26,
images/fcloud65-35_D1.4_8.tif,1.4,1,,,,,,,,,,,,,0,138,138,73,,,,,,,,,,,1,None,1,1.002,,,,,,,,,,,,,,,,,,,2019_Mar_15_1801,59.610670786920174,Cloud_Experiment_FR_REAL,001,26,
images/fcloud_D0.9_9.tif,0.9,0,,,,,,,,,,,,,0,139,139,6,,,,,,,,,,,1,space,2,1.684,4.1854084,,,,,,,,,,,,,,,,,,2019_Mar_15_1801,59.610670786920174,Cloud_Experiment_FR_REAL,001,26,
images/fcloud_D1.6_8.tif,1.6,0,,,,,,,,,,,,,0,140,140,33,,,,,,,,,,,None,None,None,13.058,,,,,,,,,,,,,,,,,,,2019_Mar_15_1801,59.610670786920174,Cloud_Experiment_FR_REAL,001,26,
images/fcloud_D1.1_8.tif,1.1,0,,,,,,,,,,,,,0,141,141,13,,,,,,,,,,,None,None,None,22.333,,,,,,,,,,,,,,,,,,,2019_Mar_15_1801,59.610670786920174,Cloud_Experiment_FR_REAL,001,26,
images/fcloud_D1.8_7.tif,1.8,0,,,,,,,,,,,,,0,142,142,40,,,,,,,,,,,None,None,None,31.974,,,,,,,,,,,,,,,,,,,2019_Mar_15_1801,59.610670786920174,Cloud_Experiment_FR_REAL,001,26,
images/fcloud_D1.7_8.tif,1.7,0,,,,,,,,,,,,,0,143,143,37,,,,,,,,,,,1,None,1,1.136,,,,,,,,,,,,,,,,,,,2019_Mar_15_1801,59.610670786920174,Cloud_Experiment_FR_REAL,001,26,
,,,,,,,,,,,,,,,,,,,,,,,,,4,8.65,,,,,,,,,,,,,,,,,,,,,,,,,2019_Mar_15_1801,59.610670786920174,Cloud_Experiment_FR_REAL,001,26,
,,,,,,,,,,,,,,,,,,,,,,,,,,,,,,,,,,5,,,,,,,,,,,,,,,,,2019_Mar_15_1801,59.610670786920174,Cloud_Experiment_FR_REAL,001,26,
,,,,,,,,,,,,,,,,,,,,,,,,,,,,,,,,,,,5,,,,,,,,,,,,,,,,2019_Mar_15_1801,59.610670786920174,Cloud_Experiment_FR_REAL,001,26,
,,,,,,,,,,,,,,,,,,,,,,,,,,,,,,,,,,,,4,,,,,,,,,,,,,,,2019_Mar_15_1801,59.610670786920174,Cloud_Experiment_FR_REAL,001,26,
,,,,,,,,,,,,,,,,,,,,,,,,,,,,,,,,,,,,,4,,,,,,,,,,,,,,2019_Mar_15_1801,59.610670786920174,Cloud_Experiment_FR_REAL,001,26,
,,,,,,,,,,,,,,,,,,,,,,,,,,,,,,,,,,,,,,4,,,,,,,,,,,,,2019_Mar_15_1801,59.610670786920174,Cloud_Experiment_FR_REAL,001,26,
,,,,,,,,,,,,,,,,,,,,,,,,,,,,,,,,,,,,,,,4,,,,,,,,,,,,2019_Mar_15_1801,59.610670786920174,Cloud_Experiment_FR_REAL,001,26,
,,,,,,,,,,,,,,,,,,,,,,,,,,,,,,,,,,,,,,,,6,,,,,,,,,,,2019_Mar_15_1801,59.610670786920174,Cloud_Experiment_FR_REAL,001,26,
,,,,,,,,,,,,,,,,,,,,,,,,,,,,,,,,,,,,,,,,,7,,,,,,,,,,2019_Mar_15_1801,59.610670786920174,Cloud_Experiment_FR_REAL,001,26,
,,,,,,,,,,,,,,,,,,,,,,,,,,,,,,,,,,,,,,,,,,7,,,,,,,,,2019_Mar_15_1801,59.610670786920174,Cloud_Experiment_FR_REAL,001,26,
,,,,,,,,,,,,,,,,,,,,,,,,,,,,,,,,,,,,,,,,,,,2,,,,,,,,2019_Mar_15_1801,59.610670786920174,Cloud_Experiment_FR_REAL,001,26,
,,,,,,,,,,,,,,,,,,,,,,,,,,,,,,,,,,,,,,,,,,,,,,,,,,4,2019_Mar_15_1801,59.610670786920174,Cloud_Experiment_FR_REAL,001,26,
