ImageFile,FD,Contrast,trials_4.thisRepN,trials_4.thisTrialN,trials_4.thisN,trials_4.thisIndex,trials.thisRepN,trials.thisTrialN,trials.thisN,trials.thisIndex,trials_2.thisRepN,trials_2.thisTrialN,trials_2.thisN,trials_2.thisIndex,trials_3.thisRepN,trials_3.thisTrialN,trials_3.thisN,trials_3.thisIndex,end_instructions.keys,end_instructions.rt,key_resp_4.keys,key_resp_4.rt,key_resp_6.keys,key_resp_6.rt,Fatigue.response,Fatigue.rt,key_resp_5.keys,key_resp_5.rt,n_objets.response,reaction_time.keys,vividness.response,vividness.rt,reaction_time.rt,Flow01.response,Flow02.response,Flow03.response,Flow04.response,Flow05.response,Flow06.response,Flow07.response,Flow08.response,Flow09.response,Flow10.response,key_resp_2.keys,key_resp_2.rt,key_resp_8.keys,key_resp_8.rt,key_resp_3.keys,key_resp_3.rt,Redondance_question.response,date,frameRate,expName,session,participant,
,,,,,,,,,,,,,,,,,,,space,8.0758046,,,,,,,,,,,,,,,,,,,,,,,,,,,,,,,2019_Mar_22_1630,60.36842851967742,Cloud_Experiment_FR_REAL,001,27,
,,,,,,,,,,,,,,,,,,,,,space,64.0792763,,,,,,,,,,,,,,,,,,,,,,,,,,,,,2019_Mar_22_1630,60.36842851967742,Cloud_Experiment_FR_REAL,001,27,
,,,,,,,,,,,,,,,,,,,,,,,space,8.8597427,,,,,,,,,,,,,,,,,,,,,,,,,,,2019_Mar_22_1630,60.36842851967742,Cloud_Experiment_FR_REAL,001,27,
,,,,,,,,,,,,,,,,,,,,,,,,,4,218.376,,,,,,,,,,,,,,,,,,,,,,,,,2019_Mar_22_1630,60.36842851967742,Cloud_Experiment_FR_REAL,001,27,
,,,,,,,,,,,,,,,,,,,,,,,,,,,space,2.5810274,,,,,,,,,,,,,,,,,,,,,,,2019_Mar_22_1630,60.36842851967742,Cloud_Experiment_FR_REAL,001,27,
pratique/fcloud65-35_D1.3_30,1.3,1,0,0,0,6,,,,,,,,,,,,,,,,,,,,,,,None,None,None,314.663,,,,,,,,,,,,,,,,,,,2019_Mar_22_1630,60.36842851967742,Cloud_Experiment_FR_REAL,001,27,
pratique/fcloud_D1.4_30,1.4,0,0,1,1,1,,,,,,,,,,,,,,,,,,,,,,,5,space,3,34.589,11.2045353,,,,,,,,,,,,,,,,,,2019_Mar_22_1630,60.36842851967742,Cloud_Experiment_FR_REAL,001,27,
pratique/fcloud80-20_D1.5_30,1.5,2,0,2,2,8,,,,,,,,,,,,,,,,,,,,,,,3,space,2,2.814,5.896801,,,,,,,,,,,,,,,,,,2019_Mar_22_1630,60.36842851967742,Cloud_Experiment_FR_REAL,001,27,
pratique/fcloud65-35_D1.2_30,1.2,1,0,3,3,3,,,,,,,,,,,,,,,,,,,,,,,2,space,5,2.4,5.7234677,,,,,,,,,,,,,,,,,,2019_Mar_22_1630,60.36842851967742,Cloud_Experiment_FR_REAL,001,27,
pratique/fcloud65-35_D1.9_29,1.9,1,0,4,4,7,,,,,,,,,,,,,,,,,,,,,,,2,space,3,2.285,5.1316775,,,,,,,,,,,,,,,,,,2019_Mar_22_1630,60.36842851967742,Cloud_Experiment_FR_REAL,001,27,
pratique/fcloud_D1.6_28,1.6,0,0,5,5,5,,,,,,,,,,,,,,,,,,,,,,,5,space,5,3.433,1.6676365,,,,,,,,,,,,,,,,,,2019_Mar_22_1630,60.36842851967742,Cloud_Experiment_FR_REAL,001,27,
pratique/fcloud_D0.8_30,0.8,0,0,6,6,0,,,,,,,,,,,,,,,,,,,,,,,2,space,3,1.535,1.6283447,,,,,,,,,,,,,,,,,,2019_Mar_22_1630,60.36842851967742,Cloud_Experiment_FR_REAL,001,27,
pratique/fcloud65-35_D1.6_30,1.6,1,0,7,7,2,,,,,,,,,,,,,,,,,,,,,,,3,space,4,2.467,2.5413125,,,,,,,,,,,,,,,,,,2019_Mar_22_1630,60.36842851967742,Cloud_Experiment_FR_REAL,001,27,
pratique/fcloud80-20_D1_30,1.0,2,0,8,8,9,,,,,,,,,,,,,,,,,,,,,,,1,space,3,1.85,5.6259305,,,,,,,,,,,,,,,,,,2019_Mar_22_1630,60.36842851967742,Cloud_Experiment_FR_REAL,001,27,
pratique/fcloud80-20_D1.8_30,1.8,2,0,9,9,4,,,,,,,,,,,,,,,,,,,,,,,3,space,3,1.534,5.1666189,,,,,,,,,,,,,,,,,,2019_Mar_22_1630,60.36842851967742,Cloud_Experiment_FR_REAL,001,27,
,,,,,,,,,,,,,,,,,,,,,,,,,,,,,,,,,,3,,,,,,,,,,,,,,,,,2019_Mar_22_1630,60.36842851967742,Cloud_Experiment_FR_REAL,001,27,
,,,,,,,,,,,,,,,,,,,,,,,,,,,,,,,,,,,3,,,,,,,,,,,,,,,,2019_Mar_22_1630,60.36842851967742,Cloud_Experiment_FR_REAL,001,27,
,,,,,,,,,,,,,,,,,,,,,,,,,,,,,,,,,,,,4,,,,,,,,,,,,,,,2019_Mar_22_1630,60.36842851967742,Cloud_Experiment_FR_REAL,001,27,
,,,,,,,,,,,,,,,,,,,,,,,,,,,,,,,,,,,,,2,,,,,,,,,,,,,,2019_Mar_22_1630,60.36842851967742,Cloud_Experiment_FR_REAL,001,27,
,,,,,,,,,,,,,,,,,,,,,,,,,,,,,,,,,,,,,,3,,,,,,,,,,,,,2019_Mar_22_1630,60.36842851967742,Cloud_Experiment_FR_REAL,001,27,
,,,,,,,,,,,,,,,,,,,,,,,,,,,,,,,,,,,,,,,2,,,,,,,,,,,,2019_Mar_22_1630,60.36842851967742,Cloud_Experiment_FR_REAL,001,27,
,,,,,,,,,,,,,,,,,,,,,,,,,,,,,,,,,,,,,,,,4,,,,,,,,,,,2019_Mar_22_1630,60.36842851967742,Cloud_Experiment_FR_REAL,001,27,
,,,,,,,,,,,,,,,,,,,,,,,,,,,,,,,,,,,,,,,,,4,,,,,,,,,,2019_Mar_22_1630,60.36842851967742,Cloud_Experiment_FR_REAL,001,27,
,,,,,,,,,,,,,,,,,,,,,,,,,,,,,,,,,,,,,,,,,,5,,,,,,,,,2019_Mar_22_1630,60.36842851967742,Cloud_Experiment_FR_REAL,001,27,
,,,,,,,,,,,,,,,,,,,,,,,,,,,,,,,,,,,,,,,,,,,2,,,,,,,,2019_Mar_22_1630,60.36842851967742,Cloud_Experiment_FR_REAL,001,27,
,,,,,,,,,,,,,,,,,,,,,,,,,,,,,,,,,,,,,,,,,,,,space,1.5003466,,,,,,2019_Mar_22_1630,60.36842851967742,Cloud_Experiment_FR_REAL,001,27,
images/fcloud80-20_D0.9_3.tif,0.9,2,,,,,0,0,0,77,,,,,,,,,,,,,,,,,,,1,space,1,1.434,4.0573344,,,,,,,,,,,,,,,,,,2019_Mar_22_1630,60.36842851967742,Cloud_Experiment_FR_REAL,001,27,
images/fcloud65-35_D1.4_3.tif,1.4,1,,,,,0,1,1,56,,,,,,,,,,,,,,,,,,,3,space,3,2.801,2.4523225,,,,,,,,,,,,,,,,,,2019_Mar_22_1630,60.36842851967742,Cloud_Experiment_FR_REAL,001,27,
images/fcloud80-20_D1.2_1.tif,1.2,2,,,,,0,2,2,84,,,,,,,,,,,,,,,,,,,1,None,1,2.551,,,,,,,,,,,,,,,,,,,2019_Mar_22_1630,60.36842851967742,Cloud_Experiment_FR_REAL,001,27,
images/fcloud65-35_D1.1_3.tif,1.1,1,,,,,0,3,3,47,,,,,,,,,,,,,,,,,,,3,space,5,1.652,1.3588899,,,,,,,,,,,,,,,,,,2019_Mar_22_1630,60.36842851967742,Cloud_Experiment_FR_REAL,001,27,
images/fcloud80-20_D0.9_2.tif,0.9,2,,,,,0,4,4,76,,,,,,,,,,,,,,,,,,,2,space,3,1.085,6.439407,,,,,,,,,,,,,,,,,,2019_Mar_22_1630,60.36842851967742,Cloud_Experiment_FR_REAL,001,27,
images/fcloud_D0.8_2.tif,0.8,0,,,,,0,5,5,1,,,,,,,,,,,,,,,,,,,4,space,5,0.869,2.7142884,,,,,,,,,,,,,,,,,,2019_Mar_22_1630,60.36842851967742,Cloud_Experiment_FR_REAL,001,27,
images/fcloud80-20_D1.7_1.tif,1.7,2,,,,,0,6,6,99,,,,,,,,,,,,,,,,,,,2,space,4,1.069,2.8885301,,,,,,,,,,,,,,,,,,2019_Mar_22_1630,60.36842851967742,Cloud_Experiment_FR_REAL,001,27,
images/fcloud65-35_D1.2_2.tif,1.2,1,,,,,0,7,7,49,,,,,,,,,,,,,,,,,,,3,space,4,0.952,4.7897952,,,,,,,,,,,,,,,,,,2019_Mar_22_1630,60.36842851967742,Cloud_Experiment_FR_REAL,001,27,
images/fcloud80-20_D1.3_2.tif,1.3,2,,,,,0,8,8,88,,,,,,,,,,,,,,,,,,,3,space,2,0.82,4.31748,,,,,,,,,,,,,,,,,,2019_Mar_22_1630,60.36842851967742,Cloud_Experiment_FR_REAL,001,27,
images/fcloud65-35_D1.6_2.tif,1.6,1,,,,,0,9,9,61,,,,,,,,,,,,,,,,,,,4,space,4,2.735,3.6286697,,,,,,,,,,,,,,,,,,2019_Mar_22_1630,60.36842851967742,Cloud_Experiment_FR_REAL,001,27,
images/fcloud80-20_D1.8_3.tif,1.8,2,,,,,0,10,10,104,,,,,,,,,,,,,,,,,,,1,space,1,0.885,1.9753715,,,,,,,,,,,,,,,,,,2019_Mar_22_1630,60.36842851967742,Cloud_Experiment_FR_REAL,001,27,
images/fcloud65-35_D0.8_3.tif,0.8,1,,,,,0,11,11,38,,,,,,,,,,,,,,,,,,,2,space,1,1.101,5.0079109,,,,,,,,,,,,,,,,,,2019_Mar_22_1630,60.36842851967742,Cloud_Experiment_FR_REAL,001,27,
images/fcloud65-35_D1.7_1.tif,1.7,1,,,,,0,12,12,63,,,,,,,,,,,,,,,,,,,3,space,4,2.235,1.8929262,,,,,,,,,,,,,,,,,,2019_Mar_22_1630,60.36842851967742,Cloud_Experiment_FR_REAL,001,27,
images/fcloud65-35_D1.5_2.tif,1.5,1,,,,,0,13,13,58,,,,,,,,,,,,,,,,,,,3,space,4,1.902,2.7331806,,,,,,,,,,,,,,,,,,2019_Mar_22_1630,60.36842851967742,Cloud_Experiment_FR_REAL,001,27,
images/fcloud65-35_D1.9_3.tif,1.9,1,,,,,0,14,14,71,,,,,,,,,,,,,,,,,,,1,space,3,1.769,7.6406622,,,,,,,,,,,,,,,,,,2019_Mar_22_1630,60.36842851967742,Cloud_Experiment_FR_REAL,001,27,
images/fcloud65-35_D1.8_2.tif,1.8,1,,,,,0,15,15,67,,,,,,,,,,,,,,,,,,,1,space,1,1.217,7.316662,,,,,,,,,,,,,,,,,,2019_Mar_22_1630,60.36842851967742,Cloud_Experiment_FR_REAL,001,27,
images/fcloud65-35_D1.7_3.tif,1.7,1,,,,,0,16,16,65,,,,,,,,,,,,,,,,,,,3,space,4,1.968,4.4155514,,,,,,,,,,,,,,,,,,2019_Mar_22_1630,60.36842851967742,Cloud_Experiment_FR_REAL,001,27,
images/fcloud80-20_D1.9_2.tif,1.9,2,,,,,0,17,17,106,,,,,,,,,,,,,,,,,,,2,space,4,2.749,4.6757224,,,,,,,,,,,,,,,,,,2019_Mar_22_1630,60.36842851967742,Cloud_Experiment_FR_REAL,001,27,
images/fcloud_D1.9_1.tif,1.9,0,,,,,0,18,18,33,,,,,,,,,,,,,,,,,,,3,space,3,2.134,2.5417953,,,,,,,,,,,,,,,,,,2019_Mar_22_1630,60.36842851967742,Cloud_Experiment_FR_REAL,001,27,
images/fcloud80-20_D1.2_3.tif,1.2,2,,,,,0,19,19,86,,,,,,,,,,,,,,,,,,,4,space,4,1.702,1.4721041,,,,,,,,,,,,,,,,,,2019_Mar_22_1630,60.36842851967742,Cloud_Experiment_FR_REAL,001,27,
images/fcloud_D1.1_2.tif,1.1,0,,,,,0,20,20,10,,,,,,,,,,,,,,,,,,,1,space,2,1.519,6.7020208,,,,,,,,,,,,,,,,,,2019_Mar_22_1630,60.36842851967742,Cloud_Experiment_FR_REAL,001,27,
images/fcloud65-35_D1.3_1.tif,1.3,1,,,,,0,21,21,51,,,,,,,,,,,,,,,,,,,3,space,3,1.552,2.9999685,,,,,,,,,,,,,,,,,,2019_Mar_22_1630,60.36842851967742,Cloud_Experiment_FR_REAL,001,27,
images/fcloud_D1.5_3.tif,1.5,0,,,,,0,22,22,23,,,,,,,,,,,,,,,,,,,2,space,2,1.835,5.2790622,,,,,,,,,,,,,,,,,,2019_Mar_22_1630,60.36842851967742,Cloud_Experiment_FR_REAL,001,27,
images/fcloud65-35_D1.1_1.tif,1.1,1,,,,,0,23,23,45,,,,,,,,,,,,,,,,,,,1,space,1,0.886,6.6898618,,,,,,,,,,,,,,,,,,2019_Mar_22_1630,60.36842851967742,Cloud_Experiment_FR_REAL,001,27,
images/fcloud_D1.6_2.tif,1.6,0,,,,,0,24,24,25,,,,,,,,,,,,,,,,,,,4,space,5,1.735,4.0161857,,,,,,,,,,,,,,,,,,2019_Mar_22_1630,60.36842851967742,Cloud_Experiment_FR_REAL,001,27,
images/fcloud80-20_D1.8_2.tif,1.8,2,,,,,0,25,25,103,,,,,,,,,,,,,,,,,,,3,space,3,3.483,6.3703826,,,,,,,,,,,,,,,,,,2019_Mar_22_1630,60.36842851967742,Cloud_Experiment_FR_REAL,001,27,
images/fcloud65-35_D1.9_1.tif,1.9,1,,,,,0,26,26,69,,,,,,,,,,,,,,,,,,,4,space,2,2.084,3.9285225,,,,,,,,,,,,,,,,,,2019_Mar_22_1630,60.36842851967742,Cloud_Experiment_FR_REAL,001,27,
images/fcloud80-20_D0.8_2.tif,0.8,2,,,,,0,27,27,73,,,,,,,,,,,,,,,,,,,1,space,4,1.801,1.2934865,,,,,,,,,,,,,,,,,,2019_Mar_22_1630,60.36842851967742,Cloud_Experiment_FR_REAL,001,27,
images/fcloud80-20_D1.1_3.tif,1.1,2,,,,,0,28,28,83,,,,,,,,,,,,,,,,,,,3,space,4,1.884,3.4148259,,,,,,,,,,,,,,,,,,2019_Mar_22_1630,60.36842851967742,Cloud_Experiment_FR_REAL,001,27,
images/fcloud_D0.9_1.tif,0.9,0,,,,,0,29,29,3,,,,,,,,,,,,,,,,,,,2,space,4,0.885,3.2534928,,,,,,,,,,,,,,,,,,2019_Mar_22_1630,60.36842851967742,Cloud_Experiment_FR_REAL,001,27,
images/fcloud_D0.9_3.tif,0.9,0,,,,,0,30,30,5,,,,,,,,,,,,,,,,,,,4,space,5,0.984,2.0438831,,,,,,,,,,,,,,,,,,2019_Mar_22_1630,60.36842851967742,Cloud_Experiment_FR_REAL,001,27,
images/fcloud_D1.9_2.tif,1.9,0,,,,,0,31,31,34,,,,,,,,,,,,,,,,,,,4,space,2,1.352,6.1531075,,,,,,,,,,,,,,,,,,2019_Mar_22_1630,60.36842851967742,Cloud_Experiment_FR_REAL,001,27,
images/fcloud65-35_D1.9_2.tif,1.9,1,,,,,0,32,32,70,,,,,,,,,,,,,,,,,,,1,space,2,2.266,2.2445152,,,,,,,,,,,,,,,,,,2019_Mar_22_1630,60.36842851967742,Cloud_Experiment_FR_REAL,001,27,
images/fcloud_D1.1_1.tif,1.1,0,,,,,0,33,33,9,,,,,,,,,,,,,,,,,,,None,None,None,12.306,,,,,,,,,,,,,,,,,,,2019_Mar_22_1630,60.36842851967742,Cloud_Experiment_FR_REAL,001,27,
images/fcloud65-35_D1.4_2.tif,1.4,1,,,,,0,34,34,55,,,,,,,,,,,,,,,,,,,5,space,4,1.119,4.7423604,,,,,,,,,,,,,,,,,,2019_Mar_22_1630,60.36842851967742,Cloud_Experiment_FR_REAL,001,27,
images/fcloud_D0.8_1.tif,0.8,0,,,,,0,35,35,0,,,,,,,,,,,,,,,,,,,3,space,4,1.318,1.5283385,,,,,,,,,,,,,,,,,,2019_Mar_22_1630,60.36842851967742,Cloud_Experiment_FR_REAL,001,27,
images/fcloud_D1.8_2.tif,1.8,0,,,,,0,36,36,31,,,,,,,,,,,,,,,,,,,4,space,2,3.749,9.8802289,,,,,,,,,,,,,,,,,,2019_Mar_22_1630,60.36842851967742,Cloud_Experiment_FR_REAL,001,27,
images/fcloud80-20_D1_3.tif,1.0,2,,,,,0,37,37,80,,,,,,,,,,,,,,,,,,,1,space,5,1.502,4.3166207,,,,,,,,,,,,,,,,,,2019_Mar_22_1630,60.36842851967742,Cloud_Experiment_FR_REAL,001,27,
images/fcloud_D1.7_2.tif,1.7,0,,,,,0,38,38,28,,,,,,,,,,,,,,,,,,,4,space,4,1.819,2.1180566,,,,,,,,,,,,,,,,,,2019_Mar_22_1630,60.36842851967742,Cloud_Experiment_FR_REAL,001,27,
images/fcloud65-35_D1.4_1.tif,1.4,1,,,,,0,39,39,54,,,,,,,,,,,,,,,,,,,2,space,4,0.785,1.8124308,,,,,,,,,,,,,,,,,,2019_Mar_22_1630,60.36842851967742,Cloud_Experiment_FR_REAL,001,27,
images/fcloud80-20_D1.2_2.tif,1.2,2,,,,,0,40,40,85,,,,,,,,,,,,,,,,,,,2,space,2,1.452,2.2545736,,,,,,,,,,,,,,,,,,2019_Mar_22_1630,60.36842851967742,Cloud_Experiment_FR_REAL,001,27,
images/fcloud80-20_D1_2.tif,1.0,2,,,,,0,41,41,79,,,,,,,,,,,,,,,,,,,2,space,3,1.035,2.8127148,,,,,,,,,,,,,,,,,,2019_Mar_22_1630,60.36842851967742,Cloud_Experiment_FR_REAL,001,27,
images/fcloud_D1.1_3.tif,1.1,0,,,,,0,42,42,11,,,,,,,,,,,,,,,,,,,2,space,1,2.833,5.615418,,,,,,,,,,,,,,,,,,2019_Mar_22_1630,60.36842851967742,Cloud_Experiment_FR_REAL,001,27,
images/fcloud_D1.4_1.tif,1.4,0,,,,,0,43,43,18,,,,,,,,,,,,,,,,,,,1,space,1,0.669,6.4633795,,,,,,,,,,,,,,,,,,2019_Mar_22_1630,60.36842851967742,Cloud_Experiment_FR_REAL,001,27,
images/fcloud_D0.8_3.tif,0.8,0,,,,,0,44,44,2,,,,,,,,,,,,,,,,,,,None,None,None,10.658,,,,,,,,,,,,,,,,,,,2019_Mar_22_1630,60.36842851967742,Cloud_Experiment_FR_REAL,001,27,
images/fcloud80-20_D1.4_2.tif,1.4,2,,,,,0,45,45,91,,,,,,,,,,,,,,,,,,,3,space,4,1.085,4.0654183,,,,,,,,,,,,,,,,,,2019_Mar_22_1630,60.36842851967742,Cloud_Experiment_FR_REAL,001,27,
images/fcloud_D1.7_3.tif,1.7,0,,,,,0,46,46,29,,,,,,,,,,,,,,,,,,,3,space,3,1.951,5.2025351,,,,,,,,,,,,,,,,,,2019_Mar_22_1630,60.36842851967742,Cloud_Experiment_FR_REAL,001,27,
images/fcloud80-20_D1.7_2.tif,1.7,2,,,,,0,47,47,100,,,,,,,,,,,,,,,,,,,1,space,2,1.701,6.6765602,,,,,,,,,,,,,,,,,,2019_Mar_22_1630,60.36842851967742,Cloud_Experiment_FR_REAL,001,27,
images/fcloud80-20_D1.1_2.tif,1.1,2,,,,,0,48,48,82,,,,,,,,,,,,,,,,,,,None,None,None,10.691,,,,,,,,,,,,,,,,,,,2019_Mar_22_1630,60.36842851967742,Cloud_Experiment_FR_REAL,001,27,
images/fcloud_D1.2_1.tif,1.2,0,,,,,0,49,49,12,,,,,,,,,,,,,,,,,,,4,space,4,1.12,1.3556276,,,,,,,,,,,,,,,,,,2019_Mar_22_1630,60.36842851967742,Cloud_Experiment_FR_REAL,001,27,
images/fcloud65-35_D1.6_3.tif,1.6,1,,,,,0,50,50,62,,,,,,,,,,,,,,,,,,,2,space,4,1.317,2.9045998,,,,,,,,,,,,,,,,,,2019_Mar_22_1630,60.36842851967742,Cloud_Experiment_FR_REAL,001,27,
images/fcloud_D1.8_3.tif,1.8,0,,,,,0,51,51,32,,,,,,,,,,,,,,,,,,,2,None,5,1.25,,,,,,,,,,,,,,,,,,,2019_Mar_22_1630,60.36842851967742,Cloud_Experiment_FR_REAL,001,27,
images/fcloud_D1.3_1.tif,1.3,0,,,,,0,52,52,15,,,,,,,,,,,,,,,,,,,2,None,4,1.136,,,,,,,,,,,,,,,,,,,2019_Mar_22_1630,60.36842851967742,Cloud_Experiment_FR_REAL,001,27,
images/fcloud80-20_D1.9_3.tif,1.9,2,,,,,0,53,53,107,,,,,,,,,,,,,,,,,,,3,space,5,1.269,6.3918832,,,,,,,,,,,,,,,,,,2019_Mar_22_1630,60.36842851967742,Cloud_Experiment_FR_REAL,001,27,
images/fcloud65-35_D1.2_3.tif,1.2,1,,,,,0,54,54,50,,,,,,,,,,,,,,,,,,,3,space,4,1.385,3.6762696,,,,,,,,,,,,,,,,,,2019_Mar_22_1630,60.36842851967742,Cloud_Experiment_FR_REAL,001,27,
images/fcloud_D1.4_3.tif,1.4,0,,,,,0,55,55,20,,,,,,,,,,,,,,,,,,,1,space,5,0.869,2.732325,,,,,,,,,,,,,,,,,,2019_Mar_22_1630,60.36842851967742,Cloud_Experiment_FR_REAL,001,27,
images/fcloud_D1.5_2.tif,1.5,0,,,,,0,56,56,22,,,,,,,,,,,,,,,,,,,3,None,3,1.435,,,,,,,,,,,,,,,,,,,2019_Mar_22_1630,60.36842851967742,Cloud_Experiment_FR_REAL,001,27,
images/fcloud_D1.6_1.tif,1.6,0,,,,,0,57,57,24,,,,,,,,,,,,,,,,,,,3,space,3,1.802,2.5890428,,,,,,,,,,,,,,,,,,2019_Mar_22_1630,60.36842851967742,Cloud_Experiment_FR_REAL,001,27,
images/fcloud_D0.9_2.tif,0.9,0,,,,,0,58,58,4,,,,,,,,,,,,,,,,,,,3,None,5,1.267,,,,,,,,,,,,,,,,,,,2019_Mar_22_1630,60.36842851967742,Cloud_Experiment_FR_REAL,001,27,
images/fcloud80-20_D1.3_1.tif,1.3,2,,,,,0,59,59,87,,,,,,,,,,,,,,,,,,,1,None,5,0.986,,,,,,,,,,,,,,,,,,,2019_Mar_22_1630,60.36842851967742,Cloud_Experiment_FR_REAL,001,27,
images/fcloud65-35_D1.8_1.tif,1.8,1,,,,,0,60,60,66,,,,,,,,,,,,,,,,,,,2,None,5,0.702,,,,,,,,,,,,,,,,,,,2019_Mar_22_1630,60.36842851967742,Cloud_Experiment_FR_REAL,001,27,
images/fcloud80-20_D1.4_1.tif,1.4,2,,,,,0,61,61,90,,,,,,,,,,,,,,,,,,,2,None,5,0.82,,,,,,,,,,,,,,,,,,,2019_Mar_22_1630,60.36842851967742,Cloud_Experiment_FR_REAL,001,27,
images/fcloud80-20_D0.9_1.tif,0.9,2,,,,,0,62,62,75,,,,,,,,,,,,,,,,,,,3,space,5,0.935,6.9822737,,,,,,,,,,,,,,,,,,2019_Mar_22_1630,60.36842851967742,Cloud_Experiment_FR_REAL,001,27,
images/fcloud65-35_D1.7_2.tif,1.7,1,,,,,0,63,63,64,,,,,,,,,,,,,,,,,,,2,space,4,1.135,4.7463122,,,,,,,,,,,,,,,,,,2019_Mar_22_1630,60.36842851967742,Cloud_Experiment_FR_REAL,001,27,
images/fcloud_D1.2_3.tif,1.2,0,,,,,0,64,64,14,,,,,,,,,,,,,,,,,,,3,space,5,1.702,6.2475854,,,,,,,,,,,,,,,,,,2019_Mar_22_1630,60.36842851967742,Cloud_Experiment_FR_REAL,001,27,
images/fcloud_D1.4_2.tif,1.4,0,,,,,0,65,65,19,,,,,,,,,,,,,,,,,,,3,space,5,0.67,2.4457688,,,,,,,,,,,,,,,,,,2019_Mar_22_1630,60.36842851967742,Cloud_Experiment_FR_REAL,001,27,
images/fcloud80-20_D1.4_3.tif,1.4,2,,,,,0,66,66,92,,,,,,,,,,,,,,,,,,,2,space,4,2.218,7.5412147,,,,,,,,,,,,,,,,,,2019_Mar_22_1630,60.36842851967742,Cloud_Experiment_FR_REAL,001,27,
images/fcloud80-20_D1.3_3.tif,1.3,2,,,,,0,67,67,89,,,,,,,,,,,,,,,,,,,1,space,4,1.319,7.0385692,,,,,,,,,,,,,,,,,,2019_Mar_22_1630,60.36842851967742,Cloud_Experiment_FR_REAL,001,27,
images/fcloud65-35_D1.5_1.tif,1.5,1,,,,,0,68,68,57,,,,,,,,,,,,,,,,,,,2,space,5,0.786,2.7528543,,,,,,,,,,,,,,,,,,2019_Mar_22_1630,60.36842851967742,Cloud_Experiment_FR_REAL,001,27,
images/fcloud80-20_D1.5_1.tif,1.5,2,,,,,0,69,69,93,,,,,,,,,,,,,,,,,,,3,space,5,0.651,1.8343336,,,,,,,,,,,,,,,,,,2019_Mar_22_1630,60.36842851967742,Cloud_Experiment_FR_REAL,001,27,
images/fcloud80-20_D0.8_3.tif,0.8,2,,,,,0,70,70,74,,,,,,,,,,,,,,,,,,,2,None,2,2.134,,,,,,,,,,,,,,,,,,,2019_Mar_22_1630,60.36842851967742,Cloud_Experiment_FR_REAL,001,27,
images/fcloud_D1.9_3.tif,1.9,0,,,,,0,71,71,35,,,,,,,,,,,,,,,,,,,None,None,None,11.608,,,,,,,,,,,,,,,,,,,2019_Mar_22_1630,60.36842851967742,Cloud_Experiment_FR_REAL,001,27,
images/fcloud65-35_D1.1_2.tif,1.1,1,,,,,0,72,72,46,,,,,,,,,,,,,,,,,,,2,space,3,2.117,6.7072095,,,,,,,,,,,,,,,,,,2019_Mar_22_1630,60.36842851967742,Cloud_Experiment_FR_REAL,001,27,
images/fcloud65-35_D1.5_3.tif,1.5,1,,,,,0,73,73,59,,,,,,,,,,,,,,,,,,,3,space,4,1.135,2.7644631,,,,,,,,,,,,,,,,,,2019_Mar_22_1630,60.36842851967742,Cloud_Experiment_FR_REAL,001,27,
images/fcloud65-35_D0.8_2.tif,0.8,1,,,,,0,74,74,37,,,,,,,,,,,,,,,,,,,None,None,None,10.308,,,,,,,,,,,,,,,,,,,2019_Mar_22_1630,60.36842851967742,Cloud_Experiment_FR_REAL,001,27,
images/fcloud_D1_3.tif,1.0,0,,,,,0,75,75,8,,,,,,,,,,,,,,,,,,,2,space,5,1.535,1.4791126,,,,,,,,,,,,,,,,,,2019_Mar_22_1630,60.36842851967742,Cloud_Experiment_FR_REAL,001,27,
images/fcloud65-35_D0.9_3.tif,0.9,1,,,,,0,76,76,41,,,,,,,,,,,,,,,,,,,2,space,4,1.519,2.5870255,,,,,,,,,,,,,,,,,,2019_Mar_22_1630,60.36842851967742,Cloud_Experiment_FR_REAL,001,27,
images/fcloud_D1_2.tif,1.0,0,,,,,0,77,77,7,,,,,,,,,,,,,,,,,,,1,space,4,1.901,1.2182625,,,,,,,,,,,,,,,,,,2019_Mar_22_1630,60.36842851967742,Cloud_Experiment_FR_REAL,001,27,
images/fcloud65-35_D1_1.tif,1.0,1,,,,,0,78,78,42,,,,,,,,,,,,,,,,,,,2,space,3,1.318,3.8247512,,,,,,,,,,,,,,,,,,2019_Mar_22_1630,60.36842851967742,Cloud_Experiment_FR_REAL,001,27,
images/fcloud_D1.2_2.tif,1.2,0,,,,,0,79,79,13,,,,,,,,,,,,,,,,,,,3,space,5,1.201,1.3600296,,,,,,,,,,,,,,,,,,2019_Mar_22_1630,60.36842851967742,Cloud_Experiment_FR_REAL,001,27,
images/fcloud80-20_D0.8_1.tif,0.8,2,,,,,0,80,80,72,,,,,,,,,,,,,,,,,,,2,space,5,0.903,1.5328083,,,,,,,,,,,,,,,,,,2019_Mar_22_1630,60.36842851967742,Cloud_Experiment_FR_REAL,001,27,
images/fcloud80-20_D1.5_3.tif,1.5,2,,,,,0,81,81,95,,,,,,,,,,,,,,,,,,,3,space,4,1.385,2.957416,,,,,,,,,,,,,,,,,,2019_Mar_22_1630,60.36842851967742,Cloud_Experiment_FR_REAL,001,27,
images/fcloud_D1_1.tif,1.0,0,,,,,0,82,82,6,,,,,,,,,,,,,,,,,,,4,space,5,2.701,2.54633,,,,,,,,,,,,,,,,,,2019_Mar_22_1630,60.36842851967742,Cloud_Experiment_FR_REAL,001,27,
images/fcloud80-20_D1.7_3.tif,1.7,2,,,,,0,83,83,101,,,,,,,,,,,,,,,,,,,1,space,1,0.852,3.1434028,,,,,,,,,,,,,,,,,,2019_Mar_22_1630,60.36842851967742,Cloud_Experiment_FR_REAL,001,27,
images/fcloud_D1.3_3.tif,1.3,0,,,,,0,84,84,17,,,,,,,,,,,,,,,,,,,1,space,2,0.436,7.794713,,,,,,,,,,,,,,,,,,2019_Mar_22_1630,60.36842851967742,Cloud_Experiment_FR_REAL,001,27,
images/fcloud80-20_D1.5_2.tif,1.5,2,,,,,0,85,85,94,,,,,,,,,,,,,,,,,,,3,space,5,1.701,2.2151253,,,,,,,,,,,,,,,,,,2019_Mar_22_1630,60.36842851967742,Cloud_Experiment_FR_REAL,001,27,
images/fcloud80-20_D1.6_1.tif,1.6,2,,,,,0,86,86,96,,,,,,,,,,,,,,,,,,,3,space,4,1.585,3.196065,,,,,,,,,,,,,,,,,,2019_Mar_22_1630,60.36842851967742,Cloud_Experiment_FR_REAL,001,27,
images/fcloud65-35_D1.3_2.tif,1.3,1,,,,,0,87,87,52,,,,,,,,,,,,,,,,,,,3,space,4,0.969,3.0316912,,,,,,,,,,,,,,,,,,2019_Mar_22_1630,60.36842851967742,Cloud_Experiment_FR_REAL,001,27,
images/fcloud65-35_D1.2_1.tif,1.2,1,,,,,0,88,88,48,,,,,,,,,,,,,,,,,,,2,space,3,1.069,6.7545229,,,,,,,,,,,,,,,,,,2019_Mar_22_1630,60.36842851967742,Cloud_Experiment_FR_REAL,001,27,
images/fcloud_D1.7_1.tif,1.7,0,,,,,0,89,89,27,,,,,,,,,,,,,,,,,,,2,space,4,0.968,4.6552822,,,,,,,,,,,,,,,,,,2019_Mar_22_1630,60.36842851967742,Cloud_Experiment_FR_REAL,001,27,
images/fcloud80-20_D1.9_1.tif,1.9,2,,,,,0,90,90,105,,,,,,,,,,,,,,,,,,,2,space,4,1.569,2.7462526,,,,,,,,,,,,,,,,,,2019_Mar_22_1630,60.36842851967742,Cloud_Experiment_FR_REAL,001,27,
images/fcloud_D1.6_3.tif,1.6,0,,,,,0,91,91,26,,,,,,,,,,,,,,,,,,,3,space,5,1.003,1.6109882,,,,,,,,,,,,,,,,,,2019_Mar_22_1630,60.36842851967742,Cloud_Experiment_FR_REAL,001,27,
images/fcloud80-20_D1_1.tif,1.0,2,,,,,0,92,92,78,,,,,,,,,,,,,,,,,,,1,space,2,0.851,4.5323203,,,,,,,,,,,,,,,,,,2019_Mar_22_1630,60.36842851967742,Cloud_Experiment_FR_REAL,001,27,
images/fcloud65-35_D0.8_1.tif,0.8,1,,,,,0,93,93,36,,,,,,,,,,,,,,,,,,,2,space,4,0.901,3.2201319,,,,,,,,,,,,,,,,,,2019_Mar_22_1630,60.36842851967742,Cloud_Experiment_FR_REAL,001,27,
images/fcloud_D1.8_1.tif,1.8,0,,,,,0,94,94,30,,,,,,,,,,,,,,,,,,,4,space,3,3.4,1.5498483,,,,,,,,,,,,,,,,,,2019_Mar_22_1630,60.36842851967742,Cloud_Experiment_FR_REAL,001,27,
images/fcloud65-35_D1.3_3.tif,1.3,1,,,,,0,95,95,53,,,,,,,,,,,,,,,,,,,3,space,5,1.435,5.3166756,,,,,,,,,,,,,,,,,,2019_Mar_22_1630,60.36842851967742,Cloud_Experiment_FR_REAL,001,27,
images/fcloud_D1.5_1.tif,1.5,0,,,,,0,96,96,21,,,,,,,,,,,,,,,,,,,3,space,5,1.002,3.2227153,,,,,,,,,,,,,,,,,,2019_Mar_22_1630,60.36842851967742,Cloud_Experiment_FR_REAL,001,27,
images/fcloud80-20_D1.6_2.tif,1.6,2,,,,,0,97,97,97,,,,,,,,,,,,,,,,,,,2,space,4,5.615,3.2008584,,,,,,,,,,,,,,,,,,2019_Mar_22_1630,60.36842851967742,Cloud_Experiment_FR_REAL,001,27,
images/fcloud65-35_D0.9_2.tif,0.9,1,,,,,0,98,98,40,,,,,,,,,,,,,,,,,,,None,None,None,15.137,,,,,,,,,,,,,,,,,,,2019_Mar_22_1630,60.36842851967742,Cloud_Experiment_FR_REAL,001,27,
images/fcloud65-35_D1.6_1.tif,1.6,1,,,,,0,99,99,60,,,,,,,,,,,,,,,,,,,3,space,5,0.986,2.3870678,,,,,,,,,,,,,,,,,,2019_Mar_22_1630,60.36842851967742,Cloud_Experiment_FR_REAL,001,27,
images/fcloud80-20_D1.8_1.tif,1.8,2,,,,,0,100,100,102,,,,,,,,,,,,,,,,,,,2,space,2,1.483,5.2956666,,,,,,,,,,,,,,,,,,2019_Mar_22_1630,60.36842851967742,Cloud_Experiment_FR_REAL,001,27,
images/fcloud65-35_D1.8_3.tif,1.8,1,,,,,0,101,101,68,,,,,,,,,,,,,,,,,,,4,space,5,1.435,3.7503911,,,,,,,,,,,,,,,,,,2019_Mar_22_1630,60.36842851967742,Cloud_Experiment_FR_REAL,001,27,
images/fcloud65-35_D0.9_1.tif,0.9,1,,,,,0,102,102,39,,,,,,,,,,,,,,,,,,,3,space,5,1.185,2.4098501,,,,,,,,,,,,,,,,,,2019_Mar_22_1630,60.36842851967742,Cloud_Experiment_FR_REAL,001,27,
images/fcloud_D1.3_2.tif,1.3,0,,,,,0,103,103,16,,,,,,,,,,,,,,,,,,,2,space,3,1.435,1.6382679,,,,,,,,,,,,,,,,,,2019_Mar_22_1630,60.36842851967742,Cloud_Experiment_FR_REAL,001,27,
images/fcloud65-35_D1_3.tif,1.0,1,,,,,0,104,104,44,,,,,,,,,,,,,,,,,,,2,space,4,0.951,3.3148743,,,,,,,,,,,,,,,,,,2019_Mar_22_1630,60.36842851967742,Cloud_Experiment_FR_REAL,001,27,
images/fcloud80-20_D1.6_3.tif,1.6,2,,,,,0,105,105,98,,,,,,,,,,,,,,,,,,,5,space,4,1.287,3.8249662,,,,,,,,,,,,,,,,,,2019_Mar_22_1630,60.36842851967742,Cloud_Experiment_FR_REAL,001,27,
images/fcloud80-20_D1.1_1.tif,1.1,2,,,,,0,106,106,81,,,,,,,,,,,,,,,,,,,1,space,5,0.752,5.6349139,,,,,,,,,,,,,,,,,,2019_Mar_22_1630,60.36842851967742,Cloud_Experiment_FR_REAL,001,27,
images/fcloud65-35_D1_2.tif,1.0,1,,,,,0,107,107,43,,,,,,,,,,,,,,,,,,,2,space,4,1.052,4.9463394,,,,,,,,,,,,,,,,,,2019_Mar_22_1630,60.36842851967742,Cloud_Experiment_FR_REAL,001,27,
,,,,,,,,,,,,,,,,,,,,,,,,,,,,,,,,,,,,,,,,,,,,,,space,1.8324079,,,,2019_Mar_22_1630,60.36842851967742,Cloud_Experiment_FR_REAL,001,27,
,,,,,,,,,,,,,,,,,,,,,,,,,2,14.852,,,,,,,,,,,,,,,,,,,,,,,,,2019_Mar_22_1630,60.36842851967742,Cloud_Experiment_FR_REAL,001,27,
,,,,,,,,,,,,,,,,,,,,,,,,,,,,,,,,,,3,,,,,,,,,,,,,,,,,2019_Mar_22_1630,60.36842851967742,Cloud_Experiment_FR_REAL,001,27,
,,,,,,,,,,,,,,,,,,,,,,,,,,,,,,,,,,,5,,,,,,,,,,,,,,,,2019_Mar_22_1630,60.36842851967742,Cloud_Experiment_FR_REAL,001,27,
,,,,,,,,,,,,,,,,,,,,,,,,,,,,,,,,,,,,5,,,,,,,,,,,,,,,2019_Mar_22_1630,60.36842851967742,Cloud_Experiment_FR_REAL,001,27,
,,,,,,,,,,,,,,,,,,,,,,,,,,,,,,,,,,,,,3,,,,,,,,,,,,,,2019_Mar_22_1630,60.36842851967742,Cloud_Experiment_FR_REAL,001,27,
,,,,,,,,,,,,,,,,,,,,,,,,,,,,,,,,,,,,,,3,,,,,,,,,,,,,2019_Mar_22_1630,60.36842851967742,Cloud_Experiment_FR_REAL,001,27,
,,,,,,,,,,,,,,,,,,,,,,,,,,,,,,,,,,,,,,,4,,,,,,,,,,,,2019_Mar_22_1630,60.36842851967742,Cloud_Experiment_FR_REAL,001,27,
,,,,,,,,,,,,,,,,,,,,,,,,,,,,,,,,,,,,,,,,5,,,,,,,,,,,2019_Mar_22_1630,60.36842851967742,Cloud_Experiment_FR_REAL,001,27,
,,,,,,,,,,,,,,,,,,,,,,,,,,,,,,,,,,,,,,,,,2,,,,,,,,,,2019_Mar_22_1630,60.36842851967742,Cloud_Experiment_FR_REAL,001,27,
,,,,,,,,,,,,,,,,,,,,,,,,,,,,,,,,,,,,,,,,,,4,,,,,,,,,2019_Mar_22_1630,60.36842851967742,Cloud_Experiment_FR_REAL,001,27,
,,,,,,,,,,,,,,,,,,,,,,,,,,,,,,,,,,,,,,,,,,,2,,,,,,,,2019_Mar_22_1630,60.36842851967742,Cloud_Experiment_FR_REAL,001,27,
,,,,,,,,,,,,,,,,,,,,,,,,,,,,,,,,,,,,,,,,,,,,,,,,space,218.4953895,,2019_Mar_22_1630,60.36842851967742,Cloud_Experiment_FR_REAL,001,27,
images/fcloud_D1.1_5.tif,1.1,0,,,,,,,,,0,0,0,10,,,,,,,,,,,,,,,2,space,3,1.634,3.8636511,,,,,,,,,,,,,,,,,,2019_Mar_22_1630,60.36842851967742,Cloud_Experiment_FR_REAL,001,27,
images/fcloud80-20_D1.6_5.tif,1.6,2,,,,,,,,,0,1,1,97,,,,,,,,,,,,,,,2,space,2,5.448,4.9828988,,,,,,,,,,,,,,,,,,2019_Mar_22_1630,60.36842851967742,Cloud_Experiment_FR_REAL,001,27,
images/fcloud65-35_D1.9_4.tif,1.9,1,,,,,,,,,0,2,2,69,,,,,,,,,,,,,,,3,space,3,1.019,4.2828449,,,,,,,,,,,,,,,,,,2019_Mar_22_1630,60.36842851967742,Cloud_Experiment_FR_REAL,001,27,
images/fcloud65-35_D1.9_6.tif,1.9,1,,,,,,,,,0,3,3,71,,,,,,,,,,,,,,,2,space,3,1.72,3.059815,,,,,,,,,,,,,,,,,,2019_Mar_22_1630,60.36842851967742,Cloud_Experiment_FR_REAL,001,27,
images/fcloud80-20_D1.4_4.tif,1.4,2,,,,,,,,,0,4,4,90,,,,,,,,,,,,,,,None,None,None,10.993,,,,,,,,,,,,,,,,,,,2019_Mar_22_1630,60.36842851967742,Cloud_Experiment_FR_REAL,001,27,
images/fcloud65-35_D1.7_4.tif,1.7,1,,,,,,,,,0,5,5,63,,,,,,,,,,,,,,,3,space,3,1.267,3.1736196,,,,,,,,,,,,,,,,,,2019_Mar_22_1630,60.36842851967742,Cloud_Experiment_FR_REAL,001,27,
images/fcloud_D0.9_6.tif,0.9,0,,,,,,,,,0,6,6,5,,,,,,,,,,,,,,,4,space,4,1.784,2.2475086,,,,,,,,,,,,,,,,,,2019_Mar_22_1630,60.36842851967742,Cloud_Experiment_FR_REAL,001,27,
images/fcloud65-35_D1.1_4.tif,1.1,1,,,,,,,,,0,7,7,45,,,,,,,,,,,,,,,3,space,5,1.102,1.7368147,,,,,,,,,,,,,,,,,,2019_Mar_22_1630,60.36842851967742,Cloud_Experiment_FR_REAL,001,27,
images/fcloud_D1.7_5.tif,1.7,0,,,,,,,,,0,8,8,28,,,,,,,,,,,,,,,5,space,3,3.55,1.0193696,,,,,,,,,,,,,,,,,,2019_Mar_22_1630,60.36842851967742,Cloud_Experiment_FR_REAL,001,27,
images/fcloud65-35_D1.6_6.tif,1.6,1,,,,,,,,,0,9,9,62,,,,,,,,,,,,,,,2,space,4,1.184,2.7899573,,,,,,,,,,,,,,,,,,2019_Mar_22_1630,60.36842851967742,Cloud_Experiment_FR_REAL,001,27,
images/fcloud_D1.6_6.tif,1.6,0,,,,,,,,,0,10,10,26,,,,,,,,,,,,,,,3,space,4,1.253,1.427567,,,,,,,,,,,,,,,,,,2019_Mar_22_1630,60.36842851967742,Cloud_Experiment_FR_REAL,001,27,
images/fcloud_D1.3_5.tif,1.3,0,,,,,,,,,0,11,11,16,,,,,,,,,,,,,,,3,space,3,1.468,4.9454885,,,,,,,,,,,,,,,,,,2019_Mar_22_1630,60.36842851967742,Cloud_Experiment_FR_REAL,001,27,
images/fcloud_D1.7_4.tif,1.7,0,,,,,,,,,0,12,12,27,,,,,,,,,,,,,,,2,space,5,0.485,4.1786999,,,,,,,,,,,,,,,,,,2019_Mar_22_1630,60.36842851967742,Cloud_Experiment_FR_REAL,001,27,
images/fcloud80-20_D1.8_5.tif,1.8,2,,,,,,,,,0,13,13,103,,,,,,,,,,,,,,,1,space,5,0.637,6.0243423,,,,,,,,,,,,,,,,,,2019_Mar_22_1630,60.36842851967742,Cloud_Experiment_FR_REAL,001,27,
images/fcloud_D0.8_6.tif,0.8,0,,,,,,,,,0,14,14,2,,,,,,,,,,,,,,,3,space,5,1.668,2.7617691,,,,,,,,,,,,,,,,,,2019_Mar_22_1630,60.36842851967742,Cloud_Experiment_FR_REAL,001,27,
images/fcloud65-35_D1_6.tif,1.0,1,,,,,,,,,0,15,15,44,,,,,,,,,,,,,,,2,space,5,0.969,2.2450455,,,,,,,,,,,,,,,,,,2019_Mar_22_1630,60.36842851967742,Cloud_Experiment_FR_REAL,001,27,
images/fcloud_D1.6_4.tif,1.6,0,,,,,,,,,0,16,16,24,,,,,,,,,,,,,,,1,space,4,1.834,4.0114362,,,,,,,,,,,,,,,,,,2019_Mar_22_1630,60.36842851967742,Cloud_Experiment_FR_REAL,001,27,
images/fcloud65-35_D1.9_5.tif,1.9,1,,,,,,,,,0,17,17,70,,,,,,,,,,,,,,,1,space,5,0.569,2.1612591,,,,,,,,,,,,,,,,,,2019_Mar_22_1630,60.36842851967742,Cloud_Experiment_FR_REAL,001,27,
images/fcloud_D1.7_6.tif,1.7,0,,,,,,,,,0,18,18,29,,,,,,,,,,,,,,,3,space,5,2.119,2.2962398,,,,,,,,,,,,,,,,,,2019_Mar_22_1630,60.36842851967742,Cloud_Experiment_FR_REAL,001,27,
images/fcloud65-35_D1.1_5.tif,1.1,1,,,,,,,,,0,19,19,46,,,,,,,,,,,,,,,3,space,5,0.751,1.8919866,,,,,,,,,,,,,,,,,,2019_Mar_22_1630,60.36842851967742,Cloud_Experiment_FR_REAL,001,27,
images/fcloud80-20_D0.8_6.tif,0.8,2,,,,,,,,,0,20,20,74,,,,,,,,,,,,,,,3,space,3,5.915,6.7136168,,,,,,,,,,,,,,,,,,2019_Mar_22_1630,60.36842851967742,Cloud_Experiment_FR_REAL,001,27,
images/fcloud80-20_D1.6_4.tif,1.6,2,,,,,,,,,0,21,21,96,,,,,,,,,,,,,,,4,space,4,1.219,1.967808,,,,,,,,,,,,,,,,,,2019_Mar_22_1630,60.36842851967742,Cloud_Experiment_FR_REAL,001,27,
images/fcloud65-35_D1.3_5.tif,1.3,1,,,,,,,,,0,22,22,52,,,,,,,,,,,,,,,3,space,3,1.285,3.0152217,,,,,,,,,,,,,,,,,,2019_Mar_22_1630,60.36842851967742,Cloud_Experiment_FR_REAL,001,27,
images/fcloud_D1_4.tif,1.0,0,,,,,,,,,0,23,23,6,,,,,,,,,,,,,,,3,space,4,0.853,4.2119874,,,,,,,,,,,,,,,,,,2019_Mar_22_1630,60.36842851967742,Cloud_Experiment_FR_REAL,001,27,
images/fcloud65-35_D1.7_6.tif,1.7,1,,,,,,,,,0,24,24,65,,,,,,,,,,,,,,,5,space,5,0.452,1.242568,,,,,,,,,,,,,,,,,,2019_Mar_22_1630,60.36842851967742,Cloud_Experiment_FR_REAL,001,27,
images/fcloud80-20_D1.2_4.tif,1.2,2,,,,,,,,,0,25,25,84,,,,,,,,,,,,,,,4,space,3,2.434,2.1881211,,,,,,,,,,,,,,,,,,2019_Mar_22_1630,60.36842851967742,Cloud_Experiment_FR_REAL,001,27,
images/fcloud80-20_D0.9_5.tif,0.9,2,,,,,,,,,0,26,26,76,,,,,,,,,,,,,,,3,space,5,1.202,5.0857109,,,,,,,,,,,,,,,,,,2019_Mar_22_1630,60.36842851967742,Cloud_Experiment_FR_REAL,001,27,
images/fcloud80-20_D1.2_6.tif,1.2,2,,,,,,,,,0,27,27,86,,,,,,,,,,,,,,,2,space,3,1.052,3.8118952,,,,,,,,,,,,,,,,,,2019_Mar_22_1630,60.36842851967742,Cloud_Experiment_FR_REAL,001,27,
images/fcloud80-20_D1.1_5.tif,1.1,2,,,,,,,,,0,28,28,82,,,,,,,,,,,,,,,2,space,5,0.835,2.8606284,,,,,,,,,,,,,,,,,,2019_Mar_22_1630,60.36842851967742,Cloud_Experiment_FR_REAL,001,27,
images/fcloud80-20_D1.1_6.tif,1.1,2,,,,,,,,,0,29,29,83,,,,,,,,,,,,,,,2,space,3,0.869,1.737873,,,,,,,,,,,,,,,,,,2019_Mar_22_1630,60.36842851967742,Cloud_Experiment_FR_REAL,001,27,
images/fcloud65-35_D1.3_6.tif,1.3,1,,,,,,,,,0,30,30,53,,,,,,,,,,,,,,,2,space,5,0.569,3.909807,,,,,,,,,,,,,,,,,,2019_Mar_22_1630,60.36842851967742,Cloud_Experiment_FR_REAL,001,27,
images/fcloud_D1.9_6.tif,1.9,0,,,,,,,,,0,31,31,35,,,,,,,,,,,,,,,5,space,2,0.669,5.0544699,,,,,,,,,,,,,,,,,,2019_Mar_22_1630,60.36842851967742,Cloud_Experiment_FR_REAL,001,27,
images/fcloud_D0.8_5.tif,0.8,0,,,,,,,,,0,32,32,1,,,,,,,,,,,,,,,3,space,5,1.253,1.3259797,,,,,,,,,,,,,,,,,,2019_Mar_22_1630,60.36842851967742,Cloud_Experiment_FR_REAL,001,27,
images/fcloud80-20_D1.6_6.tif,1.6,2,,,,,,,,,0,33,33,98,,,,,,,,,,,,,,,1,space,3,1.001,7.103161,,,,,,,,,,,,,,,,,,2019_Mar_22_1630,60.36842851967742,Cloud_Experiment_FR_REAL,001,27,
images/fcloud_D1.4_5.tif,1.4,0,,,,,,,,,0,34,34,19,,,,,,,,,,,,,,,4,space,3,2.45,2.6817872,,,,,,,,,,,,,,,,,,2019_Mar_22_1630,60.36842851967742,Cloud_Experiment_FR_REAL,001,27,
images/fcloud80-20_D1.7_6.tif,1.7,2,,,,,,,,,0,35,35,101,,,,,,,,,,,,,,,1,space,1,1.734,7.126432,,,,,,,,,,,,,,,,,,2019_Mar_22_1630,60.36842851967742,Cloud_Experiment_FR_REAL,001,27,
images/fcloud_D1.1_4.tif,1.1,0,,,,,,,,,0,36,36,9,,,,,,,,,,,,,,,2,space,1,1.15,3.0204452,,,,,,,,,,,,,,,,,,2019_Mar_22_1630,60.36842851967742,Cloud_Experiment_FR_REAL,001,27,
images/fcloud_D0.8_4.tif,0.8,0,,,,,,,,,0,37,37,0,,,,,,,,,,,,,,,3,space,4,1.669,1.4922727,,,,,,,,,,,,,,,,,,2019_Mar_22_1630,60.36842851967742,Cloud_Experiment_FR_REAL,001,27,
images/fcloud65-35_D1.4_5.tif,1.4,1,,,,,,,,,0,38,38,55,,,,,,,,,,,,,,,2,space,3,0.986,5.5264327,,,,,,,,,,,,,,,,,,2019_Mar_22_1630,60.36842851967742,Cloud_Experiment_FR_REAL,001,27,
images/fcloud65-35_D1.3_4.tif,1.3,1,,,,,,,,,0,39,39,51,,,,,,,,,,,,,,,None,None,None,27.212,,,,,,,,,,,,,,,,,,,2019_Mar_22_1630,60.36842851967742,Cloud_Experiment_FR_REAL,001,27,
images/fcloud80-20_D1.4_6.tif,1.4,2,,,,,,,,,0,40,40,92,,,,,,,,,,,,,,,3,space,4,0.569,4.2136282,,,,,,,,,,,,,,,,,,2019_Mar_22_1630,60.36842851967742,Cloud_Experiment_FR_REAL,001,27,
images/fcloud_D0.9_5.tif,0.9,0,,,,,,,,,0,41,41,4,,,,,,,,,,,,,,,4,space,4,1.519,1.893748,,,,,,,,,,,,,,,,,,2019_Mar_22_1630,60.36842851967742,Cloud_Experiment_FR_REAL,001,27,
images/fcloud80-20_D1_6.tif,1.0,2,,,,,,,,,0,42,42,80,,,,,,,,,,,,,,,2,space,3,0.985,7.6815838,,,,,,,,,,,,,,,,,,2019_Mar_22_1630,60.36842851967742,Cloud_Experiment_FR_REAL,001,27,
images/fcloud_D0.9_4.tif,0.9,0,,,,,,,,,0,43,43,3,,,,,,,,,,,,,,,2,space,2,1.152,1.3071754,,,,,,,,,,,,,,,,,,2019_Mar_22_1630,60.36842851967742,Cloud_Experiment_FR_REAL,001,27,
images/fcloud_D1_6.tif,1.0,0,,,,,,,,,0,44,44,8,,,,,,,,,,,,,,,3,space,4,0.885,2.4252698,,,,,,,,,,,,,,,,,,2019_Mar_22_1630,60.36842851967742,Cloud_Experiment_FR_REAL,001,27,
images/fcloud80-20_D1.9_5.tif,1.9,2,,,,,,,,,0,45,45,106,,,,,,,,,,,,,,,4,space,5,1.403,2.5056468,,,,,,,,,,,,,,,,,,2019_Mar_22_1630,60.36842851967742,Cloud_Experiment_FR_REAL,001,27,
images/fcloud65-35_D0.9_5.tif,0.9,1,,,,,,,,,0,46,46,40,,,,,,,,,,,,,,,5,space,5,1.934,4.7257951,,,,,,,,,,,,,,,,,,2019_Mar_22_1630,60.36842851967742,Cloud_Experiment_FR_REAL,001,27,
images/fcloud80-20_D1.7_5.tif,1.7,2,,,,,,,,,0,47,47,100,,,,,,,,,,,,,,,5,space,4,0.769,1.6785656,,,,,,,,,,,,,,,,,,2019_Mar_22_1630,60.36842851967742,Cloud_Experiment_FR_REAL,001,27,
images/fcloud65-35_D0.8_4.tif,0.8,1,,,,,,,,,0,48,48,36,,,,,,,,,,,,,,,2,space,2,1.053,5.7469145,,,,,,,,,,,,,,,,,,2019_Mar_22_1630,60.36842851967742,Cloud_Experiment_FR_REAL,001,27,
images/fcloud80-20_D1.4_5.tif,1.4,2,,,,,,,,,0,49,49,91,,,,,,,,,,,,,,,1,None,1,1.387,,,,,,,,,,,,,,,,,,,2019_Mar_22_1630,60.36842851967742,Cloud_Experiment_FR_REAL,001,27,
images/fcloud65-35_D1.5_4.tif,1.5,1,,,,,,,,,0,50,50,57,,,,,,,,,,,,,,,None,None,None,11.642,,,,,,,,,,,,,,,,,,,2019_Mar_22_1630,60.36842851967742,Cloud_Experiment_FR_REAL,001,27,
images/fcloud80-20_D1.5_4.tif,1.5,2,,,,,,,,,0,51,51,93,,,,,,,,,,,,,,,1,space,4,1.685,1.476177,,,,,,,,,,,,,,,,,,2019_Mar_22_1630,60.36842851967742,Cloud_Experiment_FR_REAL,001,27,
images/fcloud_D1.2_4.tif,1.2,0,,,,,,,,,0,52,52,12,,,,,,,,,,,,,,,2,space,4,1.051,3.0567286,,,,,,,,,,,,,,,,,,2019_Mar_22_1630,60.36842851967742,Cloud_Experiment_FR_REAL,001,27,
images/fcloud65-35_D1_5.tif,1.0,1,,,,,,,,,0,53,53,43,,,,,,,,,,,,,,,None,None,None,13.855,,,,,,,,,,,,,,,,,,,2019_Mar_22_1630,60.36842851967742,Cloud_Experiment_FR_REAL,001,27,
images/fcloud80-20_D1.8_6.tif,1.8,2,,,,,,,,,0,54,54,104,,,,,,,,,,,,,,,1,space,5,0.918,3.2602343,,,,,,,,,,,,,,,,,,2019_Mar_22_1630,60.36842851967742,Cloud_Experiment_FR_REAL,001,27,
images/fcloud80-20_D1.5_6.tif,1.5,2,,,,,,,,,0,55,55,95,,,,,,,,,,,,,,,3,space,3,1.535,3.9390065,,,,,,,,,,,,,,,,,,2019_Mar_22_1630,60.36842851967742,Cloud_Experiment_FR_REAL,001,27,
images/fcloud80-20_D1.5_5.tif,1.5,2,,,,,,,,,0,56,56,94,,,,,,,,,,,,,,,4,space,3,2.033,1.5216806,,,,,,,,,,,,,,,,,,2019_Mar_22_1630,60.36842851967742,Cloud_Experiment_FR_REAL,001,27,
images/fcloud65-35_D1.5_5.tif,1.5,1,,,,,,,,,0,57,57,58,,,,,,,,,,,,,,,2,space,4,1.95,2.0359206,,,,,,,,,,,,,,,,,,2019_Mar_22_1630,60.36842851967742,Cloud_Experiment_FR_REAL,001,27,
images/fcloud_D1.8_4.tif,1.8,0,,,,,,,,,0,58,58,30,,,,,,,,,,,,,,,1,space,3,1.618,6.0210699,,,,,,,,,,,,,,,,,,2019_Mar_22_1630,60.36842851967742,Cloud_Experiment_FR_REAL,001,27,
images/fcloud65-35_D0.8_5.tif,0.8,1,,,,,,,,,0,59,59,37,,,,,,,,,,,,,,,None,None,None,10.543,,,,,,,,,,,,,,,,,,,2019_Mar_22_1630,60.36842851967742,Cloud_Experiment_FR_REAL,001,27,
images/fcloud65-35_D1.2_4.tif,1.2,1,,,,,,,,,0,60,60,48,,,,,,,,,,,,,,,3,space,3,3.433,6.6911475,,,,,,,,,,,,,,,,,,2019_Mar_22_1630,60.36842851967742,Cloud_Experiment_FR_REAL,001,27,
images/fcloud80-20_D1.1_4.tif,1.1,2,,,,,,,,,0,61,61,81,,,,,,,,,,,,,,,None,None,None,13.09,,,,,,,,,,,,,,,,,,,2019_Mar_22_1630,60.36842851967742,Cloud_Experiment_FR_REAL,001,27,
images/fcloud65-35_D1.2_6.tif,1.2,1,,,,,,,,,0,62,62,50,,,,,,,,,,,,,,,None,None,None,22.581,,,,,,,,,,,,,,,,,,,2019_Mar_22_1630,60.36842851967742,Cloud_Experiment_FR_REAL,001,27,
images/fcloud80-20_D1.3_5.tif,1.3,2,,,,,,,,,0,63,63,88,,,,,,,,,,,,,,,2,space,5,0.719,1.7856768,,,,,,,,,,,,,,,,,,2019_Mar_22_1630,60.36842851967742,Cloud_Experiment_FR_REAL,001,27,
images/fcloud80-20_D0.9_4.tif,0.9,2,,,,,,,,,0,64,64,75,,,,,,,,,,,,,,,2,space,4,1.735,1.599987,,,,,,,,,,,,,,,,,,2019_Mar_22_1630,60.36842851967742,Cloud_Experiment_FR_REAL,001,27,
images/fcloud_D1.9_5.tif,1.9,0,,,,,,,,,0,65,65,34,,,,,,,,,,,,,,,2,space,3,1.668,5.2426468,,,,,,,,,,,,,,,,,,2019_Mar_22_1630,60.36842851967742,Cloud_Experiment_FR_REAL,001,27,
images/fcloud_D1.4_6.tif,1.4,0,,,,,,,,,0,66,66,20,,,,,,,,,,,,,,,5,space,4,2.501,1.3885486,,,,,,,,,,,,,,,,,,2019_Mar_22_1630,60.36842851967742,Cloud_Experiment_FR_REAL,001,27,
images/fcloud_D1.6_5.tif,1.6,0,,,,,,,,,0,67,67,25,,,,,,,,,,,,,,,4,space,4,1.518,5.4882795,,,,,,,,,,,,,,,,,,2019_Mar_22_1630,60.36842851967742,Cloud_Experiment_FR_REAL,001,27,
images/fcloud80-20_D1.7_4.tif,1.7,2,,,,,,,,,0,68,68,99,,,,,,,,,,,,,,,None,None,None,11.692,,,,,,,,,,,,,,,,,,,2019_Mar_22_1630,60.36842851967742,Cloud_Experiment_FR_REAL,001,27,
images/fcloud65-35_D1.6_5.tif,1.6,1,,,,,,,,,0,69,69,61,,,,,,,,,,,,,,,2,space,4,0.653,4.4351458,,,,,,,,,,,,,,,,,,2019_Mar_22_1630,60.36842851967742,Cloud_Experiment_FR_REAL,001,27,
images/fcloud80-20_D1.9_4.tif,1.9,2,,,,,,,,,0,70,70,105,,,,,,,,,,,,,,,1,space,4,1.417,1.3779105,,,,,,,,,,,,,,,,,,2019_Mar_22_1630,60.36842851967742,Cloud_Experiment_FR_REAL,001,27,
images/fcloud65-35_D0.9_6.tif,0.9,1,,,,,,,,,0,71,71,41,,,,,,,,,,,,,,,1,space,5,0.702,6.6760342,,,,,,,,,,,,,,,,,,2019_Mar_22_1630,60.36842851967742,Cloud_Experiment_FR_REAL,001,27,
images/fcloud65-35_D1.4_4.tif,1.4,1,,,,,,,,,0,72,72,54,,,,,,,,,,,,,,,2,space,3,1.219,6.3661425,,,,,,,,,,,,,,,,,,2019_Mar_22_1630,60.36842851967742,Cloud_Experiment_FR_REAL,001,27,
images/fcloud65-35_D0.8_6.tif,0.8,1,,,,,,,,,0,73,73,38,,,,,,,,,,,,,,,3,space,3,1.184,2.3785991,,,,,,,,,,,,,,,,,,2019_Mar_22_1630,60.36842851967742,Cloud_Experiment_FR_REAL,001,27,
images/fcloud_D1.1_6.tif,1.1,0,,,,,,,,,0,74,74,11,,,,,,,,,,,,,,,3,space,4,1.036,2.1769914,,,,,,,,,,,,,,,,,,2019_Mar_22_1630,60.36842851967742,Cloud_Experiment_FR_REAL,001,27,
images/fcloud_D1.3_6.tif,1.3,0,,,,,,,,,0,75,75,17,,,,,,,,,,,,,,,3,space,4,1.268,4.2434062,,,,,,,,,,,,,,,,,,2019_Mar_22_1630,60.36842851967742,Cloud_Experiment_FR_REAL,001,27,
images/fcloud65-35_D1_4.tif,1.0,1,,,,,,,,,0,76,76,42,,,,,,,,,,,,,,,2,space,4,0.969,2.4977821,,,,,,,,,,,,,,,,,,2019_Mar_22_1630,60.36842851967742,Cloud_Experiment_FR_REAL,001,27,
images/fcloud65-35_D0.9_4.tif,0.9,1,,,,,,,,,0,77,77,39,,,,,,,,,,,,,,,None,None,None,10.276,,,,,,,,,,,,,,,,,,,2019_Mar_22_1630,60.36842851967742,Cloud_Experiment_FR_REAL,001,27,
images/fcloud80-20_D1_4.tif,1.0,2,,,,,,,,,0,78,78,78,,,,,,,,,,,,,,,3,space,3,0.919,3.4910732,,,,,,,,,,,,,,,,,,2019_Mar_22_1630,60.36842851967742,Cloud_Experiment_FR_REAL,001,27,
images/fcloud_D1.5_5.tif,1.5,0,,,,,,,,,0,79,79,22,,,,,,,,,,,,,,,None,None,None,11.225,,,,,,,,,,,,,,,,,,,2019_Mar_22_1630,60.36842851967742,Cloud_Experiment_FR_REAL,001,27,
images/fcloud65-35_D1.8_6.tif,1.8,1,,,,,,,,,0,80,80,68,,,,,,,,,,,,,,,4,space,5,1.184,2.1238277,,,,,,,,,,,,,,,,,,2019_Mar_22_1630,60.36842851967742,Cloud_Experiment_FR_REAL,001,27,
images/fcloud65-35_D1.1_6.tif,1.1,1,,,,,,,,,0,81,81,47,,,,,,,,,,,,,,,None,None,None,10.243,,,,,,,,,,,,,,,,,,,2019_Mar_22_1630,60.36842851967742,Cloud_Experiment_FR_REAL,001,27,
images/fcloud65-35_D1.4_6.tif,1.4,1,,,,,,,,,0,82,82,56,,,,,,,,,,,,,,,1,space,5,2.102,1.6509482,,,,,,,,,,,,,,,,,,2019_Mar_22_1630,60.36842851967742,Cloud_Experiment_FR_REAL,001,27,
images/fcloud80-20_D0.8_4.tif,0.8,2,,,,,,,,,0,83,83,72,,,,,,,,,,,,,,,2,space,4,1.019,6.9934557,,,,,,,,,,,,,,,,,,2019_Mar_22_1630,60.36842851967742,Cloud_Experiment_FR_REAL,001,27,
images/fcloud_D1.5_6.tif,1.5,0,,,,,,,,,0,84,84,23,,,,,,,,,,,,,,,1,space,4,1.234,2.2930856,,,,,,,,,,,,,,,,,,2019_Mar_22_1630,60.36842851967742,Cloud_Experiment_FR_REAL,001,27,
images/fcloud80-20_D1.2_5.tif,1.2,2,,,,,,,,,0,85,85,85,,,,,,,,,,,,,,,2,space,5,0.835,2.5257662,,,,,,,,,,,,,,,,,,2019_Mar_22_1630,60.36842851967742,Cloud_Experiment_FR_REAL,001,27,
images/fcloud80-20_D0.9_6.tif,0.9,2,,,,,,,,,0,86,86,77,,,,,,,,,,,,,,,2,space,4,0.869,5.7829084,,,,,,,,,,,,,,,,,,2019_Mar_22_1630,60.36842851967742,Cloud_Experiment_FR_REAL,001,27,
images/fcloud80-20_D1.9_6.tif,1.9,2,,,,,,,,,0,87,87,107,,,,,,,,,,,,,,,1,space,2,2.365,7.8050429,,,,,,,,,,,,,,,,,,2019_Mar_22_1630,60.36842851967742,Cloud_Experiment_FR_REAL,001,27,
images/fcloud_D1.4_4.tif,1.4,0,,,,,,,,,0,88,88,18,,,,,,,,,,,,,,,4,space,3,1.635,4.8049895,,,,,,,,,,,,,,,,,,2019_Mar_22_1630,60.36842851967742,Cloud_Experiment_FR_REAL,001,27,
images/fcloud_D1.9_4.tif,1.9,0,,,,,,,,,0,89,89,33,,,,,,,,,,,,,,,5,None,3,2.0,,,,,,,,,,,,,,,,,,,2019_Mar_22_1630,60.36842851967742,Cloud_Experiment_FR_REAL,001,27,
images/fcloud80-20_D1_5.tif,1.0,2,,,,,,,,,0,90,90,79,,,,,,,,,,,,,,,2,space,3,0.868,7.4481721,,,,,,,,,,,,,,,,,,2019_Mar_22_1630,60.36842851967742,Cloud_Experiment_FR_REAL,001,27,
images/fcloud80-20_D1.3_4.tif,1.3,2,,,,,,,,,0,91,91,87,,,,,,,,,,,,,,,2,space,4,0.852,3.141459,,,,,,,,,,,,,,,,,,2019_Mar_22_1630,60.36842851967742,Cloud_Experiment_FR_REAL,001,27,
images/fcloud80-20_D1.3_6.tif,1.3,2,,,,,,,,,0,92,92,89,,,,,,,,,,,,,,,1,space,1,0.569,7.524515,,,,,,,,,,,,,,,,,,2019_Mar_22_1630,60.36842851967742,Cloud_Experiment_FR_REAL,001,27,
images/fcloud_D1.5_4.tif,1.5,0,,,,,,,,,0,93,93,21,,,,,,,,,,,,,,,4,space,3,1.385,3.0132274,,,,,,,,,,,,,,,,,,2019_Mar_22_1630,60.36842851967742,Cloud_Experiment_FR_REAL,001,27,
images/fcloud_D1.3_4.tif,1.3,0,,,,,,,,,0,94,94,15,,,,,,,,,,,,,,,None,None,None,11.108,,,,,,,,,,,,,,,,,,,2019_Mar_22_1630,60.36842851967742,Cloud_Experiment_FR_REAL,001,27,
images/fcloud65-35_D1.7_5.tif,1.7,1,,,,,,,,,0,95,95,64,,,,,,,,,,,,,,,1,space,5,1.502,2.9454577,,,,,,,,,,,,,,,,,,2019_Mar_22_1630,60.36842851967742,Cloud_Experiment_FR_REAL,001,27,
images/fcloud80-20_D0.8_5.tif,0.8,2,,,,,,,,,0,96,96,73,,,,,,,,,,,,,,,3,space,4,0.986,5.4607285,,,,,,,,,,,,,,,,,,2019_Mar_22_1630,60.36842851967742,Cloud_Experiment_FR_REAL,001,27,
images/fcloud65-35_D1.6_4.tif,1.6,1,,,,,,,,,0,97,97,60,,,,,,,,,,,,,,,5,space,4,1.452,3.196315,,,,,,,,,,,,,,,,,,2019_Mar_22_1630,60.36842851967742,Cloud_Experiment_FR_REAL,001,27,
images/fcloud_D1_5.tif,1.0,0,,,,,,,,,0,98,98,7,,,,,,,,,,,,,,,5,space,3,0.985,1.5565251,,,,,,,,,,,,,,,,,,2019_Mar_22_1630,60.36842851967742,Cloud_Experiment_FR_REAL,001,27,
images/fcloud65-35_D1.8_5.tif,1.8,1,,,,,,,,,0,99,99,67,,,,,,,,,,,,,,,3,space,4,0.986,3.0613253,,,,,,,,,,,,,,,,,,2019_Mar_22_1630,60.36842851967742,Cloud_Experiment_FR_REAL,001,27,
images/fcloud80-20_D1.8_4.tif,1.8,2,,,,,,,,,0,100,100,102,,,,,,,,,,,,,,,2,space,3,1.166,5.8236934,,,,,,,,,,,,,,,,,,2019_Mar_22_1630,60.36842851967742,Cloud_Experiment_FR_REAL,001,27,
images/fcloud_D1.8_6.tif,1.8,0,,,,,,,,,0,101,101,32,,,,,,,,,,,,,,,1,space,5,0.767,7.7462134,,,,,,,,,,,,,,,,,,2019_Mar_22_1630,60.36842851967742,Cloud_Experiment_FR_REAL,001,27,
images/fcloud_D1.2_5.tif,1.2,0,,,,,,,,,0,102,102,13,,,,,,,,,,,,,,,2,space,4,1.867,1.3885562,,,,,,,,,,,,,,,,,,2019_Mar_22_1630,60.36842851967742,Cloud_Experiment_FR_REAL,001,27,
images/fcloud65-35_D1.5_6.tif,1.5,1,,,,,,,,,0,103,103,59,,,,,,,,,,,,,,,3,space,4,0.917,1.3396235,,,,,,,,,,,,,,,,,,2019_Mar_22_1630,60.36842851967742,Cloud_Experiment_FR_REAL,001,27,
images/fcloud_D1.8_5.tif,1.8,0,,,,,,,,,0,104,104,31,,,,,,,,,,,,,,,3,space,5,0.536,2.6419224,,,,,,,,,,,,,,,,,,2019_Mar_22_1630,60.36842851967742,Cloud_Experiment_FR_REAL,001,27,
images/fcloud_D1.2_6.tif,1.2,0,,,,,,,,,0,105,105,14,,,,,,,,,,,,,,,1,space,5,1.702,4.2704157,,,,,,,,,,,,,,,,,,2019_Mar_22_1630,60.36842851967742,Cloud_Experiment_FR_REAL,001,27,
images/fcloud65-35_D1.2_5.tif,1.2,1,,,,,,,,,0,106,106,49,,,,,,,,,,,,,,,4,space,5,0.852,2.6559512,,,,,,,,,,,,,,,,,,2019_Mar_22_1630,60.36842851967742,Cloud_Experiment_FR_REAL,001,27,
images/fcloud65-35_D1.8_4.tif,1.8,1,,,,,,,,,0,107,107,66,,,,,,,,,,,,,,,None,None,None,10.36,,,,,,,,,,,,,,,,,,,2019_Mar_22_1630,60.36842851967742,Cloud_Experiment_FR_REAL,001,27,
,,,,,,,,,,,,,,,,,,,,,,,,,,,,,,,,,,,,,,,,,,,,,,space,8.5281533,,,,2019_Mar_22_1630,60.36842851967742,Cloud_Experiment_FR_REAL,001,27,
,,,,,,,,,,,,,,,,,,,,,,,,,4,4.774,,,,,,,,,,,,,,,,,,,,,,,,,2019_Mar_22_1630,60.36842851967742,Cloud_Experiment_FR_REAL,001,27,
,,,,,,,,,,,,,,,,,,,,,,,,,,,,,,,,,,2,,,,,,,,,,,,,,,,,2019_Mar_22_1630,60.36842851967742,Cloud_Experiment_FR_REAL,001,27,
,,,,,,,,,,,,,,,,,,,,,,,,,,,,,,,,,,,4,,,,,,,,,,,,,,,,2019_Mar_22_1630,60.36842851967742,Cloud_Experiment_FR_REAL,001,27,
,,,,,,,,,,,,,,,,,,,,,,,,,,,,,,,,,,,,3,,,,,,,,,,,,,,,2019_Mar_22_1630,60.36842851967742,Cloud_Experiment_FR_REAL,001,27,
,,,,,,,,,,,,,,,,,,,,,,,,,,,,,,,,,,,,,3,,,,,,,,,,,,,,2019_Mar_22_1630,60.36842851967742,Cloud_Experiment_FR_REAL,001,27,
,,,,,,,,,,,,,,,,,,,,,,,,,,,,,,,,,,,,,,4,,,,,,,,,,,,,2019_Mar_22_1630,60.36842851967742,Cloud_Experiment_FR_REAL,001,27,
,,,,,,,,,,,,,,,,,,,,,,,,,,,,,,,,,,,,,,,4,,,,,,,,,,,,2019_Mar_22_1630,60.36842851967742,Cloud_Experiment_FR_REAL,001,27,
,,,,,,,,,,,,,,,,,,,,,,,,,,,,,,,,,,,,,,,,5,,,,,,,,,,,2019_Mar_22_1630,60.36842851967742,Cloud_Experiment_FR_REAL,001,27,
,,,,,,,,,,,,,,,,,,,,,,,,,,,,,,,,,,,,,,,,,5,,,,,,,,,,2019_Mar_22_1630,60.36842851967742,Cloud_Experiment_FR_REAL,001,27,
,,,,,,,,,,,,,,,,,,,,,,,,,,,,,,,,,,,,,,,,,,5,,,,,,,,,2019_Mar_22_1630,60.36842851967742,Cloud_Experiment_FR_REAL,001,27,
,,,,,,,,,,,,,,,,,,,,,,,,,,,,,,,,,,,,,,,,,,,2,,,,,,,,2019_Mar_22_1630,60.36842851967742,Cloud_Experiment_FR_REAL,001,27,
,,,,,,,,,,,,,,,,,,,,,,,,,,,,,,,,,,,,,,,,,,,,,,,,space,69.2068214,,2019_Mar_22_1630,60.36842851967742,Cloud_Experiment_FR_REAL,001,27,
images/fcloud_D1.5_8.tif,1.5,0,,,,,,,,,,,,,0,0,0,29,,,,,,,,,,,2,space,5,1.283,5.2750222,,,,,,,,,,,,,,,,,,2019_Mar_22_1630,60.36842851967742,Cloud_Experiment_FR_REAL,001,27,
images/fcloud80-20_D1.9_8.tif,1.9,2,,,,,,,,,,,,,0,1,1,141,,,,,,,,,,,1,space,5,0.884,2.6325577,,,,,,,,,,,,,,,,,,2019_Mar_22_1630,60.36842851967742,Cloud_Experiment_FR_REAL,001,27,
images/fcloud80-20_D0.8_8.tif,0.8,2,,,,,,,,,,,,,0,2,2,97,,,,,,,,,,,2,space,3,1.186,5.031028,,,,,,,,,,,,,,,,,,2019_Mar_22_1630,60.36842851967742,Cloud_Experiment_FR_REAL,001,27,
images/fcloud_D1.7_8.tif,1.7,0,,,,,,,,,,,,,0,3,3,37,,,,,,,,,,,2,space,4,1.568,4.5687399,,,,,,,,,,,,,,,,,,2019_Mar_22_1630,60.36842851967742,Cloud_Experiment_FR_REAL,001,27,
images/fcloud80-20_D1.8_7.tif,1.8,2,,,,,,,,,,,,,0,4,4,136,,,,,,,,,,,5,space,4,1.168,1.8137359,,,,,,,,,,,,,,,,,,2019_Mar_22_1630,60.36842851967742,Cloud_Experiment_FR_REAL,001,27,
images/fcloud65-35_D0.8_9.tif,0.8,1,,,,,,,,,,,,,0,5,5,50,,,,,,,,,,,1,space,3,0.968,3.8952542,,,,,,,,,,,,,,,,,,2019_Mar_22_1630,60.36842851967742,Cloud_Experiment_FR_REAL,001,27,
images/fcloud_D1.7_9.tif,1.7,0,,,,,,,,,,,,,0,6,6,38,,,,,,,,,,,3,space,4,1.267,2.4802038,,,,,,,,,,,,,,,,,,2019_Mar_22_1630,60.36842851967742,Cloud_Experiment_FR_REAL,001,27,
images/fcloud65-35_D1.4_10.tif,1.4,1,,,,,,,,,,,,,0,7,7,75,,,,,,,,,,,3,space,5,0.451,1.738367,,,,,,,,,,,,,,,,,,2019_Mar_22_1630,60.36842851967742,Cloud_Experiment_FR_REAL,001,27,
images/fcloud65-35_D1.7_9.tif,1.7,1,,,,,,,,,,,,,0,8,8,86,,,,,,,,,,,3,space,5,0.784,1.4926569,,,,,,,,,,,,,,,,,,2019_Mar_22_1630,60.36842851967742,Cloud_Experiment_FR_REAL,001,27,
images/fcloud_D1.4_8.tif,1.4,0,,,,,,,,,,,,,0,9,9,25,,,,,,,,,,,3,space,5,0.701,2.6606805,,,,,,,,,,,,,,,,,,2019_Mar_22_1630,60.36842851967742,Cloud_Experiment_FR_REAL,001,27,
images/fcloud_D1_7.tif,1.0,0,,,,,,,,,,,,,0,10,10,8,,,,,,,,,,,4,space,3,0.853,2.4530659,,,,,,,,,,,,,,,,,,2019_Mar_22_1630,60.36842851967742,Cloud_Experiment_FR_REAL,001,27,
images/fcloud65-35_D0.8_8.tif,0.8,1,,,,,,,,,,,,,0,11,11,49,,,,,,,,,,,4,space,5,1.419,0.939226300001,,,,,,,,,,,,,,,,,,2019_Mar_22_1630,60.36842851967742,Cloud_Experiment_FR_REAL,001,27,
images/fcloud65-35_D1.6_7.tif,1.6,1,,,,,,,,,,,,,0,12,12,80,,,,,,,,,,,None,None,None,10.76,,,,,,,,,,,,,,,,,,,2019_Mar_22_1630,60.36842851967742,Cloud_Experiment_FR_REAL,001,27,
images/fcloud_D0.9_8.tif,0.9,0,,,,,,,,,,,,,0,13,13,5,,,,,,,,,,,None,None,None,20.484,,,,,,,,,,,,,,,,,,,2019_Mar_22_1630,60.36842851967742,Cloud_Experiment_FR_REAL,001,27,
images/fcloud80-20_D1.2_7.tif,1.2,2,,,,,,,,,,,,,0,14,14,112,,,,,,,,,,,2,space,4,1.752,6.1669696,,,,,,,,,,,,,,,,,,2019_Mar_22_1630,60.36842851967742,Cloud_Experiment_FR_REAL,001,27,
images/fcloud65-35_D1.2_10.tif,1.2,1,,,,,,,,,,,,,0,15,15,67,,,,,,,,,,,4,space,4,0.869,2.7589029,,,,,,,,,,,,,,,,,,2019_Mar_22_1630,60.36842851967742,Cloud_Experiment_FR_REAL,001,27,
images/fcloud80-20_D1_10.tif,1.0,2,,,,,,,,,,,,,0,16,16,107,,,,,,,,,,,4,space,4,1.069,1.3636238,,,,,,,,,,,,,,,,,,2019_Mar_22_1630,60.36842851967742,Cloud_Experiment_FR_REAL,001,27,
images/fcloud_D1.5_10.tif,1.5,0,,,,,,,,,,,,,0,17,17,31,,,,,,,,,,,5,space,5,1.118,1.2327908,,,,,,,,,,,,,,,,,,2019_Mar_22_1630,60.36842851967742,Cloud_Experiment_FR_REAL,001,27,
images/fcloud65-35_D1.1_10.tif,1.1,1,,,,,,,,,,,,,0,18,18,63,,,,,,,,,,,1,space,5,1.652,4.2048359,,,,,,,,,,,,,,,,,,2019_Mar_22_1630,60.36842851967742,Cloud_Experiment_FR_REAL,001,27,
images/fcloud80-20_D1.3_8.tif,1.3,2,,,,,,,,,,,,,0,19,19,117,,,,,,,,,,,3,space,4,0.453,3.4752902,,,,,,,,,,,,,,,,,,2019_Mar_22_1630,60.36842851967742,Cloud_Experiment_FR_REAL,001,27,
images/fcloud65-35_D1.9_9.tif,1.9,1,,,,,,,,,,,,,0,20,20,94,,,,,,,,,,,3,space,3,1.018,5.0087109,,,,,,,,,,,,,,,,,,2019_Mar_22_1630,60.36842851967742,Cloud_Experiment_FR_REAL,001,27,
images/fcloud65-35_D1.6_8.tif,1.6,1,,,,,,,,,,,,,0,21,21,81,,,,,,,,,,,3,space,3,1.534,5.0804076,,,,,,,,,,,,,,,,,,2019_Mar_22_1630,60.36842851967742,Cloud_Experiment_FR_REAL,001,27,
images/fcloud65-35_D0.8_7.tif,0.8,1,,,,,,,,,,,,,0,22,22,48,,,,,,,,,,,1,space,5,1.934,1.0294735,,,,,,,,,,,,,,,,,,2019_Mar_22_1630,60.36842851967742,Cloud_Experiment_FR_REAL,001,27,
images/fcloud_D1.2_9.tif,1.2,0,,,,,,,,,,,,,0,23,23,18,,,,,,,,,,,4,space,4,1.286,3.1759912,,,,,,,,,,,,,,,,,,2019_Mar_22_1630,60.36842851967742,Cloud_Experiment_FR_REAL,001,27,
images/fcloud65-35_D1.6_9.tif,1.6,1,,,,,,,,,,,,,0,24,24,82,,,,,,,,,,,None,None,None,10.242,,,,,,,,,,,,,,,,,,,2019_Mar_22_1630,60.36842851967742,Cloud_Experiment_FR_REAL,001,27,
images/fcloud_D1.2_10.tif,1.2,0,,,,,,,,,,,,,0,25,25,19,,,,,,,,,,,1,space,2,3.683,7.1940168,,,,,,,,,,,,,,,,,,2019_Mar_22_1630,60.36842851967742,Cloud_Experiment_FR_REAL,001,27,
images/fcloud80-20_D1.1_7.tif,1.1,2,,,,,,,,,,,,,0,26,26,108,,,,,,,,,,,5,space,5,0.935,3.492414,,,,,,,,,,,,,,,,,,2019_Mar_22_1630,60.36842851967742,Cloud_Experiment_FR_REAL,001,27,
images/fcloud_D1.9_8.tif,1.9,0,,,,,,,,,,,,,0,27,27,45,,,,,,,,,,,4,space,3,0.985,2.0254675,,,,,,,,,,,,,,,,,,2019_Mar_22_1630,60.36842851967742,Cloud_Experiment_FR_REAL,001,27,
images/fcloud65-35_D0.8_10.tif,0.8,1,,,,,,,,,,,,,0,28,28,51,,,,,,,,,,,2,space,1,1.069,5.0074633,,,,,,,,,,,,,,,,,,2019_Mar_22_1630,60.36842851967742,Cloud_Experiment_FR_REAL,001,27,
images/fcloud65-35_D1.3_10.tif,1.3,1,,,,,,,,,,,,,0,29,29,71,,,,,,,,,,,4,space,5,1.718,3.749118,,,,,,,,,,,,,,,,,,2019_Mar_22_1630,60.36842851967742,Cloud_Experiment_FR_REAL,001,27,
images/fcloud65-35_D1.7_10.tif,1.7,1,,,,,,,,,,,,,0,30,30,87,,,,,,,,,,,1,space,1,0.568,7.6736783,,,,,,,,,,,,,,,,,,2019_Mar_22_1630,60.36842851967742,Cloud_Experiment_FR_REAL,001,27,
images/fcloud65-35_D1.2_8.tif,1.2,1,,,,,,,,,,,,,0,31,31,65,,,,,,,,,,,3,space,4,1.22,3.0386942,,,,,,,,,,,,,,,,,,2019_Mar_22_1630,60.36842851967742,Cloud_Experiment_FR_REAL,001,27,
images/fcloud80-20_D1_9.tif,1.0,2,,,,,,,,,,,,,0,32,32,106,,,,,,,,,,,3,space,4,1.785,4.801679,,,,,,,,,,,,,,,,,,2019_Mar_22_1630,60.36842851967742,Cloud_Experiment_FR_REAL,001,27,
images/fcloud65-35_D1.6_10.tif,1.6,1,,,,,,,,,,,,,0,33,33,83,,,,,,,,,,,3,space,5,0.602,3.1661383,,,,,,,,,,,,,,,,,,2019_Mar_22_1630,60.36842851967742,Cloud_Experiment_FR_REAL,001,27,
images/fcloud_D1.3_7.tif,1.3,0,,,,,,,,,,,,,0,34,34,20,,,,,,,,,,,3,space,4,2.101,4.5613222,,,,,,,,,,,,,,,,,,2019_Mar_22_1630,60.36842851967742,Cloud_Experiment_FR_REAL,001,27,
images/fcloud65-35_D1_10.tif,1.0,1,,,,,,,,,,,,,0,35,35,59,,,,,,,,,,,3,space,3,1.152,2.9923666,,,,,,,,,,,,,,,,,,2019_Mar_22_1630,60.36842851967742,Cloud_Experiment_FR_REAL,001,27,
images/fcloud80-20_D1.7_8.tif,1.7,2,,,,,,,,,,,,,0,36,36,133,,,,,,,,,,,5,space,5,0.618,5.0827121,,,,,,,,,,,,,,,,,,2019_Mar_22_1630,60.36842851967742,Cloud_Experiment_FR_REAL,001,27,
images/fcloud_D1.5_7.tif,1.5,0,,,,,,,,,,,,,0,37,37,28,,,,,,,,,,,2,space,3,0.602,5.1775754,,,,,,,,,,,,,,,,,,2019_Mar_22_1630,60.36842851967742,Cloud_Experiment_FR_REAL,001,27,
images/fcloud65-35_D1.8_7.tif,1.8,1,,,,,,,,,,,,,0,38,38,88,,,,,,,,,,,2,space,4,0.619,3.5850793,,,,,,,,,,,,,,,,,,2019_Mar_22_1630,60.36842851967742,Cloud_Experiment_FR_REAL,001,27,
images/fcloud80-20_D1.1_10.tif,1.1,2,,,,,,,,,,,,,0,39,39,111,,,,,,,,,,,4,space,4,1.801,1.7051094,,,,,,,,,,,,,,,,,,2019_Mar_22_1630,60.36842851967742,Cloud_Experiment_FR_REAL,001,27,
images/fcloud_D1.5_9.tif,1.5,0,,,,,,,,,,,,,0,40,40,30,,,,,,,,,,,4,space,4,1.236,1.3575504,,,,,,,,,,,,,,,,,,2019_Mar_22_1630,60.36842851967742,Cloud_Experiment_FR_REAL,001,27,
images/fcloud80-20_D1.7_7.tif,1.7,2,,,,,,,,,,,,,0,41,41,132,,,,,,,,,,,1,space,3,1.734,2.0319301,,,,,,,,,,,,,,,,,,2019_Mar_22_1630,60.36842851967742,Cloud_Experiment_FR_REAL,001,27,
images/fcloud_D1.7_10.tif,1.7,0,,,,,,,,,,,,,0,42,42,39,,,,,,,,,,,None,None,None,11.209,,,,,,,,,,,,,,,,,,,2019_Mar_22_1630,60.36842851967742,Cloud_Experiment_FR_REAL,001,27,
images/fcloud65-35_D1.8_8.tif,1.8,1,,,,,,,,,,,,,0,43,43,89,,,,,,,,,,,2,space,2,0.952,3.8215812,,,,,,,,,,,,,,,,,,2019_Mar_22_1630,60.36842851967742,Cloud_Experiment_FR_REAL,001,27,
images/fcloud_D1.1_7.tif,1.1,0,,,,,,,,,,,,,0,44,44,12,,,,,,,,,,,4,space,4,1.269,1.1270837,,,,,,,,,,,,,,,,,,2019_Mar_22_1630,60.36842851967742,Cloud_Experiment_FR_REAL,001,27,
images/fcloud_D1.4_9.tif,1.4,0,,,,,,,,,,,,,0,45,45,26,,,,,,,,,,,3,space,4,0.836,2.2361912,,,,,,,,,,,,,,,,,,2019_Mar_22_1630,60.36842851967742,Cloud_Experiment_FR_REAL,001,27,
images/fcloud_D0.8_10.tif,0.8,0,,,,,,,,,,,,,0,46,46,3,,,,,,,,,,,3,space,2,0.52,2.4814686,,,,,,,,,,,,,,,,,,2019_Mar_22_1630,60.36842851967742,Cloud_Experiment_FR_REAL,001,27,
images/fcloud80-20_D1.4_7.tif,1.4,2,,,,,,,,,,,,,0,47,47,120,,,,,,,,,,,1,space,3,0.969,5.9337722,,,,,,,,,,,,,,,,,,2019_Mar_22_1630,60.36842851967742,Cloud_Experiment_FR_REAL,001,27,
images/fcloud80-20_D1.5_10.tif,1.5,2,,,,,,,,,,,,,0,48,48,127,,,,,,,,,,,None,None,None,10.225,,,,,,,,,,,,,,,,,,,2019_Mar_22_1630,60.36842851967742,Cloud_Experiment_FR_REAL,001,27,
images/fcloud65-35_D1.2_7.tif,1.2,1,,,,,,,,,,,,,0,49,49,64,,,,,,,,,,,2,space,3,1.3,4.0413926,,,,,,,,,,,,,,,,,,2019_Mar_22_1630,60.36842851967742,Cloud_Experiment_FR_REAL,001,27,
images/fcloud65-35_D1.7_8.tif,1.7,1,,,,,,,,,,,,,0,50,50,85,,,,,,,,,,,4,space,3,1.119,7.1740084,,,,,,,,,,,,,,,,,,2019_Mar_22_1630,60.36842851967742,Cloud_Experiment_FR_REAL,001,27,
images/fcloud_D0.9_7.tif,0.9,0,,,,,,,,,,,,,0,51,51,4,,,,,,,,,,,3,space,3,1.868,1.7636259,,,,,,,,,,,,,,,,,,2019_Mar_22_1630,60.36842851967742,Cloud_Experiment_FR_REAL,001,27,
images/fcloud_D0.8_7.tif,0.8,0,,,,,,,,,,,,,0,52,52,0,,,,,,,,,,,None,None,None,11.21,,,,,,,,,,,,,,,,,,,2019_Mar_22_1630,60.36842851967742,Cloud_Experiment_FR_REAL,001,27,
images/fcloud65-35_D1.5_10.tif,1.5,1,,,,,,,,,,,,,0,53,53,79,,,,,,,,,,,2,space,5,1.053,2.97445,,,,,,,,,,,,,,,,,,2019_Mar_22_1630,60.36842851967742,Cloud_Experiment_FR_REAL,001,27,
images/fcloud65-35_D1_7.tif,1.0,1,,,,,,,,,,,,,0,54,54,56,,,,,,,,,,,None,None,None,68.025,,,,,,,,,,,,,,,,,,,2019_Mar_22_1630,60.36842851967742,Cloud_Experiment_FR_REAL,001,27,
images/fcloud_D1.6_8.tif,1.6,0,,,,,,,,,,,,,0,55,55,33,,,,,,,,,,,1,space,1,1.084,7.8044722,,,,,,,,,,,,,,,,,,2019_Mar_22_1630,60.36842851967742,Cloud_Experiment_FR_REAL,001,27,
images/fcloud65-35_D1.5_7.tif,1.5,1,,,,,,,,,,,,,0,56,56,76,,,,,,,,,,,3,space,2,1.035,4.4179666,,,,,,,,,,,,,,,,,,2019_Mar_22_1630,60.36842851967742,Cloud_Experiment_FR_REAL,001,27,
images/fcloud_D1_9.tif,1.0,0,,,,,,,,,,,,,0,57,57,10,,,,,,,,,,,None,None,None,10.176,,,,,,,,,,,,,,,,,,,2019_Mar_22_1630,60.36842851967742,Cloud_Experiment_FR_REAL,001,27,
images/fcloud80-20_D1.2_8.tif,1.2,2,,,,,,,,,,,,,0,58,58,113,,,,,,,,,,,2,space,3,1.002,5.4408382,,,,,,,,,,,,,,,,,,2019_Mar_22_1630,60.36842851967742,Cloud_Experiment_FR_REAL,001,27,
images/fcloud_D0.8_8.tif,0.8,0,,,,,,,,,,,,,0,59,59,1,,,,,,,,,,,3,space,5,0.935,1.7150266,,,,,,,,,,,,,,,,,,2019_Mar_22_1630,60.36842851967742,Cloud_Experiment_FR_REAL,001,27,
images/fcloud_D1.3_10.tif,1.3,0,,,,,,,,,,,,,0,60,60,23,,,,,,,,,,,1,space,4,0.686,4.9459687,,,,,,,,,,,,,,,,,,2019_Mar_22_1630,60.36842851967742,Cloud_Experiment_FR_REAL,001,27,
images/fcloud65-35_D1.8_9.tif,1.8,1,,,,,,,,,,,,,0,61,61,90,,,,,,,,,,,2,space,4,0.819,8.075794,,,,,,,,,,,,,,,,,,2019_Mar_22_1630,60.36842851967742,Cloud_Experiment_FR_REAL,001,27,
images/fcloud65-35_D1.1_7.tif,1.1,1,,,,,,,,,,,,,0,62,62,60,,,,,,,,,,,None,None,None,9.277,,,,,,,,,,,,,,,,,,,2019_Mar_22_1630,60.36842851967742,Cloud_Experiment_FR_REAL,001,27,
images/fcloud_D1.6_10.tif,1.6,0,,,,,,,,,,,,,0,63,63,35,,,,,,,,,,,3,space,5,1.084,4.1448419,,,,,,,,,,,,,,,,,,2019_Mar_22_1630,60.36842851967742,Cloud_Experiment_FR_REAL,001,27,
images/fcloud80-20_D0.8_10.tif,0.8,2,,,,,,,,,,,,,0,64,64,99,,,,,,,,,,,2,space,3,0.503,5.325279,,,,,,,,,,,,,,,,,,2019_Mar_22_1630,60.36842851967742,Cloud_Experiment_FR_REAL,001,27,
images/fcloud_D1_8.tif,1.0,0,,,,,,,,,,,,,0,65,65,9,,,,,,,,,,,2,space,4,1.368,3.3986375,,,,,,,,,,,,,,,,,,2019_Mar_22_1630,60.36842851967742,Cloud_Experiment_FR_REAL,001,27,
images/fcloud80-20_D1.9_9.tif,1.9,2,,,,,,,,,,,,,0,66,66,142,,,,,,,,,,,3,space,4,1.968,1.7361313,,,,,,,,,,,,,,,,,,2019_Mar_22_1630,60.36842851967742,Cloud_Experiment_FR_REAL,001,27,
images/fcloud65-35_D1.7_7.tif,1.7,1,,,,,,,,,,,,,0,67,67,84,,,,,,,,,,,5,space,5,0.936,3.2508221,,,,,,,,,,,,,,,,,,2019_Mar_22_1630,60.36842851967742,Cloud_Experiment_FR_REAL,001,27,
images/fcloud80-20_D0.8_9.tif,0.8,2,,,,,,,,,,,,,0,68,68,98,,,,,,,,,,,5,space,3,1.417,3.2961969,,,,,,,,,,,,,,,,,,2019_Mar_22_1630,60.36842851967742,Cloud_Experiment_FR_REAL,001,27,
images/fcloud80-20_D1_8.tif,1.0,2,,,,,,,,,,,,,0,69,69,105,,,,,,,,,,,3,space,5,0.736,3.2899557,,,,,,,,,,,,,,,,,,2019_Mar_22_1630,60.36842851967742,Cloud_Experiment_FR_REAL,001,27,
images/fcloud80-20_D1.4_9.tif,1.4,2,,,,,,,,,,,,,0,70,70,122,,,,,,,,,,,1,space,5,1.119,2.2434964,,,,,,,,,,,,,,,,,,2019_Mar_22_1630,60.36842851967742,Cloud_Experiment_FR_REAL,001,27,
images/fcloud_D1_10.tif,1.0,0,,,,,,,,,,,,,0,71,71,11,,,,,,,,,,,3,space,5,0.987,3.5373532,,,,,,,,,,,,,,,,,,2019_Mar_22_1630,60.36842851967742,Cloud_Experiment_FR_REAL,001,27,
images/fcloud65-35_D1.4_9.tif,1.4,1,,,,,,,,,,,,,0,72,72,74,,,,,,,,,,,2,space,4,1.435,6.1564106,,,,,,,,,,,,,,,,,,2019_Mar_22_1630,60.36842851967742,Cloud_Experiment_FR_REAL,001,27,
images/fcloud_D1.9_7.tif,1.9,0,,,,,,,,,,,,,0,73,73,44,,,,,,,,,,,2,space,3,0.968,3.2980836,,,,,,,,,,,,,,,,,,2019_Mar_22_1630,60.36842851967742,Cloud_Experiment_FR_REAL,001,27,
images/fcloud65-35_D1.9_10.tif,1.9,1,,,,,,,,,,,,,0,74,74,95,,,,,,,,,,,4,space,5,0.536,2.0588867,,,,,,,,,,,,,,,,,,2019_Mar_22_1630,60.36842851967742,Cloud_Experiment_FR_REAL,001,27,
images/fcloud80-20_D1.1_8.tif,1.1,2,,,,,,,,,,,,,0,75,75,109,,,,,,,,,,,None,None,None,60.083,,,,,,,,,,,,,,,,,,,2019_Mar_22_1630,60.36842851967742,Cloud_Experiment_FR_REAL,001,27,
images/fcloud65-35_D1.3_8.tif,1.3,1,,,,,,,,,,,,,0,76,76,69,,,,,,,,,,,3,space,4,0.553,1.4853485,,,,,,,,,,,,,,,,,,2019_Mar_22_1630,60.36842851967742,Cloud_Experiment_FR_REAL,001,27,
images/fcloud65-35_D1_8.tif,1.0,1,,,,,,,,,,,,,0,77,77,57,,,,,,,,,,,3,space,3,1.168,3.6596519,,,,,,,,,,,,,,,,,,2019_Mar_22_1630,60.36842851967742,Cloud_Experiment_FR_REAL,001,27,
images/fcloud65-35_D1.1_8.tif,1.1,1,,,,,,,,,,,,,0,78,78,61,,,,,,,,,,,2,space,3,0.985,2.9710856,,,,,,,,,,,,,,,,,,2019_Mar_22_1630,60.36842851967742,Cloud_Experiment_FR_REAL,001,27,
images/fcloud65-35_D1.8_10.tif,1.8,1,,,,,,,,,,,,,0,79,79,91,,,,,,,,,,,None,None,None,11.175,,,,,,,,,,,,,,,,,,,2019_Mar_22_1630,60.36842851967742,Cloud_Experiment_FR_REAL,001,27,
images/fcloud80-20_D0.8_7.tif,0.8,2,,,,,,,,,,,,,0,80,80,96,,,,,,,,,,,3,space,5,0.57,2.0637612,,,,,,,,,,,,,,,,,,2019_Mar_22_1630,60.36842851967742,Cloud_Experiment_FR_REAL,001,27,
images/fcloud80-20_D1.1_9.tif,1.1,2,,,,,,,,,,,,,0,81,81,110,,,,,,,,,,,3,space,4,1.103,1.4152228,,,,,,,,,,,,,,,,,,2019_Mar_22_1630,60.36842851967742,Cloud_Experiment_FR_REAL,001,27,
images/fcloud80-20_D0.9_9.tif,0.9,2,,,,,,,,,,,,,0,82,82,102,,,,,,,,,,,3,space,2,0.736,3.8555797,,,,,,,,,,,,,,,,,,2019_Mar_22_1630,60.36842851967742,Cloud_Experiment_FR_REAL,001,27,
images/fcloud65-35_D1.5_8.tif,1.5,1,,,,,,,,,,,,,0,83,83,77,,,,,,,,,,,3,space,5,1.152,2.019209,,,,,,,,,,,,,,,,,,2019_Mar_22_1630,60.36842851967742,Cloud_Experiment_FR_REAL,001,27,
images/fcloud80-20_D1.3_10.tif,1.3,2,,,,,,,,,,,,,0,84,84,119,,,,,,,,,,,3,space,3,1.202,4.101171,,,,,,,,,,,,,,,,,,2019_Mar_22_1630,60.36842851967742,Cloud_Experiment_FR_REAL,001,27,
images/fcloud80-20_D1.2_10.tif,1.2,2,,,,,,,,,,,,,0,85,85,115,,,,,,,,,,,None,None,None,14.39,,,,,,,,,,,,,,,,,,,2019_Mar_22_1630,60.36842851967742,Cloud_Experiment_FR_REAL,001,27,
images/fcloud80-20_D1.6_7.tif,1.6,2,,,,,,,,,,,,,0,86,86,128,,,,,,,,,,,2,space,3,1.617,3.0742581,,,,,,,,,,,,,,,,,,2019_Mar_22_1630,60.36842851967742,Cloud_Experiment_FR_REAL,001,27,
images/fcloud_D1.6_7.tif,1.6,0,,,,,,,,,,,,,0,87,87,32,,,,,,,,,,,4,space,3,0.801,3.9485951,,,,,,,,,,,,,,,,,,2019_Mar_22_1630,60.36842851967742,Cloud_Experiment_FR_REAL,001,27,
images/fcloud_D0.8_9.tif,0.8,0,,,,,,,,,,,,,0,88,88,2,,,,,,,,,,,2,space,5,0.601,3.9538913,,,,,,,,,,,,,,,,,,2019_Mar_22_1630,60.36842851967742,Cloud_Experiment_FR_REAL,001,27,
images/fcloud65-35_D1.1_9.tif,1.1,1,,,,,,,,,,,,,0,89,89,62,,,,,,,,,,,None,None,None,9.827,,,,,,,,,,,,,,,,,,,2019_Mar_22_1630,60.36842851967742,Cloud_Experiment_FR_REAL,001,27,
images/fcloud80-20_D1.5_8.tif,1.5,2,,,,,,,,,,,,,0,90,90,125,,,,,,,,,,,5,space,5,0.603,1.6049533,,,,,,,,,,,,,,,,,,2019_Mar_22_1630,60.36842851967742,Cloud_Experiment_FR_REAL,001,27,
images/fcloud_D1.2_8.tif,1.2,0,,,,,,,,,,,,,0,91,91,17,,,,,,,,,,,1,space,1,0.808,3.2160742,,,,,,,,,,,,,,,,,,2019_Mar_22_1630,60.36842851967742,Cloud_Experiment_FR_REAL,001,27,
images/fcloud65-35_D1.4_8.tif,1.4,1,,,,,,,,,,,,,0,92,92,73,,,,,,,,,,,3,space,5,1.069,0.990809200001,,,,,,,,,,,,,,,,,,2019_Mar_22_1630,60.36842851967742,Cloud_Experiment_FR_REAL,001,27,
images/fcloud80-20_D1.6_9.tif,1.6,2,,,,,,,,,,,,,0,93,93,130,,,,,,,,,,,3,space,4,1.202,6.9036363,,,,,,,,,,,,,,,,,,2019_Mar_22_1630,60.36842851967742,Cloud_Experiment_FR_REAL,001,27,
images/fcloud_D1.7_7.tif,1.7,0,,,,,,,,,,,,,0,94,94,36,,,,,,,,,,,2,space,2,0.635,2.3179972,,,,,,,,,,,,,,,,,,2019_Mar_22_1630,60.36842851967742,Cloud_Experiment_FR_REAL,001,27,
images/fcloud80-20_D1.3_7.tif,1.3,2,,,,,,,,,,,,,0,95,95,116,,,,,,,,,,,None,space,None,10.193,7.8718417,,,,,,,,,,,,,,,,,,2019_Mar_22_1630,60.36842851967742,Cloud_Experiment_FR_REAL,001,27,
images/fcloud_D1.2_7.tif,1.2,0,,,,,,,,,,,,,0,96,96,16,,,,,,,,,,,4,space,4,0.801,1.6759849,,,,,,,,,,,,,,,,,,2019_Mar_22_1630,60.36842851967742,Cloud_Experiment_FR_REAL,001,27,
images/fcloud80-20_D1.5_7.tif,1.5,2,,,,,,,,,,,,,0,97,97,124,,,,,,,,,,,4,space,4,0.702,1.4349861,,,,,,,,,,,,,,,,,,2019_Mar_22_1630,60.36842851967742,Cloud_Experiment_FR_REAL,001,27,
images/fcloud80-20_D1.5_9.tif,1.5,2,,,,,,,,,,,,,0,98,98,126,,,,,,,,,,,None,None,None,10.31,,,,,,,,,,,,,,,,,,,2019_Mar_22_1630,60.36842851967742,Cloud_Experiment_FR_REAL,001,27,
images/fcloud65-35_D0.9_7.tif,0.9,1,,,,,,,,,,,,,0,99,99,52,,,,,,,,,,,1,space,3,0.786,5.6752701,,,,,,,,,,,,,,,,,,2019_Mar_22_1630,60.36842851967742,Cloud_Experiment_FR_REAL,001,27,
images/fcloud_D1.1_9.tif,1.1,0,,,,,,,,,,,,,0,100,100,14,,,,,,,,,,,3,space,3,1.002,3.4904176,,,,,,,,,,,,,,,,,,2019_Mar_22_1630,60.36842851967742,Cloud_Experiment_FR_REAL,001,27,
images/fcloud_D1.8_7.tif,1.8,0,,,,,,,,,,,,,0,101,101,40,,,,,,,,,,,2,space,3,0.986,3.837936,,,,,,,,,,,,,,,,,,2019_Mar_22_1630,60.36842851967742,Cloud_Experiment_FR_REAL,001,27,
images/fcloud80-20_D0.9_10.tif,0.9,2,,,,,,,,,,,,,0,102,102,103,,,,,,,,,,,3,space,3,0.568,2.264237,,,,,,,,,,,,,,,,,,2019_Mar_22_1630,60.36842851967742,Cloud_Experiment_FR_REAL,001,27,
images/fcloud80-20_D1.2_9.tif,1.2,2,,,,,,,,,,,,,0,103,103,114,,,,,,,,,,,None,None,None,9.925,,,,,,,,,,,,,,,,,,,2019_Mar_22_1630,60.36842851967742,Cloud_Experiment_FR_REAL,001,27,
images/fcloud80-20_D1.4_10.tif,1.4,2,,,,,,,,,,,,,0,104,104,123,,,,,,,,,,,1,space,3,0.985,5.0807614,,,,,,,,,,,,,,,,,,2019_Mar_22_1630,60.36842851967742,Cloud_Experiment_FR_REAL,001,27,
images/fcloud65-35_D0.9_9.tif,0.9,1,,,,,,,,,,,,,0,105,105,54,,,,,,,,,,,None,None,None,9.842,,,,,,,,,,,,,,,,,,,2019_Mar_22_1630,60.36842851967742,Cloud_Experiment_FR_REAL,001,27,
images/fcloud_D1.9_10.tif,1.9,0,,,,,,,,,,,,,0,106,106,47,,,,,,,,,,,None,None,None,20.099,,,,,,,,,,,,,,,,,,,2019_Mar_22_1630,60.36842851967742,Cloud_Experiment_FR_REAL,001,27,
images/fcloud80-20_D1.3_9.tif,1.3,2,,,,,,,,,,,,,0,107,107,118,,,,,,,,,,,3,space,2,1.268,5.8923509,,,,,,,,,,,,,,,,,,2019_Mar_22_1630,60.36842851967742,Cloud_Experiment_FR_REAL,001,27,
images/fcloud_D1.4_7.tif,1.4,0,,,,,,,,,,,,,0,108,108,24,,,,,,,,,,,3,space,2,1.436,5.656129,,,,,,,,,,,,,,,,,,2019_Mar_22_1630,60.36842851967742,Cloud_Experiment_FR_REAL,001,27,
images/fcloud65-35_D1_9.tif,1.0,1,,,,,,,,,,,,,0,109,109,58,,,,,,,,,,,None,space,None,12.275,10.6684443,,,,,,,,,,,,,,,,,,2019_Mar_22_1630,60.36842851967742,Cloud_Experiment_FR_REAL,001,27,
images/fcloud_D1.8_10.tif,1.8,0,,,,,,,,,,,,,0,110,110,43,,,,,,,,,,,3,space,2,0.9,3.0722604,,,,,,,,,,,,,,,,,,2019_Mar_22_1630,60.36842851967742,Cloud_Experiment_FR_REAL,001,27,
images/fcloud80-20_D1.9_10.tif,1.9,2,,,,,,,,,,,,,0,111,111,143,,,,,,,,,,,3,space,4,1.302,2.0609744,,,,,,,,,,,,,,,,,,2019_Mar_22_1630,60.36842851967742,Cloud_Experiment_FR_REAL,001,27,
images/fcloud80-20_D1.4_8.tif,1.4,2,,,,,,,,,,,,,0,112,112,121,,,,,,,,,,,None,None,None,10.627,,,,,,,,,,,,,,,,,,,2019_Mar_22_1630,60.36842851967742,Cloud_Experiment_FR_REAL,001,27,
images/fcloud_D1.9_9.tif,1.9,0,,,,,,,,,,,,,0,113,113,46,,,,,,,,,,,None,None,None,19.901,,,,,,,,,,,,,,,,,,,2019_Mar_22_1630,60.36842851967742,Cloud_Experiment_FR_REAL,001,27,
images/fcloud65-35_D1.3_9.tif,1.3,1,,,,,,,,,,,,,0,114,114,70,,,,,,,,,,,3,space,2,0.786,3.2941935,,,,,,,,,,,,,,,,,,2019_Mar_22_1630,60.36842851967742,Cloud_Experiment_FR_REAL,001,27,
images/fcloud_D1.8_8.tif,1.8,0,,,,,,,,,,,,,0,115,115,41,,,,,,,,,,,None,None,None,31.724,,,,,,,,,,,,,,,,,,,2019_Mar_22_1630,60.36842851967742,Cloud_Experiment_FR_REAL,001,27,
images/fcloud_D1.6_9.tif,1.6,0,,,,,,,,,,,,,0,116,116,34,,,,,,,,,,,2,space,3,1.035,5.9694794,,,,,,,,,,,,,,,,,,2019_Mar_22_1630,60.36842851967742,Cloud_Experiment_FR_REAL,001,27,
images/fcloud_D1.8_9.tif,1.8,0,,,,,,,,,,,,,0,117,117,42,,,,,,,,,,,3,space,2,0.486,2.3243592,,,,,,,,,,,,,,,,,,2019_Mar_22_1630,60.36842851967742,Cloud_Experiment_FR_REAL,001,27,
images/fcloud_D1.1_10.tif,1.1,0,,,,,,,,,,,,,0,118,118,15,,,,,,,,,,,3,space,4,1.552,2.1610271,,,,,,,,,,,,,,,,,,2019_Mar_22_1630,60.36842851967742,Cloud_Experiment_FR_REAL,001,27,
images/fcloud80-20_D0.9_8.tif,0.9,2,,,,,,,,,,,,,0,119,119,101,,,,,,,,,,,5,space,4,2.251,1.0991438,,,,,,,,,,,,,,,,,,2019_Mar_22_1630,60.36842851967742,Cloud_Experiment_FR_REAL,001,27,
images/fcloud65-35_D1.5_9.tif,1.5,1,,,,,,,,,,,,,0,120,120,78,,,,,,,,,,,None,None,None,16.121,,,,,,,,,,,,,,,,,,,2019_Mar_22_1630,60.36842851967742,Cloud_Experiment_FR_REAL,001,27,
images/fcloud80-20_D1.9_7.tif,1.9,2,,,,,,,,,,,,,0,121,121,140,,,,,,,,,,,3,space,2,0.869,2.1265914,,,,,,,,,,,,,,,,,,2019_Mar_22_1630,60.36842851967742,Cloud_Experiment_FR_REAL,001,27,
images/fcloud_D1.1_8.tif,1.1,0,,,,,,,,,,,,,0,122,122,13,,,,,,,,,,,1,space,1,4.515,5.2296428,,,,,,,,,,,,,,,,,,2019_Mar_22_1630,60.36842851967742,Cloud_Experiment_FR_REAL,001,27,
images/fcloud65-35_D1.9_7.tif,1.9,1,,,,,,,,,,,,,0,123,123,92,,,,,,,,,,,3,space,3,1.085,5.1796094,,,,,,,,,,,,,,,,,,2019_Mar_22_1630,60.36842851967742,Cloud_Experiment_FR_REAL,001,27,
images/fcloud65-35_D1.2_9.tif,1.2,1,,,,,,,,,,,,,0,124,124,66,,,,,,,,,,,3,space,2,0.685,2.0493114,,,,,,,,,,,,,,,,,,2019_Mar_22_1630,60.36842851967742,Cloud_Experiment_FR_REAL,001,27,
images/fcloud80-20_D1.7_9.tif,1.7,2,,,,,,,,,,,,,0,125,125,134,,,,,,,,,,,5,space,3,1.001,1.5327915,,,,,,,,,,,,,,,,,,2019_Mar_22_1630,60.36842851967742,Cloud_Experiment_FR_REAL,001,27,
images/fcloud80-20_D1_7.tif,1.0,2,,,,,,,,,,,,,0,126,126,104,,,,,,,,,,,4,space,2,1.168,2.0122198,,,,,,,,,,,,,,,,,,2019_Mar_22_1630,60.36842851967742,Cloud_Experiment_FR_REAL,001,27,
images/fcloud_D1.3_8.tif,1.3,0,,,,,,,,,,,,,0,127,127,21,,,,,,,,,,,3,space,2,1.12,4.9895588,,,,,,,,,,,,,,,,,,2019_Mar_22_1630,60.36842851967742,Cloud_Experiment_FR_REAL,001,27,
images/fcloud_D1.4_10.tif,1.4,0,,,,,,,,,,,,,0,128,128,27,,,,,,,,,,,5,space,3,2.001,1.509672,,,,,,,,,,,,,,,,,,2019_Mar_22_1630,60.36842851967742,Cloud_Experiment_FR_REAL,001,27,
images/fcloud80-20_D1.8_9.tif,1.8,2,,,,,,,,,,,,,0,129,129,138,,,,,,,,,,,3,space,2,1.884,1.4497192,,,,,,,,,,,,,,,,,,2019_Mar_22_1630,60.36842851967742,Cloud_Experiment_FR_REAL,001,27,
images/fcloud65-35_D1.3_7.tif,1.3,1,,,,,,,,,,,,,0,130,130,68,,,,,,,,,,,None,None,None,11.408,,,,,,,,,,,,,,,,,,,2019_Mar_22_1630,60.36842851967742,Cloud_Experiment_FR_REAL,001,27,
images/fcloud80-20_D1.8_10.tif,1.8,2,,,,,,,,,,,,,0,131,131,139,,,,,,,,,,,None,None,None,21.915,,,,,,,,,,,,,,,,,,,2019_Mar_22_1630,60.36842851967742,Cloud_Experiment_FR_REAL,001,27,
images/fcloud80-20_D1.6_10.tif,1.6,2,,,,,,,,,,,,,0,132,132,131,,,,,,,,,,,5,space,4,1.168,1.5083242,,,,,,,,,,,,,,,,,,2019_Mar_22_1630,60.36842851967742,Cloud_Experiment_FR_REAL,001,27,
images/fcloud65-35_D0.9_8.tif,0.9,1,,,,,,,,,,,,,0,133,133,53,,,,,,,,,,,2,space,4,0.968,2.8661475,,,,,,,,,,,,,,,,,,2019_Mar_22_1630,60.36842851967742,Cloud_Experiment_FR_REAL,001,27,
images/fcloud_D0.9_10.tif,0.9,0,,,,,,,,,,,,,0,134,134,7,,,,,,,,,,,3,space,3,1.369,1.3411044,,,,,,,,,,,,,,,,,,2019_Mar_22_1630,60.36842851967742,Cloud_Experiment_FR_REAL,001,27,
images/fcloud80-20_D1.8_8.tif,1.8,2,,,,,,,,,,,,,0,135,135,137,,,,,,,,,,,1,space,5,0.967,4.3327352,,,,,,,,,,,,,,,,,,2019_Mar_22_1630,60.36842851967742,Cloud_Experiment_FR_REAL,001,27,
images/fcloud65-35_D0.9_10.tif,0.9,1,,,,,,,,,,,,,0,136,136,55,,,,,,,,,,,1,space,2,0.586,5.0858256,,,,,,,,,,,,,,,,,,2019_Mar_22_1630,60.36842851967742,Cloud_Experiment_FR_REAL,001,27,
images/fcloud65-35_D1.9_8.tif,1.9,1,,,,,,,,,,,,,0,137,137,93,,,,,,,,,,,2,space,5,0.586,1.9084503,,,,,,,,,,,,,,,,,,2019_Mar_22_1630,60.36842851967742,Cloud_Experiment_FR_REAL,001,27,
images/fcloud_D0.9_9.tif,0.9,0,,,,,,,,,,,,,0,138,138,6,,,,,,,,,,,3,space,3,0.701,4.4762432,,,,,,,,,,,,,,,,,,2019_Mar_22_1630,60.36842851967742,Cloud_Experiment_FR_REAL,001,27,
images/fcloud80-20_D0.9_7.tif,0.9,2,,,,,,,,,,,,,0,139,139,100,,,,,,,,,,,1,space,1,0.42,4.9957476,,,,,,,,,,,,,,,,,,2019_Mar_22_1630,60.36842851967742,Cloud_Experiment_FR_REAL,001,27,
images/fcloud_D1.3_9.tif,1.3,0,,,,,,,,,,,,,0,140,140,22,,,,,,,,,,,1,space,2,2.284,2.9910844,,,,,,,,,,,,,,,,,,2019_Mar_22_1630,60.36842851967742,Cloud_Experiment_FR_REAL,001,27,
images/fcloud80-20_D1.6_8.tif,1.6,2,,,,,,,,,,,,,0,141,141,129,,,,,,,,,,,2,space,3,1.269,4.0165412,,,,,,,,,,,,,,,,,,2019_Mar_22_1630,60.36842851967742,Cloud_Experiment_FR_REAL,001,27,
images/fcloud65-35_D1.4_7.tif,1.4,1,,,,,,,,,,,,,0,142,142,72,,,,,,,,,,,2,None,2,3.265,,,,,,,,,,,,,,,,,,,2019_Mar_22_1630,60.36842851967742,Cloud_Experiment_FR_REAL,001,27,
images/fcloud80-20_D1.7_10.tif,1.7,2,,,,,,,,,,,,,0,143,143,135,,,,,,,,,,,1,space,1,0.702,4.6244952,,,,,,,,,,,,,,,,,,2019_Mar_22_1630,60.36842851967742,Cloud_Experiment_FR_REAL,001,27,
,,,,,,,,,,,,,,,,,,,,,,,,,1,6.034,,,,,,,,,,,,,,,,,,,,,,,,,2019_Mar_22_1630,60.36842851967742,Cloud_Experiment_FR_REAL,001,27,
,,,,,,,,,,,,,,,,,,,,,,,,,,,,,,,,,,4,,,,,,,,,,,,,,,,,2019_Mar_22_1630,60.36842851967742,Cloud_Experiment_FR_REAL,001,27,
,,,,,,,,,,,,,,,,,,,,,,,,,,,,,,,,,,,2,,,,,,,,,,,,,,,,2019_Mar_22_1630,60.36842851967742,Cloud_Experiment_FR_REAL,001,27,
,,,,,,,,,,,,,,,,,,,,,,,,,,,,,,,,,,,,1,,,,,,,,,,,,,,,2019_Mar_22_1630,60.36842851967742,Cloud_Experiment_FR_REAL,001,27,
,,,,,,,,,,,,,,,,,,,,,,,,,,,,,,,,,,,,,1,,,,,,,,,,,,,,2019_Mar_22_1630,60.36842851967742,Cloud_Experiment_FR_REAL,001,27,
,,,,,,,,,,,,,,,,,,,,,,,,,,,,,,,,,,,,,,2,,,,,,,,,,,,,2019_Mar_22_1630,60.36842851967742,Cloud_Experiment_FR_REAL,001,27,
,,,,,,,,,,,,,,,,,,,,,,,,,,,,,,,,,,,,,,,1,,,,,,,,,,,,2019_Mar_22_1630,60.36842851967742,Cloud_Experiment_FR_REAL,001,27,
,,,,,,,,,,,,,,,,,,,,,,,,,,,,,,,,,,,,,,,,6,,,,,,,,,,,2019_Mar_22_1630,60.36842851967742,Cloud_Experiment_FR_REAL,001,27,
,,,,,,,,,,,,,,,,,,,,,,,,,,,,,,,,,,,,,,,,,6,,,,,,,,,,2019_Mar_22_1630,60.36842851967742,Cloud_Experiment_FR_REAL,001,27,
,,,,,,,,,,,,,,,,,,,,,,,,,,,,,,,,,,,,,,,,,,3,,,,,,,,,2019_Mar_22_1630,60.36842851967742,Cloud_Experiment_FR_REAL,001,27,
,,,,,,,,,,,,,,,,,,,,,,,,,,,,,,,,,,,,,,,,,,,3,,,,,,,,2019_Mar_22_1630,60.36842851967742,Cloud_Experiment_FR_REAL,001,27,
,,,,,,,,,,,,,,,,,,,,,,,,,,,,,,,,,,,,,,,,,,,,,,,,,,5,2019_Mar_22_1630,60.36842851967742,Cloud_Experiment_FR_REAL,001,27,
