ImageFile,FD,Contrast,trials_4.thisRepN,trials_4.thisTrialN,trials_4.thisN,trials_4.thisIndex,trials.thisRepN,trials.thisTrialN,trials.thisN,trials.thisIndex,trials_2.thisRepN,trials_2.thisTrialN,trials_2.thisN,trials_2.thisIndex,trials_3.thisRepN,trials_3.thisTrialN,trials_3.thisN,trials_3.thisIndex,end_instructions.keys,end_instructions.rt,key_resp_4.keys,key_resp_4.rt,key_resp_6.keys,key_resp_6.rt,Fatigue.response,Fatigue.rt,key_resp_5.keys,key_resp_5.rt,n_objets.response,reaction_time.keys,reaction_time.rt,vividness.response,vividness.rt,Flow01.response,Flow02.response,Flow03.response,Flow04.response,Flow05.response,Flow06.response,Flow07.response,Flow08.response,Flow09.response,Flow10.response,key_resp_2.keys,key_resp_2.rt,key_resp_8.keys,key_resp_8.rt,key_resp_3.keys,key_resp_3.rt,Redondance_question.response,date,frameRate,expName,session,participant,
,,,,,,,,,,,,,,,,,,,space,7.9354132,,,,,,,,,,,,,,,,,,,,,,,,,,,,,,,2019_Mar_25_1619,60.45609285182913,Cloud_Experiment_FR_REAL,001,28,
,,,,,,,,,,,,,,,,,,,,,space,33.4208633,,,,,,,,,,,,,,,,,,,,,,,,,,,,,2019_Mar_25_1619,60.45609285182913,Cloud_Experiment_FR_REAL,001,28,
,,,,,,,,,,,,,,,,,,,,,,,space,9.94273100002,,,,,,,,,,,,,,,,,,,,,,,,,,,2019_Mar_25_1619,60.45609285182913,Cloud_Experiment_FR_REAL,001,28,
,,,,,,,,,,,,,,,,,,,,,,,,,6,190.068,,,,,,,,,,,,,,,,,,,,,,,,,2019_Mar_25_1619,60.45609285182913,Cloud_Experiment_FR_REAL,001,28,
,,,,,,,,,,,,,,,,,,,,,,,,,,,space,6.1131202,,,,,,,,,,,,,,,,,,,,,,,2019_Mar_25_1619,60.45609285182913,Cloud_Experiment_FR_REAL,001,28,
pratique/fcloud65-35_D1.3_30,1.3,1,0,0,0,6,,,,,,,,,,,,,,,,,,,,,,,1,space,5.42201939999,3,11.011,,,,,,,,,,,,,,,,,,2019_Mar_25_1619,60.45609285182913,Cloud_Experiment_FR_REAL,001,28,
pratique/fcloud80-20_D1.5_30,1.5,2,0,1,1,8,,,,,,,,,,,,,,,,,,,,,,,1,space,5.02733680001,5,2.485,,,,,,,,,,,,,,,,,,2019_Mar_25_1619,60.45609285182913,Cloud_Experiment_FR_REAL,001,28,
pratique/fcloud_D1.4_30,1.4,0,0,2,2,1,,,,,,,,,,,,,,,,,,,,,,,1,None,,4,4.049,,,,,,,,,,,,,,,,,,2019_Mar_25_1619,60.45609285182913,Cloud_Experiment_FR_REAL,001,28,
pratique/fcloud65-35_D1.6_30,1.6,1,0,3,3,2,,,,,,,,,,,,,,,,,,,,,,,None,None,,None,13.975,,,,,,,,,,,,,,,,,,2019_Mar_25_1619,60.45609285182913,Cloud_Experiment_FR_REAL,001,28,
pratique/fcloud65-35_D1.2_30,1.2,1,0,4,4,3,,,,,,,,,,,,,,,,,,,,,,,1,space,5.41730550001,5,2.367,,,,,,,,,,,,,,,,,,2019_Mar_25_1619,60.45609285182913,Cloud_Experiment_FR_REAL,001,28,
pratique/fcloud_D1.6_28,1.6,0,0,5,5,5,,,,,,,,,,,,,,,,,,,,,,,2,space,3.44036810001,5,14.64,,,,,,,,,,,,,,,,,,2019_Mar_25_1619,60.45609285182913,Cloud_Experiment_FR_REAL,001,28,
pratique/fcloud65-35_D1.9_29,1.9,1,0,6,6,7,,,,,,,,,,,,,,,,,,,,,,,None,None,,None,24.179,,,,,,,,,,,,,,,,,,2019_Mar_25_1619,60.45609285182913,Cloud_Experiment_FR_REAL,001,28,
pratique/fcloud_D0.8_30,0.8,0,0,7,7,0,,,,,,,,,,,,,,,,,,,,,,,None,None,,None,33.455,,,,,,,,,,,,,,,,,,2019_Mar_25_1619,60.45609285182913,Cloud_Experiment_FR_REAL,001,28,
pratique/fcloud80-20_D1_30,1.0,2,0,8,8,9,,,,,,,,,,,,,,,,,,,,,,,1,space,6.21306139999,2,2.732,,,,,,,,,,,,,,,,,,2019_Mar_25_1619,60.45609285182913,Cloud_Experiment_FR_REAL,001,28,
pratique/fcloud80-20_D1.8_30,1.8,2,0,9,9,4,,,,,,,,,,,,,,,,,,,,,,,1,None,,1,1.92,,,,,,,,,,,,,,,,,,2019_Mar_25_1619,60.45609285182913,Cloud_Experiment_FR_REAL,001,28,
,,,,,,,,,,,,,,,,,,,,,,,,,,,,,,,,,,3,,,,,,,,,,,,,,,,,2019_Mar_25_1619,60.45609285182913,Cloud_Experiment_FR_REAL,001,28,
,,,,,,,,,,,,,,,,,,,,,,,,,,,,,,,,,,,3,,,,,,,,,,,,,,,,2019_Mar_25_1619,60.45609285182913,Cloud_Experiment_FR_REAL,001,28,
,,,,,,,,,,,,,,,,,,,,,,,,,,,,,,,,,,,,2,,,,,,,,,,,,,,,2019_Mar_25_1619,60.45609285182913,Cloud_Experiment_FR_REAL,001,28,
,,,,,,,,,,,,,,,,,,,,,,,,,,,,,,,,,,,,,4,,,,,,,,,,,,,,2019_Mar_25_1619,60.45609285182913,Cloud_Experiment_FR_REAL,001,28,
,,,,,,,,,,,,,,,,,,,,,,,,,,,,,,,,,,,,,,3,,,,,,,,,,,,,2019_Mar_25_1619,60.45609285182913,Cloud_Experiment_FR_REAL,001,28,
,,,,,,,,,,,,,,,,,,,,,,,,,,,,,,,,,,,,,,,2,,,,,,,,,,,,2019_Mar_25_1619,60.45609285182913,Cloud_Experiment_FR_REAL,001,28,
,,,,,,,,,,,,,,,,,,,,,,,,,,,,,,,,,,,,,,,,3,,,,,,,,,,,2019_Mar_25_1619,60.45609285182913,Cloud_Experiment_FR_REAL,001,28,
,,,,,,,,,,,,,,,,,,,,,,,,,,,,,,,,,,,,,,,,,7,,,,,,,,,,2019_Mar_25_1619,60.45609285182913,Cloud_Experiment_FR_REAL,001,28,
,,,,,,,,,,,,,,,,,,,,,,,,,,,,,,,,,,,,,,,,,,6,,,,,,,,,2019_Mar_25_1619,60.45609285182913,Cloud_Experiment_FR_REAL,001,28,
,,,,,,,,,,,,,,,,,,,,,,,,,,,,,,,,,,,,,,,,,,,2,,,,,,,,2019_Mar_25_1619,60.45609285182913,Cloud_Experiment_FR_REAL,001,28,
,,,,,,,,,,,,,,,,,,,,,,,,,,,,,,,,,,,,,,,,,,,,space,1.97163559997,,,,,,2019_Mar_25_1619,60.45609285182913,Cloud_Experiment_FR_REAL,001,28,
images/fcloud_D1.1_3.tif,1.1,0,,,,,0,0,0,11,,,,,,,,,,,,,,,,,,,None,None,,None,84.512,,,,,,,,,,,,,,,,,,2019_Mar_25_1619,60.45609285182913,Cloud_Experiment_FR_REAL,001,28,
images/fcloud_D1.4_1.tif,1.4,0,,,,,0,1,1,18,,,,,,,,,,,,,,,,,,,None,None,,None,94.335,,,,,,,,,,,,,,,,,,2019_Mar_25_1619,60.45609285182913,Cloud_Experiment_FR_REAL,001,28,
images/fcloud65-35_D1.9_2.tif,1.9,1,,,,,0,2,2,70,,,,,,,,,,,,,,,,,,,1,None,,2,1.701,,,,,,,,,,,,,,,,,,2019_Mar_25_1619,60.45609285182913,Cloud_Experiment_FR_REAL,001,28,
images/fcloud80-20_D0.9_3.tif,0.9,2,,,,,0,3,3,77,,,,,,,,,,,,,,,,,,,1,space,5.13099390001,4,2.101,,,,,,,,,,,,,,,,,,2019_Mar_25_1619,60.45609285182913,Cloud_Experiment_FR_REAL,001,28,
images/fcloud65-35_D1.6_1.tif,1.6,1,,,,,0,4,4,60,,,,,,,,,,,,,,,,,,,None,None,,None,11.027,,,,,,,,,,,,,,,,,,2019_Mar_25_1619,60.45609285182913,Cloud_Experiment_FR_REAL,001,28,
images/fcloud65-35_D1.3_2.tif,1.3,1,,,,,0,5,5,52,,,,,,,,,,,,,,,,,,,None,None,,None,20.166,,,,,,,,,,,,,,,,,,2019_Mar_25_1619,60.45609285182913,Cloud_Experiment_FR_REAL,001,28,
images/fcloud80-20_D1.4_1.tif,1.4,2,,,,,0,6,6,90,,,,,,,,,,,,,,,,,,,1,None,,1,1.002,,,,,,,,,,,,,,,,,,2019_Mar_25_1619,60.45609285182913,Cloud_Experiment_FR_REAL,001,28,
images/fcloud80-20_D1.6_1.tif,1.6,2,,,,,0,7,7,96,,,,,,,,,,,,,,,,,,,1,space,4.53557170002,3,1.357,,,,,,,,,,,,,,,,,,2019_Mar_25_1619,60.45609285182913,Cloud_Experiment_FR_REAL,001,28,
images/fcloud_D1.7_1.tif,1.7,0,,,,,0,8,8,27,,,,,,,,,,,,,,,,,,,None,None,,None,10.976,,,,,,,,,,,,,,,,,,2019_Mar_25_1619,60.45609285182913,Cloud_Experiment_FR_REAL,001,28,
images/fcloud65-35_D0.9_1.tif,0.9,1,,,,,0,9,9,39,,,,,,,,,,,,,,,,,,,None,None,,None,19.935,,,,,,,,,,,,,,,,,,2019_Mar_25_1619,60.45609285182913,Cloud_Experiment_FR_REAL,001,28,
images/fcloud_D0.9_2.tif,0.9,0,,,,,0,10,10,4,,,,,,,,,,,,,,,,,,,None,None,,None,28.909,,,,,,,,,,,,,,,,,,2019_Mar_25_1619,60.45609285182913,Cloud_Experiment_FR_REAL,001,28,
images/fcloud80-20_D1.1_2.tif,1.1,2,,,,,0,11,11,82,,,,,,,,,,,,,,,,,,,None,None,,None,37.368,,,,,,,,,,,,,,,,,,2019_Mar_25_1619,60.45609285182913,Cloud_Experiment_FR_REAL,001,28,
images/fcloud80-20_D1.4_3.tif,1.4,2,,,,,0,12,12,92,,,,,,,,,,,,,,,,,,,1,space,6.83826630004,3,2.149,,,,,,,,,,,,,,,,,,2019_Mar_25_1619,60.45609285182913,Cloud_Experiment_FR_REAL,001,28,
images/fcloud_D1.9_3.tif,1.9,0,,,,,0,13,13,35,,,,,,,,,,,,,,,,,,,None,None,,None,11.545,,,,,,,,,,,,,,,,,,2019_Mar_25_1619,60.45609285182913,Cloud_Experiment_FR_REAL,001,28,
images/fcloud65-35_D1.2_3.tif,1.2,1,,,,,0,14,14,50,,,,,,,,,,,,,,,,,,,None,None,,None,20.218,,,,,,,,,,,,,,,,,,2019_Mar_25_1619,60.45609285182913,Cloud_Experiment_FR_REAL,001,28,
images/fcloud80-20_D1.1_1.tif,1.1,2,,,,,0,15,15,81,,,,,,,,,,,,,,,,,,,None,None,,None,28.644,,,,,,,,,,,,,,,,,,2019_Mar_25_1619,60.45609285182913,Cloud_Experiment_FR_REAL,001,28,
images/fcloud65-35_D1.8_2.tif,1.8,1,,,,,0,16,16,67,,,,,,,,,,,,,,,,,,,1,space,6.4554559,2,1.85,,,,,,,,,,,,,,,,,,2019_Mar_25_1619,60.45609285182913,Cloud_Experiment_FR_REAL,001,28,
images/fcloud65-35_D1_3.tif,1.0,1,,,,,0,17,17,44,,,,,,,,,,,,,,,,,,,None,None,,None,11.823,,,,,,,,,,,,,,,,,,2019_Mar_25_1619,60.45609285182913,Cloud_Experiment_FR_REAL,001,28,
images/fcloud_D1.2_1.tif,1.2,0,,,,,0,18,18,12,,,,,,,,,,,,,,,,,,,1,None,,1,1.135,,,,,,,,,,,,,,,,,,2019_Mar_25_1619,60.45609285182913,Cloud_Experiment_FR_REAL,001,28,
images/fcloud65-35_D0.8_2.tif,0.8,1,,,,,0,19,19,37,,,,,,,,,,,,,,,,,,,None,space,7.73943950003,None,9.977,,,,,,,,,,,,,,,,,,2019_Mar_25_1619,60.45609285182913,Cloud_Experiment_FR_REAL,001,28,
images/fcloud65-35_D1.5_2.tif,1.5,1,,,,,0,20,20,58,,,,,,,,,,,,,,,,,,,1,None,,2,1.218,,,,,,,,,,,,,,,,,,2019_Mar_25_1619,60.45609285182913,Cloud_Experiment_FR_REAL,001,28,
images/fcloud80-20_D1.6_2.tif,1.6,2,,,,,0,21,21,97,,,,,,,,,,,,,,,,,,,None,None,,None,10.445,,,,,,,,,,,,,,,,,,2019_Mar_25_1619,60.45609285182913,Cloud_Experiment_FR_REAL,001,28,
images/fcloud_D0.9_3.tif,0.9,0,,,,,0,22,22,5,,,,,,,,,,,,,,,,,,,1,space,5.3177969,2,0.989,,,,,,,,,,,,,,,,,,2019_Mar_25_1619,60.45609285182913,Cloud_Experiment_FR_REAL,001,28,
images/fcloud_D1.9_1.tif,1.9,0,,,,,0,23,23,33,,,,,,,,,,,,,,,,,,,None,space,12.2536858,None,14.455,,,,,,,,,,,,,,,,,,2019_Mar_25_1619,60.45609285182913,Cloud_Experiment_FR_REAL,001,28,
images/fcloud_D1.6_1.tif,1.6,0,,,,,0,24,24,24,,,,,,,,,,,,,,,,,,,1,None,,2,0.77,,,,,,,,,,,,,,,,,,2019_Mar_25_1619,60.45609285182913,Cloud_Experiment_FR_REAL,001,28,
images/fcloud80-20_D1.1_3.tif,1.1,2,,,,,0,25,25,83,,,,,,,,,,,,,,,,,,,1,None,,3,1.219,,,,,,,,,,,,,,,,,,2019_Mar_25_1619,60.45609285182913,Cloud_Experiment_FR_REAL,001,28,
images/fcloud80-20_D1.8_3.tif,1.8,2,,,,,0,26,26,104,,,,,,,,,,,,,,,,,,,None,None,,None,10.66,,,,,,,,,,,,,,,,,,2019_Mar_25_1619,60.45609285182913,Cloud_Experiment_FR_REAL,001,28,
images/fcloud_D1.9_2.tif,1.9,0,,,,,0,27,27,34,,,,,,,,,,,,,,,,,,,None,None,,None,20.834,,,,,,,,,,,,,,,,,,2019_Mar_25_1619,60.45609285182913,Cloud_Experiment_FR_REAL,001,28,
images/fcloud_D1.8_1.tif,1.8,0,,,,,0,28,28,30,,,,,,,,,,,,,,,,,,,2,space,3.09302889998,4,2.599,,,,,,,,,,,,,,,,,,2019_Mar_25_1619,60.45609285182913,Cloud_Experiment_FR_REAL,001,28,
images/fcloud_D1.7_2.tif,1.7,0,,,,,0,29,29,28,,,,,,,,,,,,,,,,,,,1,space,4.52894029999,4,1.437,,,,,,,,,,,,,,,,,,2019_Mar_25_1619,60.45609285182913,Cloud_Experiment_FR_REAL,001,28,
images/fcloud_D1.2_3.tif,1.2,0,,,,,0,30,30,14,,,,,,,,,,,,,,,,,,,None,None,,None,10.56,,,,,,,,,,,,,,,,,,2019_Mar_25_1619,60.45609285182913,Cloud_Experiment_FR_REAL,001,28,
images/fcloud80-20_D1.2_3.tif,1.2,2,,,,,0,31,31,86,,,,,,,,,,,,,,,,,,,None,None,,None,19.103,,,,,,,,,,,,,,,,,,2019_Mar_25_1619,60.45609285182913,Cloud_Experiment_FR_REAL,001,28,
images/fcloud65-35_D0.9_3.tif,0.9,1,,,,,0,32,32,41,,,,,,,,,,,,,,,,,,,1,space,3.51440709998,3,2.217,,,,,,,,,,,,,,,,,,2019_Mar_25_1619,60.45609285182913,Cloud_Experiment_FR_REAL,001,28,
images/fcloud65-35_D1.7_2.tif,1.7,1,,,,,0,33,33,64,,,,,,,,,,,,,,,,,,,1,space,6.32646120002,2,1.035,,,,,,,,,,,,,,,,,,2019_Mar_25_1619,60.45609285182913,Cloud_Experiment_FR_REAL,001,28,
images/fcloud65-35_D1.5_3.tif,1.5,1,,,,,0,34,34,59,,,,,,,,,,,,,,,,,,,1,space,3.84557040001,3,1.751,,,,,,,,,,,,,,,,,,2019_Mar_25_1619,60.45609285182913,Cloud_Experiment_FR_REAL,001,28,
images/fcloud65-35_D1.8_1.tif,1.8,1,,,,,0,35,35,66,,,,,,,,,,,,,,,,,,,None,None,,None,13.805,,,,,,,,,,,,,,,,,,2019_Mar_25_1619,60.45609285182913,Cloud_Experiment_FR_REAL,001,28,
images/fcloud80-20_D1.9_3.tif,1.9,2,,,,,0,36,36,107,,,,,,,,,,,,,,,,,,,None,None,,None,22.934,,,,,,,,,,,,,,,,,,2019_Mar_25_1619,60.45609285182913,Cloud_Experiment_FR_REAL,001,28,
images/fcloud_D1.8_2.tif,1.8,0,,,,,0,37,37,31,,,,,,,,,,,,,,,,,,,2,space,3.23225120001,3,1.767,,,,,,,,,,,,,,,,,,2019_Mar_25_1619,60.45609285182913,Cloud_Experiment_FR_REAL,001,28,
images/fcloud65-35_D1.4_1.tif,1.4,1,,,,,0,38,38,54,,,,,,,,,,,,,,,,,,,None,None,,None,11.441,,,,,,,,,,,,,,,,,,2019_Mar_25_1619,60.45609285182913,Cloud_Experiment_FR_REAL,001,28,
images/fcloud_D1_1.tif,1.0,0,,,,,0,39,39,6,,,,,,,,,,,,,,,,,,,2,space,2.12223600002,4,2.218,,,,,,,,,,,,,,,,,,2019_Mar_25_1619,60.45609285182913,Cloud_Experiment_FR_REAL,001,28,
images/fcloud80-20_D0.9_2.tif,0.9,2,,,,,0,40,40,76,,,,,,,,,,,,,,,,,,,None,None,,None,10.595,,,,,,,,,,,,,,,,,,2019_Mar_25_1619,60.45609285182913,Cloud_Experiment_FR_REAL,001,28,
images/fcloud65-35_D0.9_2.tif,0.9,1,,,,,0,41,41,40,,,,,,,,,,,,,,,,,,,None,None,,None,19.704,,,,,,,,,,,,,,,,,,2019_Mar_25_1619,60.45609285182913,Cloud_Experiment_FR_REAL,001,28,
images/fcloud80-20_D1.3_1.tif,1.3,2,,,,,0,42,42,87,,,,,,,,,,,,,,,,,,,2,space,4.80063729995,2,0.835,,,,,,,,,,,,,,,,,,2019_Mar_25_1619,60.45609285182913,Cloud_Experiment_FR_REAL,001,28,
images/fcloud80-20_D0.8_1.tif,0.8,2,,,,,0,43,43,72,,,,,,,,,,,,,,,,,,,None,None,,None,10.159,,,,,,,,,,,,,,,,,,2019_Mar_25_1619,60.45609285182913,Cloud_Experiment_FR_REAL,001,28,
images/fcloud65-35_D1.6_2.tif,1.6,1,,,,,0,44,44,61,,,,,,,,,,,,,,,,,,,None,None,,None,20.517,,,,,,,,,,,,,,,,,,2019_Mar_25_1619,60.45609285182913,Cloud_Experiment_FR_REAL,001,28,
images/fcloud80-20_D0.9_1.tif,0.9,2,,,,,0,45,45,75,,,,,,,,,,,,,,,,,,,1,space,2.47925019998,2,2.234,,,,,,,,,,,,,,,,,,2019_Mar_25_1619,60.45609285182913,Cloud_Experiment_FR_REAL,001,28,
images/fcloud_D1.8_3.tif,1.8,0,,,,,0,46,46,32,,,,,,,,,,,,,,,,,,,2,space,1.97767749999,4,2.537,,,,,,,,,,,,,,,,,,2019_Mar_25_1619,60.45609285182913,Cloud_Experiment_FR_REAL,001,28,
images/fcloud65-35_D1_1.tif,1.0,1,,,,,0,47,47,42,,,,,,,,,,,,,,,,,,,1,None,,2,1.384,,,,,,,,,,,,,,,,,,2019_Mar_25_1619,60.45609285182913,Cloud_Experiment_FR_REAL,001,28,
images/fcloud80-20_D1.9_2.tif,1.9,2,,,,,0,48,48,106,,,,,,,,,,,,,,,,,,,None,None,,None,13.39,,,,,,,,,,,,,,,,,,2019_Mar_25_1619,60.45609285182913,Cloud_Experiment_FR_REAL,001,28,
images/fcloud_D1.3_1.tif,1.3,0,,,,,0,49,49,15,,,,,,,,,,,,,,,,,,,1,space,6.93029669998,2,0.818,,,,,,,,,,,,,,,,,,2019_Mar_25_1619,60.45609285182913,Cloud_Experiment_FR_REAL,001,28,
images/fcloud65-35_D1.2_1.tif,1.2,1,,,,,0,50,50,48,,,,,,,,,,,,,,,,,,,None,None,,None,9.958,,,,,,,,,,,,,,,,,,2019_Mar_25_1619,60.45609285182913,Cloud_Experiment_FR_REAL,001,28,
images/fcloud80-20_D1.7_1.tif,1.7,2,,,,,0,51,51,99,,,,,,,,,,,,,,,,,,,1,space,1.87735829997,4,1.186,,,,,,,,,,,,,,,,,,2019_Mar_25_1619,60.45609285182913,Cloud_Experiment_FR_REAL,001,28,
images/fcloud_D1.3_2.tif,1.3,0,,,,,0,52,52,16,,,,,,,,,,,,,,,,,,,None,None,,None,10.724,,,,,,,,,,,,,,,,,,2019_Mar_25_1619,60.45609285182913,Cloud_Experiment_FR_REAL,001,28,
images/fcloud80-20_D0.8_3.tif,0.8,2,,,,,0,53,53,74,,,,,,,,,,,,,,,,,,,1,None,,1,0.55,,,,,,,,,,,,,,,,,,2019_Mar_25_1619,60.45609285182913,Cloud_Experiment_FR_REAL,001,28,
images/fcloud65-35_D1.7_1.tif,1.7,1,,,,,0,54,54,63,,,,,,,,,,,,,,,,,,,None,None,,None,9.61,,,,,,,,,,,,,,,,,,2019_Mar_25_1619,60.45609285182913,Cloud_Experiment_FR_REAL,001,28,
images/fcloud80-20_D1.5_2.tif,1.5,2,,,,,0,55,55,94,,,,,,,,,,,,,,,,,,,2,space,6.14415150002,1,0.719,,,,,,,,,,,,,,,,,,2019_Mar_25_1619,60.45609285182913,Cloud_Experiment_FR_REAL,001,28,
images/fcloud_D1.4_3.tif,1.4,0,,,,,0,56,56,20,,,,,,,,,,,,,,,,,,,1,space,7.43672459997,3,1.519,,,,,,,,,,,,,,,,,,2019_Mar_25_1619,60.45609285182913,Cloud_Experiment_FR_REAL,001,28,
images/fcloud65-35_D0.8_1.tif,0.8,1,,,,,0,57,57,36,,,,,,,,,,,,,,,,,,,None,None,,None,10.811,,,,,,,,,,,,,,,,,,2019_Mar_25_1619,60.45609285182913,Cloud_Experiment_FR_REAL,001,28,
images/fcloud80-20_D1.3_3.tif,1.3,2,,,,,0,58,58,89,,,,,,,,,,,,,,,,,,,None,None,,None,19.182,,,,,,,,,,,,,,,,,,2019_Mar_25_1619,60.45609285182913,Cloud_Experiment_FR_REAL,001,28,
images/fcloud80-20_D1.4_2.tif,1.4,2,,,,,0,59,59,91,,,,,,,,,,,,,,,,,,,None,None,,None,27.66,,,,,,,,,,,,,,,,,,2019_Mar_25_1619,60.45609285182913,Cloud_Experiment_FR_REAL,001,28,
images/fcloud_D1.6_3.tif,1.6,0,,,,,0,60,60,26,,,,,,,,,,,,,,,,,,,1,space,3.81113589997,3,1.289,,,,,,,,,,,,,,,,,,2019_Mar_25_1619,60.45609285182913,Cloud_Experiment_FR_REAL,001,28,
images/fcloud65-35_D0.8_3.tif,0.8,1,,,,,0,61,61,38,,,,,,,,,,,,,,,,,,,None,None,,None,11.399,,,,,,,,,,,,,,,,,,2019_Mar_25_1619,60.45609285182913,Cloud_Experiment_FR_REAL,001,28,
images/fcloud65-35_D1.4_2.tif,1.4,1,,,,,0,62,62,55,,,,,,,,,,,,,,,,,,,None,None,,None,21.024,,,,,,,,,,,,,,,,,,2019_Mar_25_1619,60.45609285182913,Cloud_Experiment_FR_REAL,001,28,
images/fcloud_D1.5_3.tif,1.5,0,,,,,0,63,63,23,,,,,,,,,,,,,,,,,,,None,None,,None,30.629,,,,,,,,,,,,,,,,,,2019_Mar_25_1619,60.45609285182913,Cloud_Experiment_FR_REAL,001,28,
images/fcloud80-20_D1.2_1.tif,1.2,2,,,,,0,64,64,84,,,,,,,,,,,,,,,,,,,None,None,,None,39.474,,,,,,,,,,,,,,,,,,2019_Mar_25_1619,60.45609285182913,Cloud_Experiment_FR_REAL,001,28,
images/fcloud80-20_D1.7_3.tif,1.7,2,,,,,0,65,65,101,,,,,,,,,,,,,,,,,,,2,space,4.89472159999,3,1.738,,,,,,,,,,,,,,,,,,2019_Mar_25_1619,60.45609285182913,Cloud_Experiment_FR_REAL,001,28,
images/fcloud80-20_D0.8_2.tif,0.8,2,,,,,0,66,66,73,,,,,,,,,,,,,,,,,,,None,None,,None,11.327,,,,,,,,,,,,,,,,,,2019_Mar_25_1619,60.45609285182913,Cloud_Experiment_FR_REAL,001,28,
images/fcloud_D1.5_2.tif,1.5,0,,,,,0,67,67,22,,,,,,,,,,,,,,,,,,,None,None,,None,21.036,,,,,,,,,,,,,,,,,,2019_Mar_25_1619,60.45609285182913,Cloud_Experiment_FR_REAL,001,28,
images/fcloud_D0.9_1.tif,0.9,0,,,,,0,68,68,3,,,,,,,,,,,,,,,,,,,1,None,,1,1.337,,,,,,,,,,,,,,,,,,2019_Mar_25_1619,60.45609285182913,Cloud_Experiment_FR_REAL,001,28,
images/fcloud65-35_D1.9_1.tif,1.9,1,,,,,0,69,69,69,,,,,,,,,,,,,,,,,,,None,None,,None,10.417,,,,,,,,,,,,,,,,,,2019_Mar_25_1619,60.45609285182913,Cloud_Experiment_FR_REAL,001,28,
images/fcloud65-35_D1.7_3.tif,1.7,1,,,,,0,70,70,65,,,,,,,,,,,,,,,,,,,1,None,,3,1.488,,,,,,,,,,,,,,,,,,2019_Mar_25_1619,60.45609285182913,Cloud_Experiment_FR_REAL,001,28,
images/fcloud_D1.4_2.tif,1.4,0,,,,,0,71,71,19,,,,,,,,,,,,,,,,,,,None,None,,None,11.046,,,,,,,,,,,,,,,,,,2019_Mar_25_1619,60.45609285182913,Cloud_Experiment_FR_REAL,001,28,
images/fcloud_D0.8_2.tif,0.8,0,,,,,0,72,72,1,,,,,,,,,,,,,,,,,,,1,space,6.46990299999,2,0.817,,,,,,,,,,,,,,,,,,2019_Mar_25_1619,60.45609285182913,Cloud_Experiment_FR_REAL,001,28,
images/fcloud65-35_D1.8_3.tif,1.8,1,,,,,0,73,73,68,,,,,,,,,,,,,,,,,,,None,None,,None,10.774,,,,,,,,,,,,,,,,,,2019_Mar_25_1619,60.45609285182913,Cloud_Experiment_FR_REAL,001,28,
images/fcloud_D1_2.tif,1.0,0,,,,,0,74,74,7,,,,,,,,,,,,,,,,,,,2,space,4.1550887,4,1.267,,,,,,,,,,,,,,,,,,2019_Mar_25_1619,60.45609285182913,Cloud_Experiment_FR_REAL,001,28,
images/fcloud65-35_D1.1_1.tif,1.1,1,,,,,0,75,75,45,,,,,,,,,,,,,,,,,,,1,space,7.41376680002,3,1.517,,,,,,,,,,,,,,,,,,2019_Mar_25_1619,60.45609285182913,Cloud_Experiment_FR_REAL,001,28,
images/fcloud_D1.2_2.tif,1.2,0,,,,,0,76,76,13,,,,,,,,,,,,,,,,,,,1,space,3.32776459999,5,1.302,,,,,,,,,,,,,,,,,,2019_Mar_25_1619,60.45609285182913,Cloud_Experiment_FR_REAL,001,28,
images/fcloud65-35_D1.9_3.tif,1.9,1,,,,,0,77,77,71,,,,,,,,,,,,,,,,,,,None,None,,None,10.695,,,,,,,,,,,,,,,,,,2019_Mar_25_1619,60.45609285182913,Cloud_Experiment_FR_REAL,001,28,
images/fcloud65-35_D1.6_3.tif,1.6,1,,,,,0,78,78,62,,,,,,,,,,,,,,,,,,,1,space,6.56065100001,2,2.869,,,,,,,,,,,,,,,,,,2019_Mar_25_1619,60.45609285182913,Cloud_Experiment_FR_REAL,001,28,
images/fcloud_D1.7_3.tif,1.7,0,,,,,0,79,79,29,,,,,,,,,,,,,,,,,,,1,space,4.67020259995,1,1.458,,,,,,,,,,,,,,,,,,2019_Mar_25_1619,60.45609285182913,Cloud_Experiment_FR_REAL,001,28,
images/fcloud80-20_D1.6_3.tif,1.6,2,,,,,0,80,80,98,,,,,,,,,,,,,,,,,,,None,None,,None,10.61,,,,,,,,,,,,,,,,,,2019_Mar_25_1619,60.45609285182913,Cloud_Experiment_FR_REAL,001,28,
images/fcloud65-35_D1.4_3.tif,1.4,1,,,,,0,81,81,56,,,,,,,,,,,,,,,,,,,None,None,,None,19.723,,,,,,,,,,,,,,,,,,2019_Mar_25_1619,60.45609285182913,Cloud_Experiment_FR_REAL,001,28,
images/fcloud65-35_D1.2_2.tif,1.2,1,,,,,0,82,82,49,,,,,,,,,,,,,,,,,,,None,None,,None,29.711,,,,,,,,,,,,,,,,,,2019_Mar_25_1619,60.45609285182913,Cloud_Experiment_FR_REAL,001,28,
images/fcloud65-35_D1.1_3.tif,1.1,1,,,,,0,83,83,47,,,,,,,,,,,,,,,,,,,1,space,4.87084759999,1,1.167,,,,,,,,,,,,,,,,,,2019_Mar_25_1619,60.45609285182913,Cloud_Experiment_FR_REAL,001,28,
images/fcloud80-20_D1.8_1.tif,1.8,2,,,,,0,84,84,102,,,,,,,,,,,,,,,,,,,None,None,,None,10.81,,,,,,,,,,,,,,,,,,2019_Mar_25_1619,60.45609285182913,Cloud_Experiment_FR_REAL,001,28,
images/fcloud80-20_D1_1.tif,1.0,2,,,,,0,85,85,78,,,,,,,,,,,,,,,,,,,None,None,,None,19.916,,,,,,,,,,,,,,,,,,2019_Mar_25_1619,60.45609285182913,Cloud_Experiment_FR_REAL,001,28,
images/fcloud80-20_D1.7_2.tif,1.7,2,,,,,0,86,86,100,,,,,,,,,,,,,,,,,,,None,None,,None,28.727,,,,,,,,,,,,,,,,,,2019_Mar_25_1619,60.45609285182913,Cloud_Experiment_FR_REAL,001,28,
images/fcloud80-20_D1.8_2.tif,1.8,2,,,,,0,87,87,103,,,,,,,,,,,,,,,,,,,1,space,3.10442530003,1,0.688,,,,,,,,,,,,,,,,,,2019_Mar_25_1619,60.45609285182913,Cloud_Experiment_FR_REAL,001,28,
images/fcloud80-20_D1.9_1.tif,1.9,2,,,,,0,88,88,105,,,,,,,,,,,,,,,,,,,1,space,4.74385060003,4,1.168,,,,,,,,,,,,,,,,,,2019_Mar_25_1619,60.45609285182913,Cloud_Experiment_FR_REAL,001,28,
images/fcloud80-20_D1.2_2.tif,1.2,2,,,,,0,89,89,85,,,,,,,,,,,,,,,,,,,1,space,7.48956670001,1,1.052,,,,,,,,,,,,,,,,,,2019_Mar_25_1619,60.45609285182913,Cloud_Experiment_FR_REAL,001,28,
images/fcloud65-35_D1.3_3.tif,1.3,1,,,,,0,90,90,53,,,,,,,,,,,,,,,,,,,1,space,5.39807459997,3,1.516,,,,,,,,,,,,,,,,,,2019_Mar_25_1619,60.45609285182913,Cloud_Experiment_FR_REAL,001,28,
images/fcloud_D1.1_1.tif,1.1,0,,,,,0,91,91,9,,,,,,,,,,,,,,,,,,,None,space,7.45469839999,None,10.545,,,,,,,,,,,,,,,,,,2019_Mar_25_1619,60.45609285182913,Cloud_Experiment_FR_REAL,001,28,
images/fcloud80-20_D1_3.tif,1.0,2,,,,,0,92,92,80,,,,,,,,,,,,,,,,,,,None,None,,None,19.734,,,,,,,,,,,,,,,,,,2019_Mar_25_1619,60.45609285182913,Cloud_Experiment_FR_REAL,001,28,
images/fcloud80-20_D1.5_3.tif,1.5,2,,,,,0,93,93,95,,,,,,,,,,,,,,,,,,,None,None,,None,28.795,,,,,,,,,,,,,,,,,,2019_Mar_25_1619,60.45609285182913,Cloud_Experiment_FR_REAL,001,28,
images/fcloud80-20_D1_2.tif,1.0,2,,,,,0,94,94,79,,,,,,,,,,,,,,,,,,,1,space,4.9930823,3,0.985,,,,,,,,,,,,,,,,,,2019_Mar_25_1619,60.45609285182913,Cloud_Experiment_FR_REAL,001,28,
images/fcloud65-35_D1_2.tif,1.0,1,,,,,0,95,95,43,,,,,,,,,,,,,,,,,,,None,None,,None,10.409,,,,,,,,,,,,,,,,,,2019_Mar_25_1619,60.45609285182913,Cloud_Experiment_FR_REAL,001,28,
images/fcloud65-35_D1.3_1.tif,1.3,1,,,,,0,96,96,51,,,,,,,,,,,,,,,,,,,None,None,,None,19.369,,,,,,,,,,,,,,,,,,2019_Mar_25_1619,60.45609285182913,Cloud_Experiment_FR_REAL,001,28,
images/fcloud_D0.8_1.tif,0.8,0,,,,,0,97,97,0,,,,,,,,,,,,,,,,,,,1,space,5.5421973,2,1.45,,,,,,,,,,,,,,,,,,2019_Mar_25_1619,60.45609285182913,Cloud_Experiment_FR_REAL,001,28,
images/fcloud80-20_D1.3_2.tif,1.3,2,,,,,0,98,98,88,,,,,,,,,,,,,,,,,,,1,space,7.36185310001,1,0.769,,,,,,,,,,,,,,,,,,2019_Mar_25_1619,60.45609285182913,Cloud_Experiment_FR_REAL,001,28,
images/fcloud_D1.6_2.tif,1.6,0,,,,,0,99,99,25,,,,,,,,,,,,,,,,,,,None,space,7.55258600001,None,9.614,,,,,,,,,,,,,,,,,,2019_Mar_25_1619,60.45609285182913,Cloud_Experiment_FR_REAL,001,28,
images/fcloud_D1.3_3.tif,1.3,0,,,,,0,100,100,17,,,,,,,,,,,,,,,,,,,2,space,3.09905879997,4,1.186,,,,,,,,,,,,,,,,,,2019_Mar_25_1619,60.45609285182913,Cloud_Experiment_FR_REAL,001,28,
images/fcloud_D0.8_3.tif,0.8,0,,,,,0,101,101,2,,,,,,,,,,,,,,,,,,,1,space,6.68934630003,4,2.283,,,,,,,,,,,,,,,,,,2019_Mar_25_1619,60.45609285182913,Cloud_Experiment_FR_REAL,001,28,
images/fcloud_D1.5_1.tif,1.5,0,,,,,0,102,102,21,,,,,,,,,,,,,,,,,,,1,space,4.68260459998,3,1.434,,,,,,,,,,,,,,,,,,2019_Mar_25_1619,60.45609285182913,Cloud_Experiment_FR_REAL,001,28,
images/fcloud_D1.1_2.tif,1.1,0,,,,,0,103,103,10,,,,,,,,,,,,,,,,,,,None,None,,None,12.408,,,,,,,,,,,,,,,,,,2019_Mar_25_1619,60.45609285182913,Cloud_Experiment_FR_REAL,001,28,
images/fcloud_D1_3.tif,1.0,0,,,,,0,104,104,8,,,,,,,,,,,,,,,,,,,None,None,,None,21.383,,,,,,,,,,,,,,,,,,2019_Mar_25_1619,60.45609285182913,Cloud_Experiment_FR_REAL,001,28,
images/fcloud80-20_D1.5_1.tif,1.5,2,,,,,0,105,105,93,,,,,,,,,,,,,,,,,,,None,None,,None,29.91,,,,,,,,,,,,,,,,,,2019_Mar_25_1619,60.45609285182913,Cloud_Experiment_FR_REAL,001,28,
images/fcloud65-35_D1.5_1.tif,1.5,1,,,,,0,106,106,57,,,,,,,,,,,,,,,,,,,2,space,5.41913230001,1,1.167,,,,,,,,,,,,,,,,,,2019_Mar_25_1619,60.45609285182913,Cloud_Experiment_FR_REAL,001,28,
images/fcloud65-35_D1.1_2.tif,1.1,1,,,,,0,107,107,46,,,,,,,,,,,,,,,,,,,None,None,,None,10.308,,,,,,,,,,,,,,,,,,2019_Mar_25_1619,60.45609285182913,Cloud_Experiment_FR_REAL,001,28,
,,,,,,,,,,,,,,,,,,,,,,,,,,,,,,,,,,,,,,,,,,,,,,space,4.466502,,,,2019_Mar_25_1619,60.45609285182913,Cloud_Experiment_FR_REAL,001,28,
,,,,,,,,,,,,,,,,,,,,,,,,,6,5.107,,,,,,,,,,,,,,,,,,,,,,,,,2019_Mar_25_1619,60.45609285182913,Cloud_Experiment_FR_REAL,001,28,
,,,,,,,,,,,,,,,,,,,,,,,,,,,,,,,,,,4,,,,,,,,,,,,,,,,,2019_Mar_25_1619,60.45609285182913,Cloud_Experiment_FR_REAL,001,28,
,,,,,,,,,,,,,,,,,,,,,,,,,,,,,,,,,,,5,,,,,,,,,,,,,,,,2019_Mar_25_1619,60.45609285182913,Cloud_Experiment_FR_REAL,001,28,
,,,,,,,,,,,,,,,,,,,,,,,,,,,,,,,,,,,,3,,,,,,,,,,,,,,,2019_Mar_25_1619,60.45609285182913,Cloud_Experiment_FR_REAL,001,28,
,,,,,,,,,,,,,,,,,,,,,,,,,,,,,,,,,,,,,4,,,,,,,,,,,,,,2019_Mar_25_1619,60.45609285182913,Cloud_Experiment_FR_REAL,001,28,
,,,,,,,,,,,,,,,,,,,,,,,,,,,,,,,,,,,,,,5,,,,,,,,,,,,,2019_Mar_25_1619,60.45609285182913,Cloud_Experiment_FR_REAL,001,28,
,,,,,,,,,,,,,,,,,,,,,,,,,,,,,,,,,,,,,,,5,,,,,,,,,,,,2019_Mar_25_1619,60.45609285182913,Cloud_Experiment_FR_REAL,001,28,
,,,,,,,,,,,,,,,,,,,,,,,,,,,,,,,,,,,,,,,,5,,,,,,,,,,,2019_Mar_25_1619,60.45609285182913,Cloud_Experiment_FR_REAL,001,28,
,,,,,,,,,,,,,,,,,,,,,,,,,,,,,,,,,,,,,,,,,7,,,,,,,,,,2019_Mar_25_1619,60.45609285182913,Cloud_Experiment_FR_REAL,001,28,
,,,,,,,,,,,,,,,,,,,,,,,,,,,,,,,,,,,,,,,,,,6,,,,,,,,,2019_Mar_25_1619,60.45609285182913,Cloud_Experiment_FR_REAL,001,28,
,,,,,,,,,,,,,,,,,,,,,,,,,,,,,,,,,,,,,,,,,,,3,,,,,,,,2019_Mar_25_1619,60.45609285182913,Cloud_Experiment_FR_REAL,001,28,
,,,,,,,,,,,,,,,,,,,,,,,,,,,,,,,,,,,,,,,,,,,,,,,,space,130.9240057,,2019_Mar_25_1619,60.45609285182913,Cloud_Experiment_FR_REAL,001,28,
images/fcloud65-35_D0.9_6.tif,0.9,1,,,,,,,,,0,0,0,41,,,,,,,,,,,,,,,None,None,,None,217.728,,,,,,,,,,,,,,,,,,2019_Mar_25_1619,60.45609285182913,Cloud_Experiment_FR_REAL,001,28,
images/fcloud65-35_D1.1_4.tif,1.1,1,,,,,,,,,0,1,1,45,,,,,,,,,,,,,,,1,space,3.51249009999,3,1.884,,,,,,,,,,,,,,,,,,2019_Mar_25_1619,60.45609285182913,Cloud_Experiment_FR_REAL,001,28,
images/fcloud65-35_D1.3_5.tif,1.3,1,,,,,,,,,0,2,2,52,,,,,,,,,,,,,,,None,None,,None,11.09,,,,,,,,,,,,,,,,,,2019_Mar_25_1619,60.45609285182913,Cloud_Experiment_FR_REAL,001,28,
images/fcloud80-20_D1.5_6.tif,1.5,2,,,,,,,,,0,3,3,95,,,,,,,,,,,,,,,2,space,2.41307200002,4,1.005,,,,,,,,,,,,,,,,,,2019_Mar_25_1619,60.45609285182913,Cloud_Experiment_FR_REAL,001,28,
images/fcloud_D1.9_4.tif,1.9,0,,,,,,,,,0,4,4,33,,,,,,,,,,,,,,,1,space,7.18813739996,2,0.852,,,,,,,,,,,,,,,,,,2019_Mar_25_1619,60.45609285182913,Cloud_Experiment_FR_REAL,001,28,
images/fcloud_D0.8_6.tif,0.8,0,,,,,,,,,0,5,5,2,,,,,,,,,,,,,,,None,None,,None,9.325,,,,,,,,,,,,,,,,,,2019_Mar_25_1619,60.45609285182913,Cloud_Experiment_FR_REAL,001,28,
images/fcloud80-20_D1.3_4.tif,1.3,2,,,,,,,,,0,6,6,87,,,,,,,,,,,,,,,None,None,,None,18.301,,,,,,,,,,,,,,,,,,2019_Mar_25_1619,60.45609285182913,Cloud_Experiment_FR_REAL,001,28,
images/fcloud_D1_6.tif,1.0,0,,,,,,,,,0,7,7,8,,,,,,,,,,,,,,,1,space,7.09127999999,1,2.202,,,,,,,,,,,,,,,,,,2019_Mar_25_1619,60.45609285182913,Cloud_Experiment_FR_REAL,001,28,
images/fcloud_D1.4_4.tif,1.4,0,,,,,,,,,0,8,8,18,,,,,,,,,,,,,,,None,None,,None,11.34,,,,,,,,,,,,,,,,,,2019_Mar_25_1619,60.45609285182913,Cloud_Experiment_FR_REAL,001,28,
images/fcloud80-20_D0.8_6.tif,0.8,2,,,,,,,,,0,9,9,74,,,,,,,,,,,,,,,None,None,,None,20.717,,,,,,,,,,,,,,,,,,2019_Mar_25_1619,60.45609285182913,Cloud_Experiment_FR_REAL,001,28,
images/fcloud65-35_D1_6.tif,1.0,1,,,,,,,,,0,10,10,44,,,,,,,,,,,,,,,None,None,,None,29.995,,,,,,,,,,,,,,,,,,2019_Mar_25_1619,60.45609285182913,Cloud_Experiment_FR_REAL,001,28,
images/fcloud_D0.9_5.tif,0.9,0,,,,,,,,,0,11,11,4,,,,,,,,,,,,,,,None,None,,None,38.835,,,,,,,,,,,,,,,,,,2019_Mar_25_1619,60.45609285182913,Cloud_Experiment_FR_REAL,001,28,
images/fcloud65-35_D1.6_4.tif,1.6,1,,,,,,,,,0,12,12,60,,,,,,,,,,,,,,,None,None,,None,48.08,,,,,,,,,,,,,,,,,,2019_Mar_25_1619,60.45609285182913,Cloud_Experiment_FR_REAL,001,28,
images/fcloud80-20_D1.9_5.tif,1.9,2,,,,,,,,,0,13,13,106,,,,,,,,,,,,,,,1,space,5.16257510002,3,2.034,,,,,,,,,,,,,,,,,,2019_Mar_25_1619,60.45609285182913,Cloud_Experiment_FR_REAL,001,28,
images/fcloud_D1.6_5.tif,1.6,0,,,,,,,,,0,14,14,25,,,,,,,,,,,,,,,1,space,7.13433629996,3,2.017,,,,,,,,,,,,,,,,,,2019_Mar_25_1619,60.45609285182913,Cloud_Experiment_FR_REAL,001,28,
images/fcloud65-35_D1_5.tif,1.0,1,,,,,,,,,0,15,15,43,,,,,,,,,,,,,,,None,None,,None,11.894,,,,,,,,,,,,,,,,,,2019_Mar_25_1619,60.45609285182913,Cloud_Experiment_FR_REAL,001,28,
images/fcloud65-35_D1.7_4.tif,1.7,1,,,,,,,,,0,16,16,63,,,,,,,,,,,,,,,1,space,4.67563719995,2,1.286,,,,,,,,,,,,,,,,,,2019_Mar_25_1619,60.45609285182913,Cloud_Experiment_FR_REAL,001,28,
images/fcloud_D1.9_5.tif,1.9,0,,,,,,,,,0,17,17,34,,,,,,,,,,,,,,,None,None,,None,10.325,,,,,,,,,,,,,,,,,,2019_Mar_25_1619,60.45609285182913,Cloud_Experiment_FR_REAL,001,28,
images/fcloud65-35_D0.9_5.tif,0.9,1,,,,,,,,,0,18,18,40,,,,,,,,,,,,,,,None,None,,None,19.2,,,,,,,,,,,,,,,,,,2019_Mar_25_1619,60.45609285182913,Cloud_Experiment_FR_REAL,001,28,
images/fcloud65-35_D1.6_5.tif,1.6,1,,,,,,,,,0,19,19,61,,,,,,,,,,,,,,,1,space,7.32470719999,2,1.585,,,,,,,,,,,,,,,,,,2019_Mar_25_1619,60.45609285182913,Cloud_Experiment_FR_REAL,001,28,
images/fcloud80-20_D1_6.tif,1.0,2,,,,,,,,,0,20,20,80,,,,,,,,,,,,,,,1,None,,2,1.419,,,,,,,,,,,,,,,,,,2019_Mar_25_1619,60.45609285182913,Cloud_Experiment_FR_REAL,001,28,
images/fcloud_D1.8_5.tif,1.8,0,,,,,,,,,0,21,21,31,,,,,,,,,,,,,,,None,None,,None,10.624,,,,,,,,,,,,,,,,,,2019_Mar_25_1619,60.45609285182913,Cloud_Experiment_FR_REAL,001,28,
images/fcloud_D1.4_5.tif,1.4,0,,,,,,,,,0,22,22,19,,,,,,,,,,,,,,,None,space,8.07256890001,None,19.323,,,,,,,,,,,,,,,,,,2019_Mar_25_1619,60.45609285182913,Cloud_Experiment_FR_REAL,001,28,
images/fcloud80-20_D1.3_6.tif,1.3,2,,,,,,,,,0,23,23,89,,,,,,,,,,,,,,,None,None,,None,29.243,,,,,,,,,,,,,,,,,,2019_Mar_25_1619,60.45609285182913,Cloud_Experiment_FR_REAL,001,28,
images/fcloud65-35_D1.2_6.tif,1.2,1,,,,,,,,,0,24,24,50,,,,,,,,,,,,,,,None,space,7.73295979999,None,37.901,,,,,,,,,,,,,,,,,,2019_Mar_25_1619,60.45609285182913,Cloud_Experiment_FR_REAL,001,28,
images/fcloud_D1.1_4.tif,1.1,0,,,,,,,,,0,25,25,9,,,,,,,,,,,,,,,1,space,7.08034069999,4,1.267,,,,,,,,,,,,,,,,,,2019_Mar_25_1619,60.45609285182913,Cloud_Experiment_FR_REAL,001,28,
images/fcloud_D0.8_4.tif,0.8,0,,,,,,,,,0,26,26,0,,,,,,,,,,,,,,,None,None,,None,10.328,,,,,,,,,,,,,,,,,,2019_Mar_25_1619,60.45609285182913,Cloud_Experiment_FR_REAL,001,28,
images/fcloud80-20_D1.7_6.tif,1.7,2,,,,,,,,,0,27,27,101,,,,,,,,,,,,,,,None,None,,None,19.6,,,,,,,,,,,,,,,,,,2019_Mar_25_1619,60.45609285182913,Cloud_Experiment_FR_REAL,001,28,
images/fcloud80-20_D1.2_4.tif,1.2,2,,,,,,,,,0,28,28,84,,,,,,,,,,,,,,,None,None,,None,28.344,,,,,,,,,,,,,,,,,,2019_Mar_25_1619,60.45609285182913,Cloud_Experiment_FR_REAL,001,28,
images/fcloud_D1.5_6.tif,1.5,0,,,,,,,,,0,29,29,23,,,,,,,,,,,,,,,4,space,2.72643070004,4,2.218,,,,,,,,,,,,,,,,,,2019_Mar_25_1619,60.45609285182913,Cloud_Experiment_FR_REAL,001,28,
images/fcloud80-20_D1.1_4.tif,1.1,2,,,,,,,,,0,30,30,81,,,,,,,,,,,,,,,None,None,,None,11.64,,,,,,,,,,,,,,,,,,2019_Mar_25_1619,60.45609285182913,Cloud_Experiment_FR_REAL,001,28,
images/fcloud65-35_D1.2_5.tif,1.2,1,,,,,,,,,0,31,31,49,,,,,,,,,,,,,,,None,None,,None,21.032,,,,,,,,,,,,,,,,,,2019_Mar_25_1619,60.45609285182913,Cloud_Experiment_FR_REAL,001,28,
images/fcloud_D1.8_6.tif,1.8,0,,,,,,,,,0,32,32,32,,,,,,,,,,,,,,,3,space,6.68144109997,1,3.65,,,,,,,,,,,,,,,,,,2019_Mar_25_1619,60.45609285182913,Cloud_Experiment_FR_REAL,001,28,
images/fcloud80-20_D1.8_6.tif,1.8,2,,,,,,,,,0,33,33,104,,,,,,,,,,,,,,,None,space,5.22174890002,None,13.755,,,,,,,,,,,,,,,,,,2019_Mar_25_1619,60.45609285182913,Cloud_Experiment_FR_REAL,001,28,
images/fcloud80-20_D1.9_4.tif,1.9,2,,,,,,,,,0,34,34,105,,,,,,,,,,,,,,,None,None,,None,22.782,,,,,,,,,,,,,,,,,,2019_Mar_25_1619,60.45609285182913,Cloud_Experiment_FR_REAL,001,28,
images/fcloud80-20_D1.6_5.tif,1.6,2,,,,,,,,,0,35,35,97,,,,,,,,,,,,,,,2,space,4.33390640002,4,2.736,,,,,,,,,,,,,,,,,,2019_Mar_25_1619,60.45609285182913,Cloud_Experiment_FR_REAL,001,28,
images/fcloud65-35_D1.5_4.tif,1.5,1,,,,,,,,,0,36,36,57,,,,,,,,,,,,,,,1,space,4.45835580002,3,1.139,,,,,,,,,,,,,,,,,,2019_Mar_25_1619,60.45609285182913,Cloud_Experiment_FR_REAL,001,28,
images/fcloud65-35_D1.2_4.tif,1.2,1,,,,,,,,,0,37,37,48,,,,,,,,,,,,,,,1,space,4.53089330002,2,1.45,,,,,,,,,,,,,,,,,,2019_Mar_25_1619,60.45609285182913,Cloud_Experiment_FR_REAL,001,28,
images/fcloud65-35_D1_4.tif,1.0,1,,,,,,,,,0,38,38,42,,,,,,,,,,,,,,,None,None,,None,11.309,,,,,,,,,,,,,,,,,,2019_Mar_25_1619,60.45609285182913,Cloud_Experiment_FR_REAL,001,28,
images/fcloud65-35_D1.4_5.tif,1.4,1,,,,,,,,,0,39,39,55,,,,,,,,,,,,,,,1,space,2.29140269995,4,0.786,,,,,,,,,,,,,,,,,,2019_Mar_25_1619,60.45609285182913,Cloud_Experiment_FR_REAL,001,28,
images/fcloud_D1.1_6.tif,1.1,0,,,,,,,,,0,40,40,11,,,,,,,,,,,,,,,1,space,6.26436100004,2,1.068,,,,,,,,,,,,,,,,,,2019_Mar_25_1619,60.45609285182913,Cloud_Experiment_FR_REAL,001,28,
images/fcloud80-20_D0.8_5.tif,0.8,2,,,,,,,,,0,41,41,73,,,,,,,,,,,,,,,None,None,,None,9.558,,,,,,,,,,,,,,,,,,2019_Mar_25_1619,60.45609285182913,Cloud_Experiment_FR_REAL,001,28,
images/fcloud80-20_D1.1_5.tif,1.1,2,,,,,,,,,0,42,42,82,,,,,,,,,,,,,,,1,space,6.26389589999,2,1.02,,,,,,,,,,,,,,,,,,2019_Mar_25_1619,60.45609285182913,Cloud_Experiment_FR_REAL,001,28,
images/fcloud_D1.5_5.tif,1.5,0,,,,,,,,,0,43,43,22,,,,,,,,,,,,,,,None,None,,None,10.229,,,,,,,,,,,,,,,,,,2019_Mar_25_1619,60.45609285182913,Cloud_Experiment_FR_REAL,001,28,
images/fcloud_D0.9_6.tif,0.9,0,,,,,,,,,0,44,44,5,,,,,,,,,,,,,,,2,space,5.13827379997,4,1.768,,,,,,,,,,,,,,,,,,2019_Mar_25_1619,60.45609285182913,Cloud_Experiment_FR_REAL,001,28,
images/fcloud_D1.5_4.tif,1.5,0,,,,,,,,,0,45,45,21,,,,,,,,,,,,,,,3,space,4.73127419996,4,1.868,,,,,,,,,,,,,,,,,,2019_Mar_25_1619,60.45609285182913,Cloud_Experiment_FR_REAL,001,28,
images/fcloud65-35_D1.6_6.tif,1.6,1,,,,,,,,,0,46,46,62,,,,,,,,,,,,,,,1,space,6.51441060001,2,1.703,,,,,,,,,,,,,,,,,,2019_Mar_25_1619,60.45609285182913,Cloud_Experiment_FR_REAL,001,28,
images/fcloud_D1.2_5.tif,1.2,0,,,,,,,,,0,47,47,13,,,,,,,,,,,,,,,None,None,,None,11.041,,,,,,,,,,,,,,,,,,2019_Mar_25_1619,60.45609285182913,Cloud_Experiment_FR_REAL,001,28,
images/fcloud_D1.6_6.tif,1.6,0,,,,,,,,,0,48,48,26,,,,,,,,,,,,,,,None,None,,None,20.618,,,,,,,,,,,,,,,,,,2019_Mar_25_1619,60.45609285182913,Cloud_Experiment_FR_REAL,001,28,
images/fcloud80-20_D1.6_6.tif,1.6,2,,,,,,,,,0,49,49,98,,,,,,,,,,,,,,,None,None,,None,29.128,,,,,,,,,,,,,,,,,,2019_Mar_25_1619,60.45609285182913,Cloud_Experiment_FR_REAL,001,28,
images/fcloud80-20_D0.9_6.tif,0.9,2,,,,,,,,,0,50,50,77,,,,,,,,,,,,,,,1,space,4.70547500002,3,1.285,,,,,,,,,,,,,,,,,,2019_Mar_25_1619,60.45609285182913,Cloud_Experiment_FR_REAL,001,28,
images/fcloud_D1_4.tif,1.0,0,,,,,,,,,0,51,51,6,,,,,,,,,,,,,,,None,None,,None,10.494,,,,,,,,,,,,,,,,,,2019_Mar_25_1619,60.45609285182913,Cloud_Experiment_FR_REAL,001,28,
images/fcloud_D1.3_5.tif,1.3,0,,,,,,,,,0,52,52,16,,,,,,,,,,,,,,,1,space,6.21203759999,1,0.567,,,,,,,,,,,,,,,,,,2019_Mar_25_1619,60.45609285182913,Cloud_Experiment_FR_REAL,001,28,
images/fcloud_D1.3_6.tif,1.3,0,,,,,,,,,0,53,53,17,,,,,,,,,,,,,,,None,None,,None,13.005,,,,,,,,,,,,,,,,,,2019_Mar_25_1619,60.45609285182913,Cloud_Experiment_FR_REAL,001,28,
images/fcloud_D1.7_5.tif,1.7,0,,,,,,,,,0,54,54,28,,,,,,,,,,,,,,,None,None,,None,22.147,,,,,,,,,,,,,,,,,,2019_Mar_25_1619,60.45609285182913,Cloud_Experiment_FR_REAL,001,28,
images/fcloud65-35_D0.9_4.tif,0.9,1,,,,,,,,,0,55,55,39,,,,,,,,,,,,,,,None,None,,None,30.593,,,,,,,,,,,,,,,,,,2019_Mar_25_1619,60.45609285182913,Cloud_Experiment_FR_REAL,001,28,
images/fcloud65-35_D1.7_5.tif,1.7,1,,,,,,,,,0,56,56,64,,,,,,,,,,,,,,,None,None,,None,39.648,,,,,,,,,,,,,,,,,,2019_Mar_25_1619,60.45609285182913,Cloud_Experiment_FR_REAL,001,28,
images/fcloud65-35_D1.8_4.tif,1.8,1,,,,,,,,,0,57,57,66,,,,,,,,,,,,,,,1,space,7.77596119995,1,1.369,,,,,,,,,,,,,,,,,,2019_Mar_25_1619,60.45609285182913,Cloud_Experiment_FR_REAL,001,28,
images/fcloud_D0.9_4.tif,0.9,0,,,,,,,,,0,58,58,3,,,,,,,,,,,,,,,1,space,2.27542379999,5,2.051,,,,,,,,,,,,,,,,,,2019_Mar_25_1619,60.45609285182913,Cloud_Experiment_FR_REAL,001,28,
images/fcloud65-35_D1.9_4.tif,1.9,1,,,,,,,,,0,59,59,69,,,,,,,,,,,,,,,None,None,,None,11.726,,,,,,,,,,,,,,,,,,2019_Mar_25_1619,60.45609285182913,Cloud_Experiment_FR_REAL,001,28,
images/fcloud65-35_D1.3_6.tif,1.3,1,,,,,,,,,0,60,60,53,,,,,,,,,,,,,,,1,None,,1,1.185,,,,,,,,,,,,,,,,,,2019_Mar_25_1619,60.45609285182913,Cloud_Experiment_FR_REAL,001,28,
images/fcloud65-35_D1.9_5.tif,1.9,1,,,,,,,,,0,61,61,70,,,,,,,,,,,,,,,None,None,,None,11.091,,,,,,,,,,,,,,,,,,2019_Mar_25_1619,60.45609285182913,Cloud_Experiment_FR_REAL,001,28,
images/fcloud_D1.2_6.tif,1.2,0,,,,,,,,,0,62,62,14,,,,,,,,,,,,,,,None,space,7.97329500003,None,19.769,,,,,,,,,,,,,,,,,,2019_Mar_25_1619,60.45609285182913,Cloud_Experiment_FR_REAL,001,28,
images/fcloud_D1.7_6.tif,1.7,0,,,,,,,,,0,63,63,29,,,,,,,,,,,,,,,None,None,,None,29.225,,,,,,,,,,,,,,,,,,2019_Mar_25_1619,60.45609285182913,Cloud_Experiment_FR_REAL,001,28,
images/fcloud80-20_D1.1_6.tif,1.1,2,,,,,,,,,0,64,64,83,,,,,,,,,,,,,,,None,space,3.79275600001,None,38.218,,,,,,,,,,,,,,,,,,2019_Mar_25_1619,60.45609285182913,Cloud_Experiment_FR_REAL,001,28,
images/fcloud_D1.9_6.tif,1.9,0,,,,,,,,,0,65,65,35,,,,,,,,,,,,,,,None,None,,None,46.645,,,,,,,,,,,,,,,,,,2019_Mar_25_1619,60.45609285182913,Cloud_Experiment_FR_REAL,001,28,
images/fcloud80-20_D1.8_4.tif,1.8,2,,,,,,,,,0,66,66,102,,,,,,,,,,,,,,,None,None,,None,56.003,,,,,,,,,,,,,,,,,,2019_Mar_25_1619,60.45609285182913,Cloud_Experiment_FR_REAL,001,28,
images/fcloud80-20_D1.4_4.tif,1.4,2,,,,,,,,,0,67,67,90,,,,,,,,,,,,,,,2,space,4.4742537,4,1.052,,,,,,,,,,,,,,,,,,2019_Mar_25_1619,60.45609285182913,Cloud_Experiment_FR_REAL,001,28,
images/fcloud_D1.3_4.tif,1.3,0,,,,,,,,,0,68,68,15,,,,,,,,,,,,,,,1,space,3.93729959999,4,1.203,,,,,,,,,,,,,,,,,,2019_Mar_25_1619,60.45609285182913,Cloud_Experiment_FR_REAL,001,28,
images/fcloud65-35_D0.8_6.tif,0.8,1,,,,,,,,,0,69,69,38,,,,,,,,,,,,,,,None,None,,None,11.045,,,,,,,,,,,,,,,,,,2019_Mar_25_1619,60.45609285182913,Cloud_Experiment_FR_REAL,001,28,
images/fcloud80-20_D0.9_4.tif,0.9,2,,,,,,,,,0,70,70,75,,,,,,,,,,,,,,,None,None,,None,19.768,,,,,,,,,,,,,,,,,,2019_Mar_25_1619,60.45609285182913,Cloud_Experiment_FR_REAL,001,28,
images/fcloud80-20_D1.4_5.tif,1.4,2,,,,,,,,,0,71,71,91,,,,,,,,,,,,,,,2,space,3.42377360002,4,1.068,,,,,,,,,,,,,,,,,,2019_Mar_25_1619,60.45609285182913,Cloud_Experiment_FR_REAL,001,28,
images/fcloud80-20_D1.5_4.tif,1.5,2,,,,,,,,,0,72,72,93,,,,,,,,,,,,,,,1,None,,1,0.653,,,,,,,,,,,,,,,,,,2019_Mar_25_1619,60.45609285182913,Cloud_Experiment_FR_REAL,001,28,
images/fcloud65-35_D1.7_6.tif,1.7,1,,,,,,,,,0,73,73,65,,,,,,,,,,,,,,,None,None,,None,9.942,,,,,,,,,,,,,,,,,,2019_Mar_25_1619,60.45609285182913,Cloud_Experiment_FR_REAL,001,28,
images/fcloud_D1.1_5.tif,1.1,0,,,,,,,,,0,74,74,10,,,,,,,,,,,,,,,2,space,4.03396600002,5,1.569,,,,,,,,,,,,,,,,,,2019_Mar_25_1619,60.45609285182913,Cloud_Experiment_FR_REAL,001,28,
images/fcloud_D0.8_5.tif,0.8,0,,,,,,,,,0,75,75,1,,,,,,,,,,,,,,,None,None,,None,10.643,,,,,,,,,,,,,,,,,,2019_Mar_25_1619,60.45609285182913,Cloud_Experiment_FR_REAL,001,28,
images/fcloud65-35_D1.4_4.tif,1.4,1,,,,,,,,,0,76,76,54,,,,,,,,,,,,,,,None,None,,None,19.619,,,,,,,,,,,,,,,,,,2019_Mar_25_1619,60.45609285182913,Cloud_Experiment_FR_REAL,001,28,
images/fcloud80-20_D1.4_6.tif,1.4,2,,,,,,,,,0,77,77,92,,,,,,,,,,,,,,,1,space,1.98378729995,1,2.256,,,,,,,,,,,,,,,,,,2019_Mar_25_1619,60.45609285182913,Cloud_Experiment_FR_REAL,001,28,
images/fcloud80-20_D1.6_4.tif,1.6,2,,,,,,,,,0,78,78,96,,,,,,,,,,,,,,,1,space,7.25299220002,1,0.834,,,,,,,,,,,,,,,,,,2019_Mar_25_1619,60.45609285182913,Cloud_Experiment_FR_REAL,001,28,
images/fcloud65-35_D1.5_6.tif,1.5,1,,,,,,,,,0,79,79,59,,,,,,,,,,,,,,,None,None,,None,12.56,,,,,,,,,,,,,,,,,,2019_Mar_25_1619,60.45609285182913,Cloud_Experiment_FR_REAL,001,28,
images/fcloud80-20_D1.2_6.tif,1.2,2,,,,,,,,,0,80,80,86,,,,,,,,,,,,,,,None,None,,None,24.886,,,,,,,,,,,,,,,,,,2019_Mar_25_1619,60.45609285182913,Cloud_Experiment_FR_REAL,001,28,
images/fcloud_D1.4_6.tif,1.4,0,,,,,,,,,0,81,81,20,,,,,,,,,,,,,,,1,space,5.40608839999,3,1.218,,,,,,,,,,,,,,,,,,2019_Mar_25_1619,60.45609285182913,Cloud_Experiment_FR_REAL,001,28,
images/fcloud_D1.6_4.tif,1.6,0,,,,,,,,,0,82,82,24,,,,,,,,,,,,,,,2,space,1.86633459997,4,1.235,,,,,,,,,,,,,,,,,,2019_Mar_25_1619,60.45609285182913,Cloud_Experiment_FR_REAL,001,28,
images/fcloud_D1.7_4.tif,1.7,0,,,,,,,,,0,83,83,27,,,,,,,,,,,,,,,1,space,5.6045898,1,0.637,,,,,,,,,,,,,,,,,,2019_Mar_25_1619,60.45609285182913,Cloud_Experiment_FR_REAL,001,28,
images/fcloud80-20_D1.8_5.tif,1.8,2,,,,,,,,,0,84,84,103,,,,,,,,,,,,,,,None,None,,None,10.526,,,,,,,,,,,,,,,,,,2019_Mar_25_1619,60.45609285182913,Cloud_Experiment_FR_REAL,001,28,
images/fcloud65-35_D1.9_6.tif,1.9,1,,,,,,,,,0,85,85,71,,,,,,,,,,,,,,,1,space,4.75353269995,3,1.751,,,,,,,,,,,,,,,,,,2019_Mar_25_1619,60.45609285182913,Cloud_Experiment_FR_REAL,001,28,
images/fcloud80-20_D1.3_5.tif,1.3,2,,,,,,,,,0,86,86,88,,,,,,,,,,,,,,,1,space,5.77248440002,2,0.966,,,,,,,,,,,,,,,,,,2019_Mar_25_1619,60.45609285182913,Cloud_Experiment_FR_REAL,001,28,
images/fcloud65-35_D1.3_4.tif,1.3,1,,,,,,,,,0,87,87,51,,,,,,,,,,,,,,,1,space,3.7824735,5,1.635,,,,,,,,,,,,,,,,,,2019_Mar_25_1619,60.45609285182913,Cloud_Experiment_FR_REAL,001,28,
images/fcloud_D1.8_4.tif,1.8,0,,,,,,,,,0,88,88,30,,,,,,,,,,,,,,,None,None,,None,12.192,,,,,,,,,,,,,,,,,,2019_Mar_25_1619,60.45609285182913,Cloud_Experiment_FR_REAL,001,28,
images/fcloud65-35_D1.5_5.tif,1.5,1,,,,,,,,,0,89,89,58,,,,,,,,,,,,,,,None,None,,None,21.648,,,,,,,,,,,,,,,,,,2019_Mar_25_1619,60.45609285182913,Cloud_Experiment_FR_REAL,001,28,
images/fcloud80-20_D1_4.tif,1.0,2,,,,,,,,,0,90,90,78,,,,,,,,,,,,,,,2,space,3.38745130005,1,1.667,,,,,,,,,,,,,,,,,,2019_Mar_25_1619,60.45609285182913,Cloud_Experiment_FR_REAL,001,28,
images/fcloud65-35_D1.8_5.tif,1.8,1,,,,,,,,,0,91,91,67,,,,,,,,,,,,,,,1,None,,1,0.717,,,,,,,,,,,,,,,,,,2019_Mar_25_1619,60.45609285182913,Cloud_Experiment_FR_REAL,001,28,
images/fcloud65-35_D1.4_6.tif,1.4,1,,,,,,,,,0,92,92,56,,,,,,,,,,,,,,,3,space,2.83632090001,4,0.989,,,,,,,,,,,,,,,,,,2019_Mar_25_1619,60.45609285182913,Cloud_Experiment_FR_REAL,001,28,
images/fcloud80-20_D0.9_5.tif,0.9,2,,,,,,,,,0,93,93,76,,,,,,,,,,,,,,,2,space,4.48236970004,4,2.664,,,,,,,,,,,,,,,,,,2019_Mar_25_1619,60.45609285182913,Cloud_Experiment_FR_REAL,001,28,
images/fcloud80-20_D1.5_5.tif,1.5,2,,,,,,,,,0,94,94,94,,,,,,,,,,,,,,,None,None,,None,11.957,,,,,,,,,,,,,,,,,,2019_Mar_25_1619,60.45609285182913,Cloud_Experiment_FR_REAL,001,28,
images/fcloud80-20_D1.7_4.tif,1.7,2,,,,,,,,,0,95,95,99,,,,,,,,,,,,,,,1,space,5.85532660002,4,1.052,,,,,,,,,,,,,,,,,,2019_Mar_25_1619,60.45609285182913,Cloud_Experiment_FR_REAL,001,28,
images/fcloud80-20_D1.7_5.tif,1.7,2,,,,,,,,,0,96,96,100,,,,,,,,,,,,,,,1,None,,1,0.622,,,,,,,,,,,,,,,,,,2019_Mar_25_1619,60.45609285182913,Cloud_Experiment_FR_REAL,001,28,
images/fcloud80-20_D1.9_6.tif,1.9,2,,,,,,,,,0,97,97,107,,,,,,,,,,,,,,,1,None,,None,None,,,,,,,,,,,,,,,,,,2019_Mar_25_1619,60.45609285182913,Cloud_Experiment_FR_REAL,001,28,
images/fcloud_D1_5.tif,1.0,0,,,,,,,,,0,98,98,7,,,,,,,,,,,,,,,1,None,,1,0.601,,,,,,,,,,,,,,,,,,2019_Mar_25_1619,60.45609285182913,Cloud_Experiment_FR_REAL,001,28,
images/fcloud80-20_D1_5.tif,1.0,2,,,,,,,,,0,99,99,79,,,,,,,,,,,,,,,1,space,5.4372781,2,0.521,,,,,,,,,,,,,,,,,,2019_Mar_25_1619,60.45609285182913,Cloud_Experiment_FR_REAL,001,28,
images/fcloud80-20_D1.2_5.tif,1.2,2,,,,,,,,,0,100,100,85,,,,,,,,,,,,,,,2,space,7.4040482,3,3.868,,,,,,,,,,,,,,,,,,2019_Mar_25_1619,60.45609285182913,Cloud_Experiment_FR_REAL,001,28,
images/fcloud65-35_D1.1_6.tif,1.1,1,,,,,,,,,0,101,101,47,,,,,,,,,,,,,,,None,None,,None,13.747,,,,,,,,,,,,,,,,,,2019_Mar_25_1619,60.45609285182913,Cloud_Experiment_FR_REAL,001,28,
images/fcloud80-20_D0.8_4.tif,0.8,2,,,,,,,,,0,102,102,72,,,,,,,,,,,,,,,None,None,,None,26.531,,,,,,,,,,,,,,,,,,2019_Mar_25_1619,60.45609285182913,Cloud_Experiment_FR_REAL,001,28,
images/fcloud65-35_D1.1_5.tif,1.1,1,,,,,,,,,0,103,103,46,,,,,,,,,,,,,,,None,None,,None,35.937,,,,,,,,,,,,,,,,,,2019_Mar_25_1619,60.45609285182913,Cloud_Experiment_FR_REAL,001,28,
images/fcloud65-35_D0.8_5.tif,0.8,1,,,,,,,,,0,104,104,37,,,,,,,,,,,,,,,None,None,,None,44.384,,,,,,,,,,,,,,,,,,2019_Mar_25_1619,60.45609285182913,Cloud_Experiment_FR_REAL,001,28,
images/fcloud65-35_D1.8_6.tif,1.8,1,,,,,,,,,0,105,105,68,,,,,,,,,,,,,,,1,None,,1,0.704,,,,,,,,,,,,,,,,,,2019_Mar_25_1619,60.45609285182913,Cloud_Experiment_FR_REAL,001,28,
images/fcloud_D1.2_4.tif,1.2,0,,,,,,,,,0,106,106,12,,,,,,,,,,,,,,,2,space,6.66166700004,4,0.917,,,,,,,,,,,,,,,,,,2019_Mar_25_1619,60.45609285182913,Cloud_Experiment_FR_REAL,001,28,
images/fcloud65-35_D0.8_4.tif,0.8,1,,,,,,,,,0,107,107,36,,,,,,,,,,,,,,,1,None,,4,1.053,,,,,,,,,,,,,,,,,,2019_Mar_25_1619,60.45609285182913,Cloud_Experiment_FR_REAL,001,28,
,,,,,,,,,,,,,,,,,,,,,,,,,,,,,,,,,,,,,,,,,,,,,,space,2.2831386,,,,2019_Mar_25_1619,60.45609285182913,Cloud_Experiment_FR_REAL,001,28,
,,,,,,,,,,,,,,,,,,,,,,,,,3,4.24,,,,,,,,,,,,,,,,,,,,,,,,,2019_Mar_25_1619,60.45609285182913,Cloud_Experiment_FR_REAL,001,28,
,,,,,,,,,,,,,,,,,,,,,,,,,,,,,,,,,,3,,,,,,,,,,,,,,,,,2019_Mar_25_1619,60.45609285182913,Cloud_Experiment_FR_REAL,001,28,
,,,,,,,,,,,,,,,,,,,,,,,,,,,,,,,,,,,4,,,,,,,,,,,,,,,,2019_Mar_25_1619,60.45609285182913,Cloud_Experiment_FR_REAL,001,28,
,,,,,,,,,,,,,,,,,,,,,,,,,,,,,,,,,,,,2,,,,,,,,,,,,,,,2019_Mar_25_1619,60.45609285182913,Cloud_Experiment_FR_REAL,001,28,
,,,,,,,,,,,,,,,,,,,,,,,,,,,,,,,,,,,,,3,,,,,,,,,,,,,,2019_Mar_25_1619,60.45609285182913,Cloud_Experiment_FR_REAL,001,28,
,,,,,,,,,,,,,,,,,,,,,,,,,,,,,,,,,,,,,,4,,,,,,,,,,,,,2019_Mar_25_1619,60.45609285182913,Cloud_Experiment_FR_REAL,001,28,
,,,,,,,,,,,,,,,,,,,,,,,,,,,,,,,,,,,,,,,4,,,,,,,,,,,,2019_Mar_25_1619,60.45609285182913,Cloud_Experiment_FR_REAL,001,28,
,,,,,,,,,,,,,,,,,,,,,,,,,,,,,,,,,,,,,,,,4,,,,,,,,,,,2019_Mar_25_1619,60.45609285182913,Cloud_Experiment_FR_REAL,001,28,
,,,,,,,,,,,,,,,,,,,,,,,,,,,,,,,,,,,,,,,,,7,,,,,,,,,,2019_Mar_25_1619,60.45609285182913,Cloud_Experiment_FR_REAL,001,28,
,,,,,,,,,,,,,,,,,,,,,,,,,,,,,,,,,,,,,,,,,,6,,,,,,,,,2019_Mar_25_1619,60.45609285182913,Cloud_Experiment_FR_REAL,001,28,
,,,,,,,,,,,,,,,,,,,,,,,,,,,,,,,,,,,,,,,,,,,2,,,,,,,,2019_Mar_25_1619,60.45609285182913,Cloud_Experiment_FR_REAL,001,28,
,,,,,,,,,,,,,,,,,,,,,,,,,,,,,,,,,,,,,,,,,,,,,,,,space,741.8546182,,2019_Mar_25_1619,60.45609285182913,Cloud_Experiment_FR_REAL,001,28,
images/fcloud65-35_D1.5_8.tif,1.5,1,,,,,,,,,,,,,0,0,0,77,,,,,,,,,,,1,space,3.60416799999,1,0.669,,,,,,,,,,,,,,,,,,2019_Mar_25_1619,60.45609285182913,Cloud_Experiment_FR_REAL,001,28,
images/fcloud65-35_D0.9_10.tif,0.9,1,,,,,,,,,,,,,0,1,1,55,,,,,,,,,,,None,None,,None,9.095,,,,,,,,,,,,,,,,,,2019_Mar_25_1619,60.45609285182913,Cloud_Experiment_FR_REAL,001,28,
images/fcloud65-35_D1_7.tif,1.0,1,,,,,,,,,,,,,0,2,2,56,,,,,,,,,,,None,None,,None,17.539,,,,,,,,,,,,,,,,,,2019_Mar_25_1619,60.45609285182913,Cloud_Experiment_FR_REAL,001,28,
images/fcloud_D1.2_10.tif,1.2,0,,,,,,,,,,,,,0,3,3,19,,,,,,,,,,,1,space,2.16694200004,3,0.833,,,,,,,,,,,,,,,,,,2019_Mar_25_1619,60.45609285182913,Cloud_Experiment_FR_REAL,001,28,
images/fcloud65-35_D1.6_9.tif,1.6,1,,,,,,,,,,,,,0,4,4,82,,,,,,,,,,,None,None,,None,9.159,,,,,,,,,,,,,,,,,,2019_Mar_25_1619,60.45609285182913,Cloud_Experiment_FR_REAL,001,28,
images/fcloud80-20_D0.9_9.tif,0.9,2,,,,,,,,,,,,,0,5,5,102,,,,,,,,,,,None,None,,None,17.719,,,,,,,,,,,,,,,,,,2019_Mar_25_1619,60.45609285182913,Cloud_Experiment_FR_REAL,001,28,
images/fcloud80-20_D0.8_9.tif,0.8,2,,,,,,,,,,,,,0,6,6,98,,,,,,,,,,,1,space,5.90126469999,2,1.001,,,,,,,,,,,,,,,,,,2019_Mar_25_1619,60.45609285182913,Cloud_Experiment_FR_REAL,001,28,
images/fcloud_D1.6_7.tif,1.6,0,,,,,,,,,,,,,0,7,7,32,,,,,,,,,,,None,None,,None,11.324,,,,,,,,,,,,,,,,,,2019_Mar_25_1619,60.45609285182913,Cloud_Experiment_FR_REAL,001,28,
images/fcloud80-20_D1.2_7.tif,1.2,2,,,,,,,,,,,,,0,8,8,112,,,,,,,,,,,None,None,,None,20.651,,,,,,,,,,,,,,,,,,2019_Mar_25_1619,60.45609285182913,Cloud_Experiment_FR_REAL,001,28,
images/fcloud80-20_D0.8_10.tif,0.8,2,,,,,,,,,,,,,0,9,9,99,,,,,,,,,,,None,None,,None,29.21,,,,,,,,,,,,,,,,,,2019_Mar_25_1619,60.45609285182913,Cloud_Experiment_FR_REAL,001,28,
images/fcloud_D1.2_9.tif,1.2,0,,,,,,,,,,,,,0,10,10,18,,,,,,,,,,,None,None,,None,38.2,,,,,,,,,,,,,,,,,,2019_Mar_25_1619,60.45609285182913,Cloud_Experiment_FR_REAL,001,28,
images/fcloud80-20_D1.1_7.tif,1.1,2,,,,,,,,,,,,,0,11,11,108,,,,,,,,,,,None,None,,None,46.562,,,,,,,,,,,,,,,,,,2019_Mar_25_1619,60.45609285182913,Cloud_Experiment_FR_REAL,001,28,
images/fcloud65-35_D1.9_7.tif,1.9,1,,,,,,,,,,,,,0,12,12,92,,,,,,,,,,,None,None,,None,55.053,,,,,,,,,,,,,,,,,,2019_Mar_25_1619,60.45609285182913,Cloud_Experiment_FR_REAL,001,28,
images/fcloud_D0.9_7.tif,0.9,0,,,,,,,,,,,,,0,13,13,4,,,,,,,,,,,2,None,,3,1.239,,,,,,,,,,,,,,,,,,2019_Mar_25_1619,60.45609285182913,Cloud_Experiment_FR_REAL,001,28,
images/fcloud_D1.1_9.tif,1.1,0,,,,,,,,,,,,,0,14,14,14,,,,,,,,,,,None,None,,None,10.543,,,,,,,,,,,,,,,,,,2019_Mar_25_1619,60.45609285182913,Cloud_Experiment_FR_REAL,001,28,
images/fcloud65-35_D1.9_9.tif,1.9,1,,,,,,,,,,,,,0,15,15,94,,,,,,,,,,,1,None,,2,0.901,,,,,,,,,,,,,,,,,,2019_Mar_25_1619,60.45609285182913,Cloud_Experiment_FR_REAL,001,28,
images/fcloud80-20_D1.2_8.tif,1.2,2,,,,,,,,,,,,,0,16,16,113,,,,,,,,,,,None,None,,None,9.794,,,,,,,,,,,,,,,,,,2019_Mar_25_1619,60.45609285182913,Cloud_Experiment_FR_REAL,001,28,
images/fcloud80-20_D0.9_8.tif,0.9,2,,,,,,,,,,,,,0,17,17,101,,,,,,,,,,,None,None,,None,18.172,,,,,,,,,,,,,,,,,,2019_Mar_25_1619,60.45609285182913,Cloud_Experiment_FR_REAL,001,28,
images/fcloud_D1.1_10.tif,1.1,0,,,,,,,,,,,,,0,18,18,15,,,,,,,,,,,2,space,4.11912829999,3,1.334,,,,,,,,,,,,,,,,,,2019_Mar_25_1619,60.45609285182913,Cloud_Experiment_FR_REAL,001,28,
images/fcloud80-20_D1.8_9.tif,1.8,2,,,,,,,,,,,,,0,19,19,138,,,,,,,,,,,None,None,,None,10.893,,,,,,,,,,,,,,,,,,2019_Mar_25_1619,60.45609285182913,Cloud_Experiment_FR_REAL,001,28,
images/fcloud_D0.8_7.tif,0.8,0,,,,,,,,,,,,,0,20,20,0,,,,,,,,,,,None,None,,None,20.682,,,,,,,,,,,,,,,,,,2019_Mar_25_1619,60.45609285182913,Cloud_Experiment_FR_REAL,001,28,
images/fcloud_D1_8.tif,1.0,0,,,,,,,,,,,,,0,21,21,9,,,,,,,,,,,1,space,4.10673289996,3,1.035,,,,,,,,,,,,,,,,,,2019_Mar_25_1619,60.45609285182913,Cloud_Experiment_FR_REAL,001,28,
images/fcloud80-20_D1.9_7.tif,1.9,2,,,,,,,,,,,,,0,22,22,140,,,,,,,,,,,None,None,,None,10.212,,,,,,,,,,,,,,,,,,2019_Mar_25_1619,60.45609285182913,Cloud_Experiment_FR_REAL,001,28,
images/fcloud_D1.7_8.tif,1.7,0,,,,,,,,,,,,,0,23,23,37,,,,,,,,,,,None,None,,None,19.022,,,,,,,,,,,,,,,,,,2019_Mar_25_1619,60.45609285182913,Cloud_Experiment_FR_REAL,001,28,
images/fcloud65-35_D1.8_10.tif,1.8,1,,,,,,,,,,,,,0,24,24,91,,,,,,,,,,,None,None,,None,27.58,,,,,,,,,,,,,,,,,,2019_Mar_25_1619,60.45609285182913,Cloud_Experiment_FR_REAL,001,28,
images/fcloud80-20_D1.8_10.tif,1.8,2,,,,,,,,,,,,,0,25,25,139,,,,,,,,,,,1,space,4.7533935,4,1.721,,,,,,,,,,,,,,,,,,2019_Mar_25_1619,60.45609285182913,Cloud_Experiment_FR_REAL,001,28,
images/fcloud65-35_D0.8_9.tif,0.8,1,,,,,,,,,,,,,0,26,26,50,,,,,,,,,,,None,None,,None,11.261,,,,,,,,,,,,,,,,,,2019_Mar_25_1619,60.45609285182913,Cloud_Experiment_FR_REAL,001,28,
images/fcloud_D1.9_7.tif,1.9,0,,,,,,,,,,,,,0,27,27,44,,,,,,,,,,,1,space,7.55818190001,1,0.952,,,,,,,,,,,,,,,,,,2019_Mar_25_1619,60.45609285182913,Cloud_Experiment_FR_REAL,001,28,
images/fcloud80-20_D1.7_7.tif,1.7,2,,,,,,,,,,,,,0,28,28,132,,,,,,,,,,,1,space,6.1542619,1,0.503,,,,,,,,,,,,,,,,,,2019_Mar_25_1619,60.45609285182913,Cloud_Experiment_FR_REAL,001,28,
images/fcloud65-35_D1.1_7.tif,1.1,1,,,,,,,,,,,,,0,29,29,60,,,,,,,,,,,1,space,2.38089810003,3,0.501,,,,,,,,,,,,,,,,,,2019_Mar_25_1619,60.45609285182913,Cloud_Experiment_FR_REAL,001,28,
images/fcloud80-20_D0.9_7.tif,0.9,2,,,,,,,,,,,,,0,30,30,100,,,,,,,,,,,None,None,,None,10.212,,,,,,,,,,,,,,,,,,2019_Mar_25_1619,60.45609285182913,Cloud_Experiment_FR_REAL,001,28,
images/fcloud_D1.6_10.tif,1.6,0,,,,,,,,,,,,,0,31,31,35,,,,,,,,,,,2,space,3.9635599,4,1.086,,,,,,,,,,,,,,,,,,2019_Mar_25_1619,60.45609285182913,Cloud_Experiment_FR_REAL,001,28,
images/fcloud65-35_D1.2_8.tif,1.2,1,,,,,,,,,,,,,0,32,32,65,,,,,,,,,,,None,None,,None,10.229,,,,,,,,,,,,,,,,,,2019_Mar_25_1619,60.45609285182913,Cloud_Experiment_FR_REAL,001,28,
images/fcloud_D0.9_8.tif,0.9,0,,,,,,,,,,,,,0,33,33,5,,,,,,,,,,,1,space,2.1870408,4,2.451,,,,,,,,,,,,,,,,,,2019_Mar_25_1619,60.45609285182913,Cloud_Experiment_FR_REAL,001,28,
images/fcloud_D0.8_10.tif,0.8,0,,,,,,,,,,,,,0,34,34,3,,,,,,,,,,,None,None,,None,13.107,,,,,,,,,,,,,,,,,,2019_Mar_25_1619,60.45609285182913,Cloud_Experiment_FR_REAL,001,28,
images/fcloud80-20_D1.4_7.tif,1.4,2,,,,,,,,,,,,,0,35,35,120,,,,,,,,,,,None,None,,None,23.251,,,,,,,,,,,,,,,,,,2019_Mar_25_1619,60.45609285182913,Cloud_Experiment_FR_REAL,001,28,
images/fcloud65-35_D1.4_7.tif,1.4,1,,,,,,,,,,,,,0,36,36,72,,,,,,,,,,,None,None,,None,32.208,,,,,,,,,,,,,,,,,,2019_Mar_25_1619,60.45609285182913,Cloud_Experiment_FR_REAL,001,28,
images/fcloud65-35_D1.6_7.tif,1.6,1,,,,,,,,,,,,,0,37,37,80,,,,,,,,,,,1,space,7.20384079998,3,0.849,,,,,,,,,,,,,,,,,,2019_Mar_25_1619,60.45609285182913,Cloud_Experiment_FR_REAL,001,28,
images/fcloud65-35_D0.9_9.tif,0.9,1,,,,,,,,,,,,,0,38,38,54,,,,,,,,,,,None,None,,None,9.659,,,,,,,,,,,,,,,,,,2019_Mar_25_1619,60.45609285182913,Cloud_Experiment_FR_REAL,001,28,
images/fcloud65-35_D1.1_9.tif,1.1,1,,,,,,,,,,,,,0,39,39,62,,,,,,,,,,,1,space,3.81260489998,1,0.619,,,,,,,,,,,,,,,,,,2019_Mar_25_1619,60.45609285182913,Cloud_Experiment_FR_REAL,001,28,
images/fcloud80-20_D1_9.tif,1.0,2,,,,,,,,,,,,,0,40,40,106,,,,,,,,,,,1,space,2.87255729997,2,1.219,,,,,,,,,,,,,,,,,,2019_Mar_25_1619,60.45609285182913,Cloud_Experiment_FR_REAL,001,28,
images/fcloud65-35_D1.4_10.tif,1.4,1,,,,,,,,,,,,,0,41,41,75,,,,,,,,,,,None,None,,None,9.712,,,,,,,,,,,,,,,,,,2019_Mar_25_1619,60.45609285182913,Cloud_Experiment_FR_REAL,001,28,
images/fcloud80-20_D0.9_10.tif,0.9,2,,,,,,,,,,,,,0,42,42,103,,,,,,,,,,,1,space,1.96864959999,3,0.785,,,,,,,,,,,,,,,,,,2019_Mar_25_1619,60.45609285182913,Cloud_Experiment_FR_REAL,001,28,
images/fcloud80-20_D0.8_7.tif,0.8,2,,,,,,,,,,,,,0,43,43,96,,,,,,,,,,,None,None,,None,9.825,,,,,,,,,,,,,,,,,,2019_Mar_25_1619,60.45609285182913,Cloud_Experiment_FR_REAL,001,28,
images/fcloud80-20_D1.9_10.tif,1.9,2,,,,,,,,,,,,,0,44,44,143,,,,,,,,,,,1,space,6.01177460002,1,0.52,,,,,,,,,,,,,,,,,,2019_Mar_25_1619,60.45609285182913,Cloud_Experiment_FR_REAL,001,28,
images/fcloud65-35_D1_9.tif,1.0,1,,,,,,,,,,,,,0,45,45,58,,,,,,,,,,,None,space,5.68209660001,None,9.363,,,,,,,,,,,,,,,,,,2019_Mar_25_1619,60.45609285182913,Cloud_Experiment_FR_REAL,001,28,
images/fcloud_D1.5_8.tif,1.5,0,,,,,,,,,,,,,0,46,46,29,,,,,,,,,,,None,None,,None,20.285,,,,,,,,,,,,,,,,,,2019_Mar_25_1619,60.45609285182913,Cloud_Experiment_FR_REAL,001,28,
images/fcloud80-20_D1.4_10.tif,1.4,2,,,,,,,,,,,,,0,47,47,123,,,,,,,,,,,None,None,,None,29.209,,,,,,,,,,,,,,,,,,2019_Mar_25_1619,60.45609285182913,Cloud_Experiment_FR_REAL,001,28,
images/fcloud65-35_D1.6_10.tif,1.6,1,,,,,,,,,,,,,0,48,48,83,,,,,,,,,,,2,space,3.9374394,4,2.084,,,,,,,,,,,,,,,,,,2019_Mar_25_1619,60.45609285182913,Cloud_Experiment_FR_REAL,001,28,
images/fcloud80-20_D1.5_9.tif,1.5,2,,,,,,,,,,,,,0,49,49,126,,,,,,,,,,,None,None,,None,11.925,,,,,,,,,,,,,,,,,,2019_Mar_25_1619,60.45609285182913,Cloud_Experiment_FR_REAL,001,28,
images/fcloud_D1.9_9.tif,1.9,0,,,,,,,,,,,,,0,50,50,46,,,,,,,,,,,None,None,,None,20.866,,,,,,,,,,,,,,,,,,2019_Mar_25_1619,60.45609285182913,Cloud_Experiment_FR_REAL,001,28,
images/fcloud65-35_D1.5_7.tif,1.5,1,,,,,,,,,,,,,0,51,51,76,,,,,,,,,,,None,None,,None,29.592,,,,,,,,,,,,,,,,,,2019_Mar_25_1619,60.45609285182913,Cloud_Experiment_FR_REAL,001,28,
images/fcloud65-35_D1_10.tif,1.0,1,,,,,,,,,,,,,0,52,52,59,,,,,,,,,,,1,space,5.9379591,2,0.718,,,,,,,,,,,,,,,,,,2019_Mar_25_1619,60.45609285182913,Cloud_Experiment_FR_REAL,001,28,
images/fcloud_D1.3_10.tif,1.3,0,,,,,,,,,,,,,0,53,53,23,,,,,,,,,,,3,space,4.17003340001,4,1.252,,,,,,,,,,,,,,,,,,2019_Mar_25_1619,60.45609285182913,Cloud_Experiment_FR_REAL,001,28,
images/fcloud80-20_D1.8_8.tif,1.8,2,,,,,,,,,,,,,0,54,54,137,,,,,,,,,,,None,None,,None,10.777,,,,,,,,,,,,,,,,,,2019_Mar_25_1619,60.45609285182913,Cloud_Experiment_FR_REAL,001,28,
images/fcloud_D1.5_7.tif,1.5,0,,,,,,,,,,,,,0,55,55,28,,,,,,,,,,,1,space,6.79283459997,2,0.717,,,,,,,,,,,,,,,,,,2019_Mar_25_1619,60.45609285182913,Cloud_Experiment_FR_REAL,001,28,
images/fcloud_D1.7_7.tif,1.7,0,,,,,,,,,,,,,0,56,56,36,,,,,,,,,,,None,None,,None,9.861,,,,,,,,,,,,,,,,,,2019_Mar_25_1619,60.45609285182913,Cloud_Experiment_FR_REAL,001,28,
images/fcloud_D0.9_9.tif,0.9,0,,,,,,,,,,,,,0,57,57,6,,,,,,,,,,,2,None,,3,1.184,,,,,,,,,,,,,,,,,,2019_Mar_25_1619,60.45609285182913,Cloud_Experiment_FR_REAL,001,28,
images/fcloud80-20_D1.7_8.tif,1.7,2,,,,,,,,,,,,,0,58,58,133,,,,,,,,,,,None,None,,None,11.594,,,,,,,,,,,,,,,,,,2019_Mar_25_1619,60.45609285182913,Cloud_Experiment_FR_REAL,001,28,
images/fcloud80-20_D1.6_10.tif,1.6,2,,,,,,,,,,,,,0,59,59,131,,,,,,,,,,,None,None,,None,20.017,,,,,,,,,,,,,,,,,,2019_Mar_25_1619,60.45609285182913,Cloud_Experiment_FR_REAL,001,28,
images/fcloud_D1.5_10.tif,1.5,0,,,,,,,,,,,,,0,60,60,31,,,,,,,,,,,2,space,2.39608469995,2,1.117,,,,,,,,,,,,,,,,,,2019_Mar_25_1619,60.45609285182913,Cloud_Experiment_FR_REAL,001,28,
images/fcloud65-35_D1.9_8.tif,1.9,1,,,,,,,,,,,,,0,61,61,93,,,,,,,,,,,None,None,,None,10.344,,,,,,,,,,,,,,,,,,2019_Mar_25_1619,60.45609285182913,Cloud_Experiment_FR_REAL,001,28,
images/fcloud80-20_D1.5_10.tif,1.5,2,,,,,,,,,,,,,0,62,62,127,,,,,,,,,,,None,None,,None,19.167,,,,,,,,,,,,,,,,,,2019_Mar_25_1619,60.45609285182913,Cloud_Experiment_FR_REAL,001,28,
images/fcloud65-35_D1.8_8.tif,1.8,1,,,,,,,,,,,,,0,63,63,89,,,,,,,,,,,None,None,,None,27.949,,,,,,,,,,,,,,,,,,2019_Mar_25_1619,60.45609285182913,Cloud_Experiment_FR_REAL,001,28,
images/fcloud_D1.7_10.tif,1.7,0,,,,,,,,,,,,,0,64,64,39,,,,,,,,,,,None,None,,None,36.837,,,,,,,,,,,,,,,,,,2019_Mar_25_1619,60.45609285182913,Cloud_Experiment_FR_REAL,001,28,
images/fcloud65-35_D1.2_7.tif,1.2,1,,,,,,,,,,,,,0,65,65,64,,,,,,,,,,,1,space,1.9979893,None,None,,,,,,,,,,,,,,,,,,2019_Mar_25_1619,60.45609285182913,Cloud_Experiment_FR_REAL,001,28,
images/fcloud_D1.5_9.tif,1.5,0,,,,,,,,,,,,,0,66,66,30,,,,,,,,,,,None,None,,None,10.511,,,,,,,,,,,,,,,,,,2019_Mar_25_1619,60.45609285182913,Cloud_Experiment_FR_REAL,001,28,
images/fcloud80-20_D1.9_9.tif,1.9,2,,,,,,,,,,,,,0,67,67,142,,,,,,,,,,,None,None,,None,18.953,,,,,,,,,,,,,,,,,,2019_Mar_25_1619,60.45609285182913,Cloud_Experiment_FR_REAL,001,28,
images/fcloud65-35_D1.3_9.tif,1.3,1,,,,,,,,,,,,,0,68,68,70,,,,,,,,,,,None,None,,None,27.244,,,,,,,,,,,,,,,,,,2019_Mar_25_1619,60.45609285182913,Cloud_Experiment_FR_REAL,001,28,
images/fcloud80-20_D1.9_8.tif,1.9,2,,,,,,,,,,,,,0,69,69,141,,,,,,,,,,,None,None,,None,35.921,,,,,,,,,,,,,,,,,,2019_Mar_25_1619,60.45609285182913,Cloud_Experiment_FR_REAL,001,28,
images/fcloud80-20_D1.4_9.tif,1.4,2,,,,,,,,,,,,,0,70,70,122,,,,,,,,,,,2,space,3.1992341,3,1.535,,,,,,,,,,,,,,,,,,2019_Mar_25_1619,60.45609285182913,Cloud_Experiment_FR_REAL,001,28,
images/fcloud80-20_D1.7_9.tif,1.7,2,,,,,,,,,,,,,0,71,71,134,,,,,,,,,,,None,None,,None,10.425,,,,,,,,,,,,,,,,,,2019_Mar_25_1619,60.45609285182913,Cloud_Experiment_FR_REAL,001,28,
images/fcloud80-20_D1.2_9.tif,1.2,2,,,,,,,,,,,,,0,72,72,114,,,,,,,,,,,1,None,,1,0.537,,,,,,,,,,,,,,,,,,2019_Mar_25_1619,60.45609285182913,Cloud_Experiment_FR_REAL,001,28,
images/fcloud65-35_D0.8_10.tif,0.8,1,,,,,,,,,,,,,0,73,73,51,,,,,,,,,,,None,None,,None,10.291,,,,,,,,,,,,,,,,,,2019_Mar_25_1619,60.45609285182913,Cloud_Experiment_FR_REAL,001,28,
images/fcloud_D1.3_9.tif,1.3,0,,,,,,,,,,,,,0,74,74,22,,,,,,,,,,,None,None,,None,19.101,,,,,,,,,,,,,,,,,,2019_Mar_25_1619,60.45609285182913,Cloud_Experiment_FR_REAL,001,28,
images/fcloud_D1.8_9.tif,1.8,0,,,,,,,,,,,,,0,75,75,42,,,,,,,,,,,None,None,,None,28.162,,,,,,,,,,,,,,,,,,2019_Mar_25_1619,60.45609285182913,Cloud_Experiment_FR_REAL,001,28,
images/fcloud65-35_D1.1_8.tif,1.1,1,,,,,,,,,,,,,0,76,76,61,,,,,,,,,,,1,space,7.70267819997,3,1.952,,,,,,,,,,,,,,,,,,2019_Mar_25_1619,60.45609285182913,Cloud_Experiment_FR_REAL,001,28,
images/fcloud80-20_D1.3_8.tif,1.3,2,,,,,,,,,,,,,0,77,77,117,,,,,,,,,,,None,None,,None,10.894,,,,,,,,,,,,,,,,,,2019_Mar_25_1619,60.45609285182913,Cloud_Experiment_FR_REAL,001,28,
images/fcloud65-35_D1.7_9.tif,1.7,1,,,,,,,,,,,,,0,78,78,86,,,,,,,,,,,1,space,7.24305970001,2,1.8,,,,,,,,,,,,,,,,,,2019_Mar_25_1619,60.45609285182913,Cloud_Experiment_FR_REAL,001,28,
images/fcloud65-35_D0.8_7.tif,0.8,1,,,,,,,,,,,,,0,79,79,48,,,,,,,,,,,None,None,,None,10.997,,,,,,,,,,,,,,,,,,2019_Mar_25_1619,60.45609285182913,Cloud_Experiment_FR_REAL,001,28,
images/fcloud_D1.4_8.tif,1.4,0,,,,,,,,,,,,,0,80,80,25,,,,,,,,,,,2,space,5.45830110001,3,2.633,,,,,,,,,,,,,,,,,,2019_Mar_25_1619,60.45609285182913,Cloud_Experiment_FR_REAL,001,28,
images/fcloud80-20_D1.3_7.tif,1.3,2,,,,,,,,,,,,,0,81,81,116,,,,,,,,,,,1,space,5.03451029997,1,2.551,,,,,,,,,,,,,,,,,,2019_Mar_25_1619,60.45609285182913,Cloud_Experiment_FR_REAL,001,28,
images/fcloud_D1.1_8.tif,1.1,0,,,,,,,,,,,,,0,82,82,13,,,,,,,,,,,2,space,2.86692639999,3,2.0,,,,,,,,,,,,,,,,,,2019_Mar_25_1619,60.45609285182913,Cloud_Experiment_FR_REAL,001,28,
images/fcloud65-35_D1.5_9.tif,1.5,1,,,,,,,,,,,,,0,83,83,78,,,,,,,,,,,None,None,,None,11.107,,,,,,,,,,,,,,,,,,2019_Mar_25_1619,60.45609285182913,Cloud_Experiment_FR_REAL,001,28,
images/fcloud80-20_D1.5_8.tif,1.5,2,,,,,,,,,,,,,0,84,84,125,,,,,,,,,,,1,space,7.64882759994,2,0.618,,,,,,,,,,,,,,,,,,2019_Mar_25_1619,60.45609285182913,Cloud_Experiment_FR_REAL,001,28,
images/fcloud_D1.8_8.tif,1.8,0,,,,,,,,,,,,,0,85,85,41,,,,,,,,,,,2,space,2.10476050002,4,1.769,,,,,,,,,,,,,,,,,,2019_Mar_25_1619,60.45609285182913,Cloud_Experiment_FR_REAL,001,28,
images/fcloud_D1_7.tif,1.0,0,,,,,,,,,,,,,0,86,86,8,,,,,,,,,,,1,space,6.17869229999,2,1.383,,,,,,,,,,,,,,,,,,2019_Mar_25_1619,60.45609285182913,Cloud_Experiment_FR_REAL,001,28,
images/fcloud65-35_D1.1_10.tif,1.1,1,,,,,,,,,,,,,0,87,87,63,,,,,,,,,,,None,None,,None,10.477,,,,,,,,,,,,,,,,,,2019_Mar_25_1619,60.45609285182913,Cloud_Experiment_FR_REAL,001,28,
images/fcloud_D1_10.tif,1.0,0,,,,,,,,,,,,,0,88,88,11,,,,,,,,,,,1,None,,1,1.567,,,,,,,,,,,,,,,,,,2019_Mar_25_1619,60.45609285182913,Cloud_Experiment_FR_REAL,001,28,
images/fcloud80-20_D1.3_9.tif,1.3,2,,,,,,,,,,,,,0,89,89,118,,,,,,,,,,,1,space,6.62669369997,1,0.519,,,,,,,,,,,,,,,,,,2019_Mar_25_1619,60.45609285182913,Cloud_Experiment_FR_REAL,001,28,
images/fcloud_D1.7_9.tif,1.7,0,,,,,,,,,,,,,0,90,90,38,,,,,,,,,,,None,None,,None,9.344,,,,,,,,,,,,,,,,,,2019_Mar_25_1619,60.45609285182913,Cloud_Experiment_FR_REAL,001,28,
images/fcloud65-35_D1.6_8.tif,1.6,1,,,,,,,,,,,,,0,91,91,81,,,,,,,,,,,None,None,,None,18.17,,,,,,,,,,,,,,,,,,2019_Mar_25_1619,60.45609285182913,Cloud_Experiment_FR_REAL,001,28,
images/fcloud_D1.1_7.tif,1.1,0,,,,,,,,,,,,,0,92,92,12,,,,,,,,,,,1,space,4.13365949999,2,0.686,,,,,,,,,,,,,,,,,,2019_Mar_25_1619,60.45609285182913,Cloud_Experiment_FR_REAL,001,28,
images/fcloud_D1.4_10.tif,1.4,0,,,,,,,,,,,,,0,93,93,27,,,,,,,,,,,3,space,3.40167449997,4,0.889,,,,,,,,,,,,,,,,,,2019_Mar_25_1619,60.45609285182913,Cloud_Experiment_FR_REAL,001,28,
images/fcloud65-35_D1.3_7.tif,1.3,1,,,,,,,,,,,,,0,94,94,68,,,,,,,,,,,None,None,,None,11.291,,,,,,,,,,,,,,,,,,2019_Mar_25_1619,60.45609285182913,Cloud_Experiment_FR_REAL,001,28,
images/fcloud65-35_D1_8.tif,1.0,1,,,,,,,,,,,,,0,95,95,57,,,,,,,,,,,1,space,5.75062549999,1,0.606,,,,,,,,,,,,,,,,,,2019_Mar_25_1619,60.45609285182913,Cloud_Experiment_FR_REAL,001,28,
images/fcloud80-20_D1_10.tif,1.0,2,,,,,,,,,,,,,0,96,96,107,,,,,,,,,,,None,None,,None,9.997,,,,,,,,,,,,,,,,,,2019_Mar_25_1619,60.45609285182913,Cloud_Experiment_FR_REAL,001,28,
images/fcloud_D1.4_9.tif,1.4,0,,,,,,,,,,,,,0,97,97,26,,,,,,,,,,,None,None,,None,20.285,,,,,,,,,,,,,,,,,,2019_Mar_25_1619,60.45609285182913,Cloud_Experiment_FR_REAL,001,28,
images/fcloud_D1.3_8.tif,1.3,0,,,,,,,,,,,,,0,98,98,21,,,,,,,,,,,1,space,6.07132270001,3,1.036,,,,,,,,,,,,,,,,,,2019_Mar_25_1619,60.45609285182913,Cloud_Experiment_FR_REAL,001,28,
images/fcloud_D1.6_9.tif,1.6,0,,,,,,,,,,,,,0,99,99,34,,,,,,,,,,,None,None,,None,10.562,,,,,,,,,,,,,,,,,,2019_Mar_25_1619,60.45609285182913,Cloud_Experiment_FR_REAL,001,28,
images/fcloud65-35_D1.3_10.tif,1.3,1,,,,,,,,,,,,,0,100,100,71,,,,,,,,,,,1,None,,1,0.553,,,,,,,,,,,,,,,,,,2019_Mar_25_1619,60.45609285182913,Cloud_Experiment_FR_REAL,001,28,
images/fcloud80-20_D1.1_8.tif,1.1,2,,,,,,,,,,,,,0,101,101,109,,,,,,,,,,,None,None,,None,9.364,,,,,,,,,,,,,,,,,,2019_Mar_25_1619,60.45609285182913,Cloud_Experiment_FR_REAL,001,28,
images/fcloud65-35_D1.7_10.tif,1.7,1,,,,,,,,,,,,,0,102,102,87,,,,,,,,,,,2,space,6.88836529996,2,1.252,,,,,,,,,,,,,,,,,,2019_Mar_25_1619,60.45609285182913,Cloud_Experiment_FR_REAL,001,28,
images/fcloud_D1.9_8.tif,1.9,0,,,,,,,,,,,,,0,103,103,45,,,,,,,,,,,None,None,,None,10.16,,,,,,,,,,,,,,,,,,2019_Mar_25_1619,60.45609285182913,Cloud_Experiment_FR_REAL,001,28,
images/fcloud65-35_D0.9_7.tif,0.9,1,,,,,,,,,,,,,0,104,104,52,,,,,,,,,,,None,None,,None,18.506,,,,,,,,,,,,,,,,,,2019_Mar_25_1619,60.45609285182913,Cloud_Experiment_FR_REAL,001,28,
images/fcloud65-35_D0.8_8.tif,0.8,1,,,,,,,,,,,,,0,105,105,49,,,,,,,,,,,None,None,,None,26.86,,,,,,,,,,,,,,,,,,2019_Mar_25_1619,60.45609285182913,Cloud_Experiment_FR_REAL,001,28,
images/fcloud65-35_D1.9_10.tif,1.9,1,,,,,,,,,,,,,0,106,106,95,,,,,,,,,,,None,None,,None,35.356,,,,,,,,,,,,,,,,,,2019_Mar_25_1619,60.45609285182913,Cloud_Experiment_FR_REAL,001,28,
images/fcloud_D1.8_7.tif,1.8,0,,,,,,,,,,,,,0,107,107,40,,,,,,,,,,,1,space,5.4327064,2,0.768,,,,,,,,,,,,,,,,,,2019_Mar_25_1619,60.45609285182913,Cloud_Experiment_FR_REAL,001,28,
images/fcloud_D1.4_7.tif,1.4,0,,,,,,,,,,,,,0,108,108,24,,,,,,,,,,,2,space,2.77036700002,4,0.852,,,,,,,,,,,,,,,,,,2019_Mar_25_1619,60.45609285182913,Cloud_Experiment_FR_REAL,001,28,
images/fcloud_D0.8_9.tif,0.8,0,,,,,,,,,,,,,0,109,109,2,,,,,,,,,,,1,space,4.4029402,3,0.869,,,,,,,,,,,,,,,,,,2019_Mar_25_1619,60.45609285182913,Cloud_Experiment_FR_REAL,001,28,
images/fcloud65-35_D1.4_9.tif,1.4,1,,,,,,,,,,,,,0,110,110,74,,,,,,,,,,,None,None,,None,10.043,,,,,,,,,,,,,,,,,,2019_Mar_25_1619,60.45609285182913,Cloud_Experiment_FR_REAL,001,28,
images/fcloud80-20_D1.4_8.tif,1.4,2,,,,,,,,,,,,,0,111,111,121,,,,,,,,,,,None,None,,None,18.923,,,,,,,,,,,,,,,,,,2019_Mar_25_1619,60.45609285182913,Cloud_Experiment_FR_REAL,001,28,
images/fcloud80-20_D1.6_7.tif,1.6,2,,,,,,,,,,,,,0,112,112,128,,,,,,,,,,,None,None,,None,27.393,,,,,,,,,,,,,,,,,,2019_Mar_25_1619,60.45609285182913,Cloud_Experiment_FR_REAL,001,28,
images/fcloud80-20_D1.5_7.tif,1.5,2,,,,,,,,,,,,,0,113,113,124,,,,,,,,,,,2,None,,2,4.466,,,,,,,,,,,,,,,,,,2019_Mar_25_1619,60.45609285182913,Cloud_Experiment_FR_REAL,001,28,
images/fcloud80-20_D1.6_9.tif,1.6,2,,,,,,,,,,,,,0,114,114,130,,,,,,,,,,,None,None,,None,13.61,,,,,,,,,,,,,,,,,,2019_Mar_25_1619,60.45609285182913,Cloud_Experiment_FR_REAL,001,28,
images/fcloud_D1.3_7.tif,1.3,0,,,,,,,,,,,,,0,115,115,20,,,,,,,,,,,1,space,6.81870929996,2,0.669,,,,,,,,,,,,,,,,,,2019_Mar_25_1619,60.45609285182913,Cloud_Experiment_FR_REAL,001,28,
images/fcloud_D0.8_8.tif,0.8,0,,,,,,,,,,,,,0,116,116,1,,,,,,,,,,,None,None,,None,9.511,,,,,,,,,,,,,,,,,,2019_Mar_25_1619,60.45609285182913,Cloud_Experiment_FR_REAL,001,28,
images/fcloud_D1.2_8.tif,1.2,0,,,,,,,,,,,,,0,117,117,17,,,,,,,,,,,3,space,4.47926240001,3,1.653,,,,,,,,,,,,,,,,,,2019_Mar_25_1619,60.45609285182913,Cloud_Experiment_FR_REAL,001,28,
images/fcloud65-35_D1.7_7.tif,1.7,1,,,,,,,,,,,,,0,118,118,84,,,,,,,,,,,1,None,,1,0.552,,,,,,,,,,,,,,,,,,2019_Mar_25_1619,60.45609285182913,Cloud_Experiment_FR_REAL,001,28,
images/fcloud65-35_D1.2_9.tif,1.2,1,,,,,,,,,,,,,0,119,119,66,,,,,,,,,,,None,None,,None,8.846,,,,,,,,,,,,,,,,,,2019_Mar_25_1619,60.45609285182913,Cloud_Experiment_FR_REAL,001,28,
images/fcloud_D0.9_10.tif,0.9,0,,,,,,,,,,,,,0,120,120,7,,,,,,,,,,,1,space,7.06524690002,1,1.535,,,,,,,,,,,,,,,,,,2019_Mar_25_1619,60.45609285182913,Cloud_Experiment_FR_REAL,001,28,
images/fcloud65-35_D1.8_9.tif,1.8,1,,,,,,,,,,,,,0,121,121,90,,,,,,,,,,,None,None,,None,10.562,,,,,,,,,,,,,,,,,,2019_Mar_25_1619,60.45609285182913,Cloud_Experiment_FR_REAL,001,28,
images/fcloud65-35_D1.7_8.tif,1.7,1,,,,,,,,,,,,,0,122,122,85,,,,,,,,,,,None,None,,None,19.05,,,,,,,,,,,,,,,,,,2019_Mar_25_1619,60.45609285182913,Cloud_Experiment_FR_REAL,001,28,
images/fcloud65-35_D1.8_7.tif,1.8,1,,,,,,,,,,,,,0,123,123,88,,,,,,,,,,,None,None,,None,27.418,,,,,,,,,,,,,,,,,,2019_Mar_25_1619,60.45609285182913,Cloud_Experiment_FR_REAL,001,28,
images/fcloud80-20_D1_7.tif,1.0,2,,,,,,,,,,,,,0,124,124,104,,,,,,,,,,,None,None,,None,35.954,,,,,,,,,,,,,,,,,,2019_Mar_25_1619,60.45609285182913,Cloud_Experiment_FR_REAL,001,28,
images/fcloud_D1.2_7.tif,1.2,0,,,,,,,,,,,,,0,125,125,16,,,,,,,,,,,2,space,5.34660270001,3,1.717,,,,,,,,,,,,,,,,,,2019_Mar_25_1619,60.45609285182913,Cloud_Experiment_FR_REAL,001,28,
images/fcloud65-35_D1.4_8.tif,1.4,1,,,,,,,,,,,,,0,126,126,73,,,,,,,,,,,1,space,5.04479880002,3,0.969,,,,,,,,,,,,,,,,,,2019_Mar_25_1619,60.45609285182913,Cloud_Experiment_FR_REAL,001,28,
images/fcloud_D1.9_10.tif,1.9,0,,,,,,,,,,,,,0,127,127,47,,,,,,,,,,,None,None,,None,9.725,,,,,,,,,,,,,,,,,,2019_Mar_25_1619,60.45609285182913,Cloud_Experiment_FR_REAL,001,28,
images/fcloud80-20_D1.1_10.tif,1.1,2,,,,,,,,,,,,,0,128,128,111,,,,,,,,,,,None,None,,None,18.503,,,,,,,,,,,,,,,,,,2019_Mar_25_1619,60.45609285182913,Cloud_Experiment_FR_REAL,001,28,
images/fcloud80-20_D1.8_7.tif,1.8,2,,,,,,,,,,,,,0,129,129,136,,,,,,,,,,,None,None,,None,29.126,,,,,,,,,,,,,,,,,,2019_Mar_25_1619,60.45609285182913,Cloud_Experiment_FR_REAL,001,28,
images/fcloud80-20_D1.3_10.tif,1.3,2,,,,,,,,,,,,,0,130,130,119,,,,,,,,,,,None,None,,None,37.769,,,,,,,,,,,,,,,,,,2019_Mar_25_1619,60.45609285182913,Cloud_Experiment_FR_REAL,001,28,
images/fcloud65-35_D0.9_8.tif,0.9,1,,,,,,,,,,,,,0,131,131,53,,,,,,,,,,,None,None,,None,47.276,,,,,,,,,,,,,,,,,,2019_Mar_25_1619,60.45609285182913,Cloud_Experiment_FR_REAL,001,28,
images/fcloud65-35_D1.2_10.tif,1.2,1,,,,,,,,,,,,,0,132,132,67,,,,,,,,,,,1,space,4.88296810002,1,3.0,,,,,,,,,,,,,,,,,,2019_Mar_25_1619,60.45609285182913,Cloud_Experiment_FR_REAL,001,28,
images/fcloud80-20_D1.7_10.tif,1.7,2,,,,,,,,,,,,,0,133,133,135,,,,,,,,,,,None,None,,None,11.391,,,,,,,,,,,,,,,,,,2019_Mar_25_1619,60.45609285182913,Cloud_Experiment_FR_REAL,001,28,
images/fcloud80-20_D1.6_8.tif,1.6,2,,,,,,,,,,,,,0,134,134,129,,,,,,,,,,,1,space,4.90427430003,1,0.468,,,,,,,,,,,,,,,,,,2019_Mar_25_1619,60.45609285182913,Cloud_Experiment_FR_REAL,001,28,
images/fcloud80-20_D0.8_8.tif,0.8,2,,,,,,,,,,,,,0,135,135,97,,,,,,,,,,,None,None,,None,9.495,,,,,,,,,,,,,,,,,,2019_Mar_25_1619,60.45609285182913,Cloud_Experiment_FR_REAL,001,28,
images/fcloud_D1.8_10.tif,1.8,0,,,,,,,,,,,,,0,136,136,43,,,,,,,,,,,None,None,,None,18.226,,,,,,,,,,,,,,,,,,2019_Mar_25_1619,60.45609285182913,Cloud_Experiment_FR_REAL,001,28,
images/fcloud65-35_D1.3_8.tif,1.3,1,,,,,,,,,,,,,0,137,137,69,,,,,,,,,,,None,None,,None,26.696,,,,,,,,,,,,,,,,,,2019_Mar_25_1619,60.45609285182913,Cloud_Experiment_FR_REAL,001,28,
images/fcloud80-20_D1_8.tif,1.0,2,,,,,,,,,,,,,0,138,138,105,,,,,,,,,,,1,space,2.77913600003,1,0.885,,,,,,,,,,,,,,,,,,2019_Mar_25_1619,60.45609285182913,Cloud_Experiment_FR_REAL,001,28,
images/fcloud_D1.6_8.tif,1.6,0,,,,,,,,,,,,,0,139,139,33,,,,,,,,,,,1,space,4.90007900004,2,0.637,,,,,,,,,,,,,,,,,,2019_Mar_25_1619,60.45609285182913,Cloud_Experiment_FR_REAL,001,28,
images/fcloud65-35_D1.5_10.tif,1.5,1,,,,,,,,,,,,,0,140,140,79,,,,,,,,,,,None,space,7.52490700001,None,9.561,,,,,,,,,,,,,,,,,,2019_Mar_25_1619,60.45609285182913,Cloud_Experiment_FR_REAL,001,28,
images/fcloud80-20_D1.2_10.tif,1.2,2,,,,,,,,,,,,,0,141,141,115,,,,,,,,,,,1,None,,1,0.435,,,,,,,,,,,,,,,,,,2019_Mar_25_1619,60.45609285182913,Cloud_Experiment_FR_REAL,001,28,
images/fcloud_D1_9.tif,1.0,0,,,,,,,,,,,,,0,142,142,10,,,,,,,,,,,1,None,,3,1.65,,,,,,,,,,,,,,,,,,2019_Mar_25_1619,60.45609285182913,Cloud_Experiment_FR_REAL,001,28,
images/fcloud80-20_D1.1_9.tif,1.1,2,,,,,,,,,,,,,0,143,143,110,,,,,,,,,,,None,None,,None,11.041,,,,,,,,,,,,,,,,,,2019_Mar_25_1619,60.45609285182913,Cloud_Experiment_FR_REAL,001,28,
,,,,,,,,,,,,,,,,,,,,,,,,,3,7.806,,,,,,,,,,,,,,,,,,,,,,,,,2019_Mar_25_1619,60.45609285182913,Cloud_Experiment_FR_REAL,001,28,
,,,,,,,,,,,,,,,,,,,,,,,,,,,,,,,,,,3,,,,,,,,,,,,,,,,,2019_Mar_25_1619,60.45609285182913,Cloud_Experiment_FR_REAL,001,28,
,,,,,,,,,,,,,,,,,,,,,,,,,,,,,,,,,,,3,,,,,,,,,,,,,,,,2019_Mar_25_1619,60.45609285182913,Cloud_Experiment_FR_REAL,001,28,
,,,,,,,,,,,,,,,,,,,,,,,,,,,,,,,,,,,,2,,,,,,,,,,,,,,,2019_Mar_25_1619,60.45609285182913,Cloud_Experiment_FR_REAL,001,28,
,,,,,,,,,,,,,,,,,,,,,,,,,,,,,,,,,,,,,2,,,,,,,,,,,,,,2019_Mar_25_1619,60.45609285182913,Cloud_Experiment_FR_REAL,001,28,
,,,,,,,,,,,,,,,,,,,,,,,,,,,,,,,,,,,,,,3,,,,,,,,,,,,,2019_Mar_25_1619,60.45609285182913,Cloud_Experiment_FR_REAL,001,28,
,,,,,,,,,,,,,,,,,,,,,,,,,,,,,,,,,,,,,,,5,,,,,,,,,,,,2019_Mar_25_1619,60.45609285182913,Cloud_Experiment_FR_REAL,001,28,
,,,,,,,,,,,,,,,,,,,,,,,,,,,,,,,,,,,,,,,,3,,,,,,,,,,,2019_Mar_25_1619,60.45609285182913,Cloud_Experiment_FR_REAL,001,28,
,,,,,,,,,,,,,,,,,,,,,,,,,,,,,,,,,,,,,,,,,6,,,,,,,,,,2019_Mar_25_1619,60.45609285182913,Cloud_Experiment_FR_REAL,001,28,
,,,,,,,,,,,,,,,,,,,,,,,,,,,,,,,,,,,,,,,,,,4,,,,,,,,,2019_Mar_25_1619,60.45609285182913,Cloud_Experiment_FR_REAL,001,28,
,,,,,,,,,,,,,,,,,,,,,,,,,,,,,,,,,,,,,,,,,,,2,,,,,,,,2019_Mar_25_1619,60.45609285182913,Cloud_Experiment_FR_REAL,001,28,
,,,,,,,,,,,,,,,,,,,,,,,,,,,,,,,,,,,,,,,,,,,,,,,,,,3,2019_Mar_25_1619,60.45609285182913,Cloud_Experiment_FR_REAL,001,28,
