ImageFile,FD,Contrast,trials_4.thisRepN,trials_4.thisTrialN,trials_4.thisN,trials_4.thisIndex,trials.thisRepN,trials.thisTrialN,trials.thisN,trials.thisIndex,trials_2.thisRepN,trials_2.thisTrialN,trials_2.thisN,trials_2.thisIndex,trials_3.thisRepN,trials_3.thisTrialN,trials_3.thisN,trials_3.thisIndex,end_instructions.keys,end_instructions.rt,key_resp_4.keys,key_resp_4.rt,key_resp_6.keys,key_resp_6.rt,Fatigue.response,Fatigue.rt,key_resp_5.keys,key_resp_5.rt,n_objets.response,reaction_time.keys,reaction_time.rt,vividness.response,vividness.rt,Flow01.response,Flow02.response,Flow03.response,Flow04.response,Flow05.response,Flow06.response,Flow07.response,Flow08.response,Flow09.response,Flow10.response,key_resp_2.keys,key_resp_2.rt,key_resp_8.keys,key_resp_8.rt,key_resp_3.keys,key_resp_3.rt,Redondance_question.response,date,frameRate,expName,session,participant,
,,,,,,,,,,,,,,,,,,,space,171.2349775,,,,,,,,,,,,,,,,,,,,,,,,,,,,,,,2019_Mar_28_1542,59.957142671037985,Cloud_Experiment_FR_REAL,001,29,
,,,,,,,,,,,,,,,,,,,,,space,14.3057457999,,,,,,,,,,,,,,,,,,,,,,,,,,,,,2019_Mar_28_1542,59.957142671037985,Cloud_Experiment_FR_REAL,001,29,
,,,,,,,,,,,,,,,,,,,,,,,space,7.59726850002,,,,,,,,,,,,,,,,,,,,,,,,,,,2019_Mar_28_1542,59.957142671037985,Cloud_Experiment_FR_REAL,001,29,
,,,,,,,,,,,,,,,,,,,,,,,,,6,52.352,,,,,,,,,,,,,,,,,,,,,,,,,2019_Mar_28_1542,59.957142671037985,Cloud_Experiment_FR_REAL,001,29,
,,,,,,,,,,,,,,,,,,,,,,,,,,,space,36.0363729,,,,,,,,,,,,,,,,,,,,,,,2019_Mar_28_1542,59.957142671037985,Cloud_Experiment_FR_REAL,001,29,
pratique/fcloud_D0.8_30,0.8,0,0,0,0,0,,,,,,,,,,,,,,,,,,,,,,,1,space,11.6878867999,1,5.597,,,,,,,,,,,,,,,,,,2019_Mar_28_1542,59.957142671037985,Cloud_Experiment_FR_REAL,001,29,
pratique/fcloud80-20_D1_30,1.0,2,0,1,1,9,,,,,,,,,,,,,,,,,,,,,,,2,None,,3,3.432,,,,,,,,,,,,,,,,,,2019_Mar_28_1542,59.957142671037985,Cloud_Experiment_FR_REAL,001,29,
pratique/fcloud80-20_D1.8_30,1.8,2,0,2,2,4,,,,,,,,,,,,,,,,,,,,,,,1,None,,2,8.213,,,,,,,,,,,,,,,,,,2019_Mar_28_1542,59.957142671037985,Cloud_Experiment_FR_REAL,001,29,
pratique/fcloud65-35_D1.3_30,1.3,1,0,3,3,6,,,,,,,,,,,,,,,,,,,,,,,1,space,0.00791799998842,1,27.178,,,,,,,,,,,,,,,,,,2019_Mar_28_1542,59.957142671037985,Cloud_Experiment_FR_REAL,001,29,
pratique/fcloud65-35_D1.9_29,1.9,1,0,4,4,7,,,,,,,,,,,,,,,,,,,,,,,1,space,4.09990869998,2,2.5,,,,,,,,,,,,,,,,,,2019_Mar_28_1542,59.957142671037985,Cloud_Experiment_FR_REAL,001,29,
pratique/fcloud65-35_D1.6_30,1.6,1,0,5,5,2,,,,,,,,,,,,,,,,,,,,,,,2,space,5.28632499999,3,6.38,,,,,,,,,,,,,,,,,,2019_Mar_28_1542,59.957142671037985,Cloud_Experiment_FR_REAL,001,29,
pratique/fcloud_D1.4_30,1.4,0,0,6,6,1,,,,,,,,,,,,,,,,,,,,,,,3,space,2.51381489995,3,1.935,,,,,,,,,,,,,,,,,,2019_Mar_28_1542,59.957142671037985,Cloud_Experiment_FR_REAL,001,29,
pratique/fcloud80-20_D1.5_30,1.5,2,0,7,7,8,,,,,,,,,,,,,,,,,,,,,,,1,None,,2,1.883,,,,,,,,,,,,,,,,,,2019_Mar_28_1542,59.957142671037985,Cloud_Experiment_FR_REAL,001,29,
pratique/fcloud65-35_D1.2_30,1.2,1,0,8,8,3,,,,,,,,,,,,,,,,,,,,,,,1,space,9.65237039991,1,0.686,,,,,,,,,,,,,,,,,,2019_Mar_28_1542,59.957142671037985,Cloud_Experiment_FR_REAL,001,29,
pratique/fcloud_D1.6_28,1.6,0,0,9,9,5,,,,,,,,,,,,,,,,,,,,,,,3,space,2.24297700007,3,2.268,,,,,,,,,,,,,,,,,,2019_Mar_28_1542,59.957142671037985,Cloud_Experiment_FR_REAL,001,29,
,,,,,,,,,,,,,,,,,,,,,,,,,,,,,,,,,,5,,,,,,,,,,,,,,,,,2019_Mar_28_1542,59.957142671037985,Cloud_Experiment_FR_REAL,001,29,
,,,,,,,,,,,,,,,,,,,,,,,,,,,,,,,,,,,6,,,,,,,,,,,,,,,,2019_Mar_28_1542,59.957142671037985,Cloud_Experiment_FR_REAL,001,29,
,,,,,,,,,,,,,,,,,,,,,,,,,,,,,,,,,,,,5,,,,,,,,,,,,,,,2019_Mar_28_1542,59.957142671037985,Cloud_Experiment_FR_REAL,001,29,
,,,,,,,,,,,,,,,,,,,,,,,,,,,,,,,,,,,,,4,,,,,,,,,,,,,,2019_Mar_28_1542,59.957142671037985,Cloud_Experiment_FR_REAL,001,29,
,,,,,,,,,,,,,,,,,,,,,,,,,,,,,,,,,,,,,,3,,,,,,,,,,,,,2019_Mar_28_1542,59.957142671037985,Cloud_Experiment_FR_REAL,001,29,
,,,,,,,,,,,,,,,,,,,,,,,,,,,,,,,,,,,,,,,5,,,,,,,,,,,,2019_Mar_28_1542,59.957142671037985,Cloud_Experiment_FR_REAL,001,29,
,,,,,,,,,,,,,,,,,,,,,,,,,,,,,,,,,,,,,,,,6,,,,,,,,,,,2019_Mar_28_1542,59.957142671037985,Cloud_Experiment_FR_REAL,001,29,
,,,,,,,,,,,,,,,,,,,,,,,,,,,,,,,,,,,,,,,,,7,,,,,,,,,,2019_Mar_28_1542,59.957142671037985,Cloud_Experiment_FR_REAL,001,29,
,,,,,,,,,,,,,,,,,,,,,,,,,,,,,,,,,,,,,,,,,,7,,,,,,,,,2019_Mar_28_1542,59.957142671037985,Cloud_Experiment_FR_REAL,001,29,
,,,,,,,,,,,,,,,,,,,,,,,,,,,,,,,,,,,,,,,,,,,6,,,,,,,,2019_Mar_28_1542,59.957142671037985,Cloud_Experiment_FR_REAL,001,29,
,,,,,,,,,,,,,,,,,,,,,,,,,,,,,,,,,,,,,,,,,,,,space,0.782992199995,,,,,,2019_Mar_28_1542,59.957142671037985,Cloud_Experiment_FR_REAL,001,29,
images/fcloud65-35_D1.7_3.tif,1.7,1,,,,,0,0,0,65,,,,,,,,,,,,,,,,,,,1,space,2.9937775,4,3.6,,,,,,,,,,,,,,,,,,2019_Mar_28_1542,59.957142671037985,Cloud_Experiment_FR_REAL,001,29,
images/fcloud_D1.9_3.tif,1.9,0,,,,,0,1,1,35,,,,,,,,,,,,,,,,,,,None,None,,None,12.689,,,,,,,,,,,,,,,,,,2019_Mar_28_1542,59.957142671037985,Cloud_Experiment_FR_REAL,001,29,
images/fcloud65-35_D1.6_2.tif,1.6,1,,,,,0,2,2,61,,,,,,,,,,,,,,,,,,,2,space,2.77822119999,3,1.668,,,,,,,,,,,,,,,,,,2019_Mar_28_1542,59.957142671037985,Cloud_Experiment_FR_REAL,001,29,
images/fcloud65-35_D1.2_1.tif,1.2,1,,,,,0,3,3,48,,,,,,,,,,,,,,,,,,,4,space,3.02254239994,4,2.384,,,,,,,,,,,,,,,,,,2019_Mar_28_1542,59.957142671037985,Cloud_Experiment_FR_REAL,001,29,
images/fcloud_D1.2_2.tif,1.2,0,,,,,0,4,4,13,,,,,,,,,,,,,,,,,,,3,space,5.06032240007,4,1.7,,,,,,,,,,,,,,,,,,2019_Mar_28_1542,59.957142671037985,Cloud_Experiment_FR_REAL,001,29,
images/fcloud80-20_D1.9_2.tif,1.9,2,,,,,0,5,5,106,,,,,,,,,,,,,,,,,,,1,space,2.98977510002,4,1.634,,,,,,,,,,,,,,,,,,2019_Mar_28_1542,59.957142671037985,Cloud_Experiment_FR_REAL,001,29,
images/fcloud65-35_D1.5_2.tif,1.5,1,,,,,0,6,6,58,,,,,,,,,,,,,,,,,,,2,space,2.98313730001,2,2.782,,,,,,,,,,,,,,,,,,2019_Mar_28_1542,59.957142671037985,Cloud_Experiment_FR_REAL,001,29,
images/fcloud65-35_D0.9_2.tif,0.9,1,,,,,0,7,7,40,,,,,,,,,,,,,,,,,,,1,space,2.13295230002,4,1.451,,,,,,,,,,,,,,,,,,2019_Mar_28_1542,59.957142671037985,Cloud_Experiment_FR_REAL,001,29,
images/fcloud_D1.9_2.tif,1.9,0,,,,,0,8,8,34,,,,,,,,,,,,,,,,,,,1,space,6.21884240001,2,2.65,,,,,,,,,,,,,,,,,,2019_Mar_28_1542,59.957142671037985,Cloud_Experiment_FR_REAL,001,29,
images/fcloud65-35_D1.6_3.tif,1.6,1,,,,,0,9,9,62,,,,,,,,,,,,,,,,,,,2,space,4.21454979992,4,1.616,,,,,,,,,,,,,,,,,,2019_Mar_28_1542,59.957142671037985,Cloud_Experiment_FR_REAL,001,29,
images/fcloud_D1_2.tif,1.0,0,,,,,0,10,10,7,,,,,,,,,,,,,,,,,,,2,space,5.67886949994,2,1.135,,,,,,,,,,,,,,,,,,2019_Mar_28_1542,59.957142671037985,Cloud_Experiment_FR_REAL,001,29,
images/fcloud_D1_3.tif,1.0,0,,,,,0,11,11,8,,,,,,,,,,,,,,,,,,,3,space,2.37537450006,4,1.652,,,,,,,,,,,,,,,,,,2019_Mar_28_1542,59.957142671037985,Cloud_Experiment_FR_REAL,001,29,
images/fcloud65-35_D1.8_2.tif,1.8,1,,,,,0,12,12,67,,,,,,,,,,,,,,,,,,,1,space,6.65446550003,2,2.467,,,,,,,,,,,,,,,,,,2019_Mar_28_1542,59.957142671037985,Cloud_Experiment_FR_REAL,001,29,
images/fcloud_D1.3_1.tif,1.3,0,,,,,0,13,13,15,,,,,,,,,,,,,,,,,,,2,space,3.75116790005,3,1.002,,,,,,,,,,,,,,,,,,2019_Mar_28_1542,59.957142671037985,Cloud_Experiment_FR_REAL,001,29,
images/fcloud80-20_D1.8_1.tif,1.8,2,,,,,0,14,14,102,,,,,,,,,,,,,,,,,,,2,None,,2,1.183,,,,,,,,,,,,,,,,,,2019_Mar_28_1542,59.957142671037985,Cloud_Experiment_FR_REAL,001,29,
images/fcloud80-20_D1.7_3.tif,1.7,2,,,,,0,15,15,101,,,,,,,,,,,,,,,,,,,2,None,,3,1.319,,,,,,,,,,,,,,,,,,2019_Mar_28_1542,59.957142671037985,Cloud_Experiment_FR_REAL,001,29,
images/fcloud_D1.8_3.tif,1.8,0,,,,,0,16,16,32,,,,,,,,,,,,,,,,,,,1,None,,1,0.951,,,,,,,,,,,,,,,,,,2019_Mar_28_1542,59.957142671037985,Cloud_Experiment_FR_REAL,001,29,
images/fcloud80-20_D1_2.tif,1.0,2,,,,,0,17,17,79,,,,,,,,,,,,,,,,,,,4,None,,4,1.735,,,,,,,,,,,,,,,,,,2019_Mar_28_1542,59.957142671037985,Cloud_Experiment_FR_REAL,001,29,
images/fcloud_D1.2_3.tif,1.2,0,,,,,0,18,18,14,,,,,,,,,,,,,,,,,,,3,None,,4,0.789,,,,,,,,,,,,,,,,,,2019_Mar_28_1542,59.957142671037985,Cloud_Experiment_FR_REAL,001,29,
images/fcloud_D0.8_3.tif,0.8,0,,,,,0,19,19,2,,,,,,,,,,,,,,,,,,,3,None,,4,2.566,,,,,,,,,,,,,,,,,,2019_Mar_28_1542,59.957142671037985,Cloud_Experiment_FR_REAL,001,29,
images/fcloud80-20_D1.3_1.tif,1.3,2,,,,,0,20,20,87,,,,,,,,,,,,,,,,,,,2,None,,2,0.685,,,,,,,,,,,,,,,,,,2019_Mar_28_1542,59.957142671037985,Cloud_Experiment_FR_REAL,001,29,
images/fcloud65-35_D1.9_2.tif,1.9,1,,,,,0,21,21,70,,,,,,,,,,,,,,,,,,,2,space,6.79386019998,2,1.385,,,,,,,,,,,,,,,,,,2019_Mar_28_1542,59.957142671037985,Cloud_Experiment_FR_REAL,001,29,
images/fcloud_D1.4_1.tif,1.4,0,,,,,0,22,22,18,,,,,,,,,,,,,,,,,,,2,None,,2,0.585,,,,,,,,,,,,,,,,,,2019_Mar_28_1542,59.957142671037985,Cloud_Experiment_FR_REAL,001,29,
images/fcloud_D1.1_2.tif,1.1,0,,,,,0,23,23,10,,,,,,,,,,,,,,,,,,,3,None,,3,0.901,,,,,,,,,,,,,,,,,,2019_Mar_28_1542,59.957142671037985,Cloud_Experiment_FR_REAL,001,29,
images/fcloud_D1.8_1.tif,1.8,0,,,,,0,24,24,30,,,,,,,,,,,,,,,,,,,None,None,,None,9.676,,,,,,,,,,,,,,,,,,2019_Mar_28_1542,59.957142671037985,Cloud_Experiment_FR_REAL,001,29,
images/fcloud65-35_D1.7_1.tif,1.7,1,,,,,0,25,25,63,,,,,,,,,,,,,,,,,,,4,space,4.24648659991,4,2.382,,,,,,,,,,,,,,,,,,2019_Mar_28_1542,59.957142671037985,Cloud_Experiment_FR_REAL,001,29,
images/fcloud65-35_D1_3.tif,1.0,1,,,,,0,26,26,44,,,,,,,,,,,,,,,,,,,1,None,,1,0.851,,,,,,,,,,,,,,,,,,2019_Mar_28_1542,59.957142671037985,Cloud_Experiment_FR_REAL,001,29,
images/fcloud80-20_D1_3.tif,1.0,2,,,,,0,27,27,80,,,,,,,,,,,,,,,,,,,3,space,7.45182720001,3,3.883,,,,,,,,,,,,,,,,,,2019_Mar_28_1542,59.957142671037985,Cloud_Experiment_FR_REAL,001,29,
images/fcloud65-35_D1.5_1.tif,1.5,1,,,,,0,28,28,57,,,,,,,,,,,,,,,,,,,1,None,,5,1.318,,,,,,,,,,,,,,,,,,2019_Mar_28_1542,59.957142671037985,Cloud_Experiment_FR_REAL,001,29,
images/fcloud80-20_D1.7_1.tif,1.7,2,,,,,0,29,29,99,,,,,,,,,,,,,,,,,,,2,None,,2,0.985,,,,,,,,,,,,,,,,,,2019_Mar_28_1542,59.957142671037985,Cloud_Experiment_FR_REAL,001,29,
images/fcloud80-20_D1.1_1.tif,1.1,2,,,,,0,30,30,81,,,,,,,,,,,,,,,,,,,2,space,5.53463370004,3,2.566,,,,,,,,,,,,,,,,,,2019_Mar_28_1542,59.957142671037985,Cloud_Experiment_FR_REAL,001,29,
images/fcloud80-20_D1.3_3.tif,1.3,2,,,,,0,31,31,89,,,,,,,,,,,,,,,,,,,3,None,,5,0.836,,,,,,,,,,,,,,,,,,2019_Mar_28_1542,59.957142671037985,Cloud_Experiment_FR_REAL,001,29,
images/fcloud_D1.7_3.tif,1.7,0,,,,,0,32,32,29,,,,,,,,,,,,,,,,,,,1,space,4.20361920004,5,1.035,,,,,,,,,,,,,,,,,,2019_Mar_28_1542,59.957142671037985,Cloud_Experiment_FR_REAL,001,29,
images/fcloud80-20_D1.5_1.tif,1.5,2,,,,,0,33,33,93,,,,,,,,,,,,,,,,,,,1,None,,1,0.568,,,,,,,,,,,,,,,,,,2019_Mar_28_1542,59.957142671037985,Cloud_Experiment_FR_REAL,001,29,
images/fcloud65-35_D1.4_3.tif,1.4,1,,,,,0,34,34,56,,,,,,,,,,,,,,,,,,,4,space,3.47178689996,4,1.383,,,,,,,,,,,,,,,,,,2019_Mar_28_1542,59.957142671037985,Cloud_Experiment_FR_REAL,001,29,
images/fcloud65-35_D1_1.tif,1.0,1,,,,,0,35,35,42,,,,,,,,,,,,,,,,,,,1,None,,4,0.935,,,,,,,,,,,,,,,,,,2019_Mar_28_1542,59.957142671037985,Cloud_Experiment_FR_REAL,001,29,
images/fcloud_D1.5_1.tif,1.5,0,,,,,0,36,36,21,,,,,,,,,,,,,,,,,,,3,None,,3,0.969,,,,,,,,,,,,,,,,,,2019_Mar_28_1542,59.957142671037985,Cloud_Experiment_FR_REAL,001,29,
images/fcloud65-35_D1_2.tif,1.0,1,,,,,0,37,37,43,,,,,,,,,,,,,,,,,,,2,None,,5,0.818,,,,,,,,,,,,,,,,,,2019_Mar_28_1542,59.957142671037985,Cloud_Experiment_FR_REAL,001,29,
images/fcloud_D1.1_3.tif,1.1,0,,,,,0,38,38,11,,,,,,,,,,,,,,,,,,,2,None,,5,0.652,,,,,,,,,,,,,,,,,,2019_Mar_28_1542,59.957142671037985,Cloud_Experiment_FR_REAL,001,29,
images/fcloud65-35_D1.4_2.tif,1.4,1,,,,,0,39,39,55,,,,,,,,,,,,,,,,,,,2,None,,3,1.418,,,,,,,,,,,,,,,,,,2019_Mar_28_1542,59.957142671037985,Cloud_Experiment_FR_REAL,001,29,
images/fcloud80-20_D1.4_2.tif,1.4,2,,,,,0,40,40,91,,,,,,,,,,,,,,,,,,,2,space,7.40443689993,3,0.72,,,,,,,,,,,,,,,,,,2019_Mar_28_1542,59.957142671037985,Cloud_Experiment_FR_REAL,001,29,
images/fcloud65-35_D1.1_3.tif,1.1,1,,,,,0,41,41,47,,,,,,,,,,,,,,,,,,,2,space,1.49733719998,4,1.8,,,,,,,,,,,,,,,,,,2019_Mar_28_1542,59.957142671037985,Cloud_Experiment_FR_REAL,001,29,
images/fcloud_D0.8_2.tif,0.8,0,,,,,0,42,42,1,,,,,,,,,,,,,,,,,,,3,None,,5,0.685,,,,,,,,,,,,,,,,,,2019_Mar_28_1542,59.957142671037985,Cloud_Experiment_FR_REAL,001,29,
images/fcloud80-20_D1.6_1.tif,1.6,2,,,,,0,43,43,96,,,,,,,,,,,,,,,,,,,2,None,,3,1.933,,,,,,,,,,,,,,,,,,2019_Mar_28_1542,59.957142671037985,Cloud_Experiment_FR_REAL,001,29,
images/fcloud_D0.9_1.tif,0.9,0,,,,,0,44,44,3,,,,,,,,,,,,,,,,,,,2,None,,2,1.634,,,,,,,,,,,,,,,,,,2019_Mar_28_1542,59.957142671037985,Cloud_Experiment_FR_REAL,001,29,
images/fcloud65-35_D1.5_3.tif,1.5,1,,,,,0,45,45,59,,,,,,,,,,,,,,,,,,,1,space,5.23718699999,1,0.603,,,,,,,,,,,,,,,,,,2019_Mar_28_1542,59.957142671037985,Cloud_Experiment_FR_REAL,001,29,
images/fcloud65-35_D1.3_2.tif,1.3,1,,,,,0,46,46,52,,,,,,,,,,,,,,,,,,,4,None,,4,0.954,,,,,,,,,,,,,,,,,,2019_Mar_28_1542,59.957142671037985,Cloud_Experiment_FR_REAL,001,29,
images/fcloud80-20_D1.6_3.tif,1.6,2,,,,,0,47,47,98,,,,,,,,,,,,,,,,,,,None,None,,None,10.908,,,,,,,,,,,,,,,,,,2019_Mar_28_1542,59.957142671037985,Cloud_Experiment_FR_REAL,001,29,
images/fcloud80-20_D1.1_2.tif,1.1,2,,,,,0,48,48,82,,,,,,,,,,,,,,,,,,,None,None,,None,21.833,,,,,,,,,,,,,,,,,,2019_Mar_28_1542,59.957142671037985,Cloud_Experiment_FR_REAL,001,29,
images/fcloud65-35_D1.7_2.tif,1.7,1,,,,,0,49,49,64,,,,,,,,,,,,,,,,,,,4,space,4.05499659991,3,1.117,,,,,,,,,,,,,,,,,,2019_Mar_28_1542,59.957142671037985,Cloud_Experiment_FR_REAL,001,29,
images/fcloud_D1.3_3.tif,1.3,0,,,,,0,50,50,17,,,,,,,,,,,,,,,,,,,2,space,6.68073649995,4,1.017,,,,,,,,,,,,,,,,,,2019_Mar_28_1542,59.957142671037985,Cloud_Experiment_FR_REAL,001,29,
images/fcloud80-20_D1.2_3.tif,1.2,2,,,,,0,51,51,86,,,,,,,,,,,,,,,,,,,1,None,,4,0.885,,,,,,,,,,,,,,,,,,2019_Mar_28_1542,59.957142671037985,Cloud_Experiment_FR_REAL,001,29,
images/fcloud_D0.9_2.tif,0.9,0,,,,,0,52,52,4,,,,,,,,,,,,,,,,,,,2,None,,4,1.017,,,,,,,,,,,,,,,,,,2019_Mar_28_1542,59.957142671037985,Cloud_Experiment_FR_REAL,001,29,
images/fcloud_D1.9_1.tif,1.9,0,,,,,0,53,53,33,,,,,,,,,,,,,,,,,,,3,None,,3,0.519,,,,,,,,,,,,,,,,,,2019_Mar_28_1542,59.957142671037985,Cloud_Experiment_FR_REAL,001,29,
images/fcloud_D1.4_3.tif,1.4,0,,,,,0,54,54,20,,,,,,,,,,,,,,,,,,,3,None,,4,0.585,,,,,,,,,,,,,,,,,,2019_Mar_28_1542,59.957142671037985,Cloud_Experiment_FR_REAL,001,29,
images/fcloud65-35_D0.9_1.tif,0.9,1,,,,,0,55,55,39,,,,,,,,,,,,,,,,,,,3,None,,5,1.369,,,,,,,,,,,,,,,,,,2019_Mar_28_1542,59.957142671037985,Cloud_Experiment_FR_REAL,001,29,
images/fcloud80-20_D1.8_3.tif,1.8,2,,,,,0,56,56,104,,,,,,,,,,,,,,,,,,,1,None,,3,0.686,,,,,,,,,,,,,,,,,,2019_Mar_28_1542,59.957142671037985,Cloud_Experiment_FR_REAL,001,29,
images/fcloud_D0.8_1.tif,0.8,0,,,,,0,57,57,0,,,,,,,,,,,,,,,,,,,2,None,,4,1.017,,,,,,,,,,,,,,,,,,2019_Mar_28_1542,59.957142671037985,Cloud_Experiment_FR_REAL,001,29,
images/fcloud_D1.4_2.tif,1.4,0,,,,,0,58,58,19,,,,,,,,,,,,,,,,,,,2,None,,4,0.735,,,,,,,,,,,,,,,,,,2019_Mar_28_1542,59.957142671037985,Cloud_Experiment_FR_REAL,001,29,
images/fcloud65-35_D1.6_1.tif,1.6,1,,,,,0,59,59,60,,,,,,,,,,,,,,,,,,,2,space,6.09552119998,3,1.118,,,,,,,,,,,,,,,,,,2019_Mar_28_1542,59.957142671037985,Cloud_Experiment_FR_REAL,001,29,
images/fcloud_D1.7_2.tif,1.7,0,,,,,0,60,60,28,,,,,,,,,,,,,,,,,,,1,space,4.63509869995,5,1.967,,,,,,,,,,,,,,,,,,2019_Mar_28_1542,59.957142671037985,Cloud_Experiment_FR_REAL,001,29,
images/fcloud80-20_D1.9_1.tif,1.9,2,,,,,0,61,61,105,,,,,,,,,,,,,,,,,,,None,None,,None,11.075,,,,,,,,,,,,,,,,,,2019_Mar_28_1542,59.957142671037985,Cloud_Experiment_FR_REAL,001,29,
images/fcloud_D1.3_2.tif,1.3,0,,,,,0,62,62,16,,,,,,,,,,,,,,,,,,,3,None,,4,1.217,,,,,,,,,,,,,,,,,,2019_Mar_28_1542,59.957142671037985,Cloud_Experiment_FR_REAL,001,29,
images/fcloud65-35_D0.8_2.tif,0.8,1,,,,,0,63,63,37,,,,,,,,,,,,,,,,,,,2,None,,3,0.836,,,,,,,,,,,,,,,,,,2019_Mar_28_1542,59.957142671037985,Cloud_Experiment_FR_REAL,001,29,
images/fcloud65-35_D0.9_3.tif,0.9,1,,,,,0,64,64,41,,,,,,,,,,,,,,,,,,,1,None,,5,1.518,,,,,,,,,,,,,,,,,,2019_Mar_28_1542,59.957142671037985,Cloud_Experiment_FR_REAL,001,29,
images/fcloud_D1_1.tif,1.0,0,,,,,0,65,65,6,,,,,,,,,,,,,,,,,,,1,None,,5,0.768,,,,,,,,,,,,,,,,,,2019_Mar_28_1542,59.957142671037985,Cloud_Experiment_FR_REAL,001,29,
images/fcloud_D1.6_3.tif,1.6,0,,,,,0,66,66,26,,,,,,,,,,,,,,,,,,,1,space,4.75908220001,4,1.05,,,,,,,,,,,,,,,,,,2019_Mar_28_1542,59.957142671037985,Cloud_Experiment_FR_REAL,001,29,
images/fcloud_D1.5_3.tif,1.5,0,,,,,0,67,67,23,,,,,,,,,,,,,,,,,,,None,None,,None,10.709,,,,,,,,,,,,,,,,,,2019_Mar_28_1542,59.957142671037985,Cloud_Experiment_FR_REAL,001,29,
images/fcloud80-20_D1.9_3.tif,1.9,2,,,,,0,68,68,107,,,,,,,,,,,,,,,,,,,1,None,,1,1.036,,,,,,,,,,,,,,,,,,2019_Mar_28_1542,59.957142671037985,Cloud_Experiment_FR_REAL,001,29,
images/fcloud_D0.9_3.tif,0.9,0,,,,,0,69,69,5,,,,,,,,,,,,,,,,,,,2,None,,3,0.768,,,,,,,,,,,,,,,,,,2019_Mar_28_1542,59.957142671037985,Cloud_Experiment_FR_REAL,001,29,
images/fcloud80-20_D1.2_2.tif,1.2,2,,,,,0,70,70,85,,,,,,,,,,,,,,,,,,,2,space,1.55515499995,3,0.918,,,,,,,,,,,,,,,,,,2019_Mar_28_1542,59.957142671037985,Cloud_Experiment_FR_REAL,001,29,
images/fcloud_D1.2_1.tif,1.2,0,,,,,0,71,71,12,,,,,,,,,,,,,,,,,,,2,None,,5,2.351,,,,,,,,,,,,,,,,,,2019_Mar_28_1542,59.957142671037985,Cloud_Experiment_FR_REAL,001,29,
images/fcloud80-20_D1.5_3.tif,1.5,2,,,,,0,72,72,95,,,,,,,,,,,,,,,,,,,1,space,5.29009000002,4,2.201,,,,,,,,,,,,,,,,,,2019_Mar_28_1542,59.957142671037985,Cloud_Experiment_FR_REAL,001,29,
images/fcloud80-20_D1.2_1.tif,1.2,2,,,,,0,73,73,84,,,,,,,,,,,,,,,,,,,2,None,,4,1.251,,,,,,,,,,,,,,,,,,2019_Mar_28_1542,59.957142671037985,Cloud_Experiment_FR_REAL,001,29,
images/fcloud_D1.7_1.tif,1.7,0,,,,,0,74,74,27,,,,,,,,,,,,,,,,,,,1,None,,2,1.5,,,,,,,,,,,,,,,,,,2019_Mar_28_1542,59.957142671037985,Cloud_Experiment_FR_REAL,001,29,
images/fcloud65-35_D1.8_1.tif,1.8,1,,,,,0,75,75,66,,,,,,,,,,,,,,,,,,,1,space,5.93203070003,4,1.134,,,,,,,,,,,,,,,,,,2019_Mar_28_1542,59.957142671037985,Cloud_Experiment_FR_REAL,001,29,
images/fcloud80-20_D1_1.tif,1.0,2,,,,,0,76,76,78,,,,,,,,,,,,,,,,,,,1,None,,3,1.252,,,,,,,,,,,,,,,,,,2019_Mar_28_1542,59.957142671037985,Cloud_Experiment_FR_REAL,001,29,
images/fcloud65-35_D1.3_1.tif,1.3,1,,,,,0,77,77,51,,,,,,,,,,,,,,,,,,,None,None,,None,10.358,,,,,,,,,,,,,,,,,,2019_Mar_28_1542,59.957142671037985,Cloud_Experiment_FR_REAL,001,29,
images/fcloud80-20_D1.5_2.tif,1.5,2,,,,,0,78,78,94,,,,,,,,,,,,,,,,,,,1,space,5.04739309999,1,0.652,,,,,,,,,,,,,,,,,,2019_Mar_28_1542,59.957142671037985,Cloud_Experiment_FR_REAL,001,29,
images/fcloud80-20_D0.9_1.tif,0.9,2,,,,,0,79,79,75,,,,,,,,,,,,,,,,,,,2,space,3.24021199998,2,1.053,,,,,,,,,,,,,,,,,,2019_Mar_28_1542,59.957142671037985,Cloud_Experiment_FR_REAL,001,29,
images/fcloud_D1.5_2.tif,1.5,0,,,,,0,80,80,22,,,,,,,,,,,,,,,,,,,1,space,7.34967280005,4,1.153,,,,,,,,,,,,,,,,,,2019_Mar_28_1542,59.957142671037985,Cloud_Experiment_FR_REAL,001,29,
images/fcloud65-35_D1.1_1.tif,1.1,1,,,,,0,81,81,45,,,,,,,,,,,,,,,,,,,1,space,7.22329980007,4,1.419,,,,,,,,,,,,,,,,,,2019_Mar_28_1542,59.957142671037985,Cloud_Experiment_FR_REAL,001,29,
images/fcloud80-20_D1.8_2.tif,1.8,2,,,,,0,82,82,103,,,,,,,,,,,,,,,,,,,2,space,3.52402140002,2,2.018,,,,,,,,,,,,,,,,,,2019_Mar_28_1542,59.957142671037985,Cloud_Experiment_FR_REAL,001,29,
images/fcloud65-35_D0.8_1.tif,0.8,1,,,,,0,83,83,36,,,,,,,,,,,,,,,,,,,3,space,6.85829979996,3,1.051,,,,,,,,,,,,,,,,,,2019_Mar_28_1542,59.957142671037985,Cloud_Experiment_FR_REAL,001,29,
images/fcloud80-20_D1.3_2.tif,1.3,2,,,,,0,84,84,88,,,,,,,,,,,,,,,,,,,2,None,,3,1.716,,,,,,,,,,,,,,,,,,2019_Mar_28_1542,59.957142671037985,Cloud_Experiment_FR_REAL,001,29,
images/fcloud65-35_D1.8_3.tif,1.8,1,,,,,0,85,85,68,,,,,,,,,,,,,,,,,,,None,None,,None,11.59,,,,,,,,,,,,,,,,,,2019_Mar_28_1542,59.957142671037985,Cloud_Experiment_FR_REAL,001,29,
images/fcloud80-20_D0.8_3.tif,0.8,2,,,,,0,86,86,74,,,,,,,,,,,,,,,,,,,1,space,2.74544570001,4,0.658,,,,,,,,,,,,,,,,,,2019_Mar_28_1542,59.957142671037985,Cloud_Experiment_FR_REAL,001,29,
images/fcloud65-35_D1.4_1.tif,1.4,1,,,,,0,87,87,54,,,,,,,,,,,,,,,,,,,2,space,5.41572769999,3,2.864,,,,,,,,,,,,,,,,,,2019_Mar_28_1542,59.957142671037985,Cloud_Experiment_FR_REAL,001,29,
images/fcloud_D1.1_1.tif,1.1,0,,,,,0,88,88,9,,,,,,,,,,,,,,,,,,,2,None,,2,1.169,,,,,,,,,,,,,,,,,,2019_Mar_28_1542,59.957142671037985,Cloud_Experiment_FR_REAL,001,29,
images/fcloud65-35_D1.2_2.tif,1.2,1,,,,,0,89,89,49,,,,,,,,,,,,,,,,,,,2,None,,2,2.699,,,,,,,,,,,,,,,,,,2019_Mar_28_1542,59.957142671037985,Cloud_Experiment_FR_REAL,001,29,
images/fcloud80-20_D1.4_1.tif,1.4,2,,,,,0,90,90,90,,,,,,,,,,,,,,,,,,,2,None,,2,2.701,,,,,,,,,,,,,,,,,,2019_Mar_28_1542,59.957142671037985,Cloud_Experiment_FR_REAL,001,29,
images/fcloud_D1.6_2.tif,1.6,0,,,,,0,91,91,25,,,,,,,,,,,,,,,,,,,2,space,5.69724410004,3,1.168,,,,,,,,,,,,,,,,,,2019_Mar_28_1542,59.957142671037985,Cloud_Experiment_FR_REAL,001,29,
images/fcloud65-35_D1.9_3.tif,1.9,1,,,,,0,92,92,71,,,,,,,,,,,,,,,,,,,2,space,4.49851219996,1,0.935,,,,,,,,,,,,,,,,,,2019_Mar_28_1542,59.957142671037985,Cloud_Experiment_FR_REAL,001,29,
images/fcloud65-35_D1.2_3.tif,1.2,1,,,,,0,93,93,50,,,,,,,,,,,,,,,,,,,2,space,15.2861676001,4,6.761,,,,,,,,,,,,,,,,,,2019_Mar_28_1542,59.957142671037985,Cloud_Experiment_FR_REAL,001,29,
images/fcloud80-20_D0.8_1.tif,0.8,2,,,,,0,94,94,72,,,,,,,,,,,,,,,,,,,1,space,0.873377999989,1,0.569,,,,,,,,,,,,,,,,,,2019_Mar_28_1542,59.957142671037985,Cloud_Experiment_FR_REAL,001,29,
images/fcloud_D1.6_1.tif,1.6,0,,,,,0,95,95,24,,,,,,,,,,,,,,,,,,,2,space,7.39891770005,2,3.217,,,,,,,,,,,,,,,,,,2019_Mar_28_1542,59.957142671037985,Cloud_Experiment_FR_REAL,001,29,
images/fcloud80-20_D1.7_2.tif,1.7,2,,,,,0,96,96,100,,,,,,,,,,,,,,,,,,,1,space,5.48220610002,2,0.652,,,,,,,,,,,,,,,,,,2019_Mar_28_1542,59.957142671037985,Cloud_Experiment_FR_REAL,001,29,
images/fcloud80-20_D1.1_3.tif,1.1,2,,,,,0,97,97,83,,,,,,,,,,,,,,,,,,,3,None,,3,1.902,,,,,,,,,,,,,,,,,,2019_Mar_28_1542,59.957142671037985,Cloud_Experiment_FR_REAL,001,29,
images/fcloud65-35_D0.8_3.tif,0.8,1,,,,,0,98,98,38,,,,,,,,,,,,,,,,,,,2,space,7.6453659999,3,2.017,,,,,,,,,,,,,,,,,,2019_Mar_28_1542,59.957142671037985,Cloud_Experiment_FR_REAL,001,29,
images/fcloud80-20_D1.6_2.tif,1.6,2,,,,,0,99,99,97,,,,,,,,,,,,,,,,,,,3,space,8.86974530003,3,1.167,,,,,,,,,,,,,,,,,,2019_Mar_28_1542,59.957142671037985,Cloud_Experiment_FR_REAL,001,29,
images/fcloud80-20_D0.9_3.tif,0.9,2,,,,,0,100,100,77,,,,,,,,,,,,,,,,,,,2,None,,3,1.518,,,,,,,,,,,,,,,,,,2019_Mar_28_1542,59.957142671037985,Cloud_Experiment_FR_REAL,001,29,
images/fcloud80-20_D0.8_2.tif,0.8,2,,,,,0,101,101,73,,,,,,,,,,,,,,,,,,,1,None,,1,0.918,,,,,,,,,,,,,,,,,,2019_Mar_28_1542,59.957142671037985,Cloud_Experiment_FR_REAL,001,29,
images/fcloud_D1.8_2.tif,1.8,0,,,,,0,102,102,31,,,,,,,,,,,,,,,,,,,2,None,,2,1.6,,,,,,,,,,,,,,,,,,2019_Mar_28_1542,59.957142671037985,Cloud_Experiment_FR_REAL,001,29,
images/fcloud65-35_D1.3_3.tif,1.3,1,,,,,0,103,103,53,,,,,,,,,,,,,,,,,,,2,space,4.88667459995,2,1.42,,,,,,,,,,,,,,,,,,2019_Mar_28_1542,59.957142671037985,Cloud_Experiment_FR_REAL,001,29,
images/fcloud80-20_D1.4_3.tif,1.4,2,,,,,0,104,104,92,,,,,,,,,,,,,,,,,,,1,None,,1,0.535,,,,,,,,,,,,,,,,,,2019_Mar_28_1542,59.957142671037985,Cloud_Experiment_FR_REAL,001,29,
images/fcloud65-35_D1.1_2.tif,1.1,1,,,,,0,105,105,46,,,,,,,,,,,,,,,,,,,1,space,6.35410780006,2,0.802,,,,,,,,,,,,,,,,,,2019_Mar_28_1542,59.957142671037985,Cloud_Experiment_FR_REAL,001,29,
images/fcloud65-35_D1.9_1.tif,1.9,1,,,,,0,106,106,69,,,,,,,,,,,,,,,,,,,2,space,4.34676879994,3,1.035,,,,,,,,,,,,,,,,,,2019_Mar_28_1542,59.957142671037985,Cloud_Experiment_FR_REAL,001,29,
images/fcloud80-20_D0.9_2.tif,0.9,2,,,,,0,107,107,76,,,,,,,,,,,,,,,,,,,2,None,,2,1.051,,,,,,,,,,,,,,,,,,2019_Mar_28_1542,59.957142671037985,Cloud_Experiment_FR_REAL,001,29,
,,,,,,,,,,,,,,,,,,,,,,,,,,,,,,,,,,,,,,,,,,,,,,space,2.28211909998,,,,2019_Mar_28_1542,59.957142671037985,Cloud_Experiment_FR_REAL,001,29,
,,,,,,,,,,,,,,,,,,,,,,,,,5,8.655,,,,,,,,,,,,,,,,,,,,,,,,,2019_Mar_28_1542,59.957142671037985,Cloud_Experiment_FR_REAL,001,29,
,,,,,,,,,,,,,,,,,,,,,,,,,,,,,,,,,,4,,,,,,,,,,,,,,,,,2019_Mar_28_1542,59.957142671037985,Cloud_Experiment_FR_REAL,001,29,
,,,,,,,,,,,,,,,,,,,,,,,,,,,,,,,,,,,6,,,,,,,,,,,,,,,,2019_Mar_28_1542,59.957142671037985,Cloud_Experiment_FR_REAL,001,29,
,,,,,,,,,,,,,,,,,,,,,,,,,,,,,,,,,,,,5,,,,,,,,,,,,,,,2019_Mar_28_1542,59.957142671037985,Cloud_Experiment_FR_REAL,001,29,
,,,,,,,,,,,,,,,,,,,,,,,,,,,,,,,,,,,,,2,,,,,,,,,,,,,,2019_Mar_28_1542,59.957142671037985,Cloud_Experiment_FR_REAL,001,29,
,,,,,,,,,,,,,,,,,,,,,,,,,,,,,,,,,,,,,,3,,,,,,,,,,,,,2019_Mar_28_1542,59.957142671037985,Cloud_Experiment_FR_REAL,001,29,
,,,,,,,,,,,,,,,,,,,,,,,,,,,,,,,,,,,,,,,5,,,,,,,,,,,,2019_Mar_28_1542,59.957142671037985,Cloud_Experiment_FR_REAL,001,29,
,,,,,,,,,,,,,,,,,,,,,,,,,,,,,,,,,,,,,,,,7,,,,,,,,,,,2019_Mar_28_1542,59.957142671037985,Cloud_Experiment_FR_REAL,001,29,
,,,,,,,,,,,,,,,,,,,,,,,,,,,,,,,,,,,,,,,,,7,,,,,,,,,,2019_Mar_28_1542,59.957142671037985,Cloud_Experiment_FR_REAL,001,29,
,,,,,,,,,,,,,,,,,,,,,,,,,,,,,,,,,,,,,,,,,,7,,,,,,,,,2019_Mar_28_1542,59.957142671037985,Cloud_Experiment_FR_REAL,001,29,
,,,,,,,,,,,,,,,,,,,,,,,,,,,,,,,,,,,,,,,,,,,6,,,,,,,,2019_Mar_28_1542,59.957142671037985,Cloud_Experiment_FR_REAL,001,29,
,,,,,,,,,,,,,,,,,,,,,,,,,,,,,,,,,,,,,,,,,,,,,,,,space,35.587319,,2019_Mar_28_1542,59.957142671037985,Cloud_Experiment_FR_REAL,001,29,
images/fcloud80-20_D1.1_6.tif,1.1,2,,,,,,,,,0,0,0,83,,,,,,,,,,,,,,,1,space,5.78022029996,2,1.84,,,,,,,,,,,,,,,,,,2019_Mar_28_1542,59.957142671037985,Cloud_Experiment_FR_REAL,001,29,
images/fcloud80-20_D1.3_5.tif,1.3,2,,,,,,,,,0,1,1,88,,,,,,,,,,,,,,,3,space,4.1446607,3,1.288,,,,,,,,,,,,,,,,,,2019_Mar_28_1542,59.957142671037985,Cloud_Experiment_FR_REAL,001,29,
images/fcloud65-35_D1.9_4.tif,1.9,1,,,,,,,,,0,2,2,69,,,,,,,,,,,,,,,None,None,,None,11.66,,,,,,,,,,,,,,,,,,2019_Mar_28_1542,59.957142671037985,Cloud_Experiment_FR_REAL,001,29,
images/fcloud65-35_D1.7_6.tif,1.7,1,,,,,,,,,0,3,3,65,,,,,,,,,,,,,,,4,None,,4,1.201,,,,,,,,,,,,,,,,,,2019_Mar_28_1542,59.957142671037985,Cloud_Experiment_FR_REAL,001,29,
images/fcloud65-35_D0.8_4.tif,0.8,1,,,,,,,,,0,4,4,36,,,,,,,,,,,,,,,1,None,,5,0.869,,,,,,,,,,,,,,,,,,2019_Mar_28_1542,59.957142671037985,Cloud_Experiment_FR_REAL,001,29,
images/fcloud_D1.7_5.tif,1.7,0,,,,,,,,,0,5,5,28,,,,,,,,,,,,,,,1,None,,4,0.785,,,,,,,,,,,,,,,,,,2019_Mar_28_1542,59.957142671037985,Cloud_Experiment_FR_REAL,001,29,
images/fcloud_D1.8_6.tif,1.8,0,,,,,,,,,0,6,6,32,,,,,,,,,,,,,,,1,None,,2,0.786,,,,,,,,,,,,,,,,,,2019_Mar_28_1542,59.957142671037985,Cloud_Experiment_FR_REAL,001,29,
images/fcloud_D1.2_5.tif,1.2,0,,,,,,,,,0,7,7,13,,,,,,,,,,,,,,,3,None,,3,1.018,,,,,,,,,,,,,,,,,,2019_Mar_28_1542,59.957142671037985,Cloud_Experiment_FR_REAL,001,29,
images/fcloud_D1.9_4.tif,1.9,0,,,,,,,,,0,8,8,33,,,,,,,,,,,,,,,2,None,,3,2.202,,,,,,,,,,,,,,,,,,2019_Mar_28_1542,59.957142671037985,Cloud_Experiment_FR_REAL,001,29,
images/fcloud80-20_D1.4_4.tif,1.4,2,,,,,,,,,0,9,9,90,,,,,,,,,,,,,,,2,None,,4,0.818,,,,,,,,,,,,,,,,,,2019_Mar_28_1542,59.957142671037985,Cloud_Experiment_FR_REAL,001,29,
images/fcloud_D0.8_4.tif,0.8,0,,,,,,,,,0,10,10,0,,,,,,,,,,,,,,,1,None,,4,0.918,,,,,,,,,,,,,,,,,,2019_Mar_28_1542,59.957142671037985,Cloud_Experiment_FR_REAL,001,29,
images/fcloud80-20_D0.8_4.tif,0.8,2,,,,,,,,,0,11,11,72,,,,,,,,,,,,,,,1,None,,5,0.637,,,,,,,,,,,,,,,,,,2019_Mar_28_1542,59.957142671037985,Cloud_Experiment_FR_REAL,001,29,
images/fcloud_D1.1_6.tif,1.1,0,,,,,,,,,0,12,12,11,,,,,,,,,,,,,,,3,None,,4,2.05,,,,,,,,,,,,,,,,,,2019_Mar_28_1542,59.957142671037985,Cloud_Experiment_FR_REAL,001,29,
images/fcloud_D1.3_4.tif,1.3,0,,,,,,,,,0,13,13,15,,,,,,,,,,,,,,,2,None,,4,1.367,,,,,,,,,,,,,,,,,,2019_Mar_28_1542,59.957142671037985,Cloud_Experiment_FR_REAL,001,29,
images/fcloud_D1.7_6.tif,1.7,0,,,,,,,,,0,14,14,29,,,,,,,,,,,,,,,1,None,,1,0.552,,,,,,,,,,,,,,,,,,2019_Mar_28_1542,59.957142671037985,Cloud_Experiment_FR_REAL,001,29,
images/fcloud_D1_6.tif,1.0,0,,,,,,,,,0,15,15,8,,,,,,,,,,,,,,,5,space,2.85984229995,4,1.817,,,,,,,,,,,,,,,,,,2019_Mar_28_1542,59.957142671037985,Cloud_Experiment_FR_REAL,001,29,
images/fcloud80-20_D1.4_6.tif,1.4,2,,,,,,,,,0,16,16,92,,,,,,,,,,,,,,,2,None,,3,3.217,,,,,,,,,,,,,,,,,,2019_Mar_28_1542,59.957142671037985,Cloud_Experiment_FR_REAL,001,29,
images/fcloud80-20_D1.7_5.tif,1.7,2,,,,,,,,,0,17,17,100,,,,,,,,,,,,,,,2,None,,3,2.018,,,,,,,,,,,,,,,,,,2019_Mar_28_1542,59.957142671037985,Cloud_Experiment_FR_REAL,001,29,
images/fcloud80-20_D1_4.tif,1.0,2,,,,,,,,,0,18,18,78,,,,,,,,,,,,,,,1,None,,4,1.019,,,,,,,,,,,,,,,,,,2019_Mar_28_1542,59.957142671037985,Cloud_Experiment_FR_REAL,001,29,
images/fcloud65-35_D1.9_5.tif,1.9,1,,,,,,,,,0,19,19,70,,,,,,,,,,,,,,,None,None,,None,10.708,,,,,,,,,,,,,,,,,,2019_Mar_28_1542,59.957142671037985,Cloud_Experiment_FR_REAL,001,29,
images/fcloud65-35_D1.1_4.tif,1.1,1,,,,,,,,,0,20,20,45,,,,,,,,,,,,,,,2,None,,1,1.067,,,,,,,,,,,,,,,,,,2019_Mar_28_1542,59.957142671037985,Cloud_Experiment_FR_REAL,001,29,
images/fcloud65-35_D1.3_6.tif,1.3,1,,,,,,,,,0,21,21,53,,,,,,,,,,,,,,,2,None,,1,1.251,,,,,,,,,,,,,,,,,,2019_Mar_28_1542,59.957142671037985,Cloud_Experiment_FR_REAL,001,29,
images/fcloud_D0.8_6.tif,0.8,0,,,,,,,,,0,22,22,2,,,,,,,,,,,,,,,2,None,,3,1.619,,,,,,,,,,,,,,,,,,2019_Mar_28_1542,59.957142671037985,Cloud_Experiment_FR_REAL,001,29,
images/fcloud_D1.5_6.tif,1.5,0,,,,,,,,,0,23,23,23,,,,,,,,,,,,,,,3,space,6.83630169998,3,1.55,,,,,,,,,,,,,,,,,,2019_Mar_28_1542,59.957142671037985,Cloud_Experiment_FR_REAL,001,29,
images/fcloud65-35_D0.9_4.tif,0.9,1,,,,,,,,,0,24,24,39,,,,,,,,,,,,,,,1,None,,3,1.485,,,,,,,,,,,,,,,,,,2019_Mar_28_1542,59.957142671037985,Cloud_Experiment_FR_REAL,001,29,
images/fcloud65-35_D1.3_5.tif,1.3,1,,,,,,,,,0,25,25,52,,,,,,,,,,,,,,,3,None,,3,1.719,,,,,,,,,,,,,,,,,,2019_Mar_28_1542,59.957142671037985,Cloud_Experiment_FR_REAL,001,29,
images/fcloud80-20_D1.1_5.tif,1.1,2,,,,,,,,,0,26,26,82,,,,,,,,,,,,,,,2,None,,3,1.667,,,,,,,,,,,,,,,,,,2019_Mar_28_1542,59.957142671037985,Cloud_Experiment_FR_REAL,001,29,
images/fcloud80-20_D1.8_5.tif,1.8,2,,,,,,,,,0,27,27,103,,,,,,,,,,,,,,,2,None,,1,0.552,,,,,,,,,,,,,,,,,,2019_Mar_28_1542,59.957142671037985,Cloud_Experiment_FR_REAL,001,29,
images/fcloud80-20_D1.2_4.tif,1.2,2,,,,,,,,,0,28,28,84,,,,,,,,,,,,,,,1,None,,5,0.819,,,,,,,,,,,,,,,,,,2019_Mar_28_1542,59.957142671037985,Cloud_Experiment_FR_REAL,001,29,
images/fcloud80-20_D1.5_4.tif,1.5,2,,,,,,,,,0,29,29,93,,,,,,,,,,,,,,,1,None,,1,0.585,,,,,,,,,,,,,,,,,,2019_Mar_28_1542,59.957142671037985,Cloud_Experiment_FR_REAL,001,29,
images/fcloud65-35_D1.6_4.tif,1.6,1,,,,,,,,,0,30,30,60,,,,,,,,,,,,,,,4,None,,3,1.751,,,,,,,,,,,,,,,,,,2019_Mar_28_1542,59.957142671037985,Cloud_Experiment_FR_REAL,001,29,
images/fcloud_D0.9_6.tif,0.9,0,,,,,,,,,0,31,31,5,,,,,,,,,,,,,,,1,None,,4,0.903,,,,,,,,,,,,,,,,,,2019_Mar_28_1542,59.957142671037985,Cloud_Experiment_FR_REAL,001,29,
images/fcloud65-35_D1.4_4.tif,1.4,1,,,,,,,,,0,32,32,54,,,,,,,,,,,,,,,1,None,,3,1.302,,,,,,,,,,,,,,,,,,2019_Mar_28_1542,59.957142671037985,Cloud_Experiment_FR_REAL,001,29,
images/fcloud65-35_D1.5_6.tif,1.5,1,,,,,,,,,0,33,33,59,,,,,,,,,,,,,,,1,None,,4,1.95,,,,,,,,,,,,,,,,,,2019_Mar_28_1542,59.957142671037985,Cloud_Experiment_FR_REAL,001,29,
images/fcloud80-20_D1_5.tif,1.0,2,,,,,,,,,0,34,34,79,,,,,,,,,,,,,,,None,None,,None,12.489,,,,,,,,,,,,,,,,,,2019_Mar_28_1542,59.957142671037985,Cloud_Experiment_FR_REAL,001,29,
images/fcloud65-35_D1.7_4.tif,1.7,1,,,,,,,,,0,35,35,63,,,,,,,,,,,,,,,1,None,,5,0.969,,,,,,,,,,,,,,,,,,2019_Mar_28_1542,59.957142671037985,Cloud_Experiment_FR_REAL,001,29,
images/fcloud80-20_D1.7_4.tif,1.7,2,,,,,,,,,0,36,36,99,,,,,,,,,,,,,,,2,None,,3,1.251,,,,,,,,,,,,,,,,,,2019_Mar_28_1542,59.957142671037985,Cloud_Experiment_FR_REAL,001,29,
images/fcloud65-35_D1.9_6.tif,1.9,1,,,,,,,,,0,37,37,71,,,,,,,,,,,,,,,1,None,,2,1.001,,,,,,,,,,,,,,,,,,2019_Mar_28_1542,59.957142671037985,Cloud_Experiment_FR_REAL,001,29,
images/fcloud_D0.8_5.tif,0.8,0,,,,,,,,,0,38,38,1,,,,,,,,,,,,,,,3,None,,4,6.045,,,,,,,,,,,,,,,,,,2019_Mar_28_1542,59.957142671037985,Cloud_Experiment_FR_REAL,001,29,
images/fcloud80-20_D1.9_5.tif,1.9,2,,,,,,,,,0,39,39,106,,,,,,,,,,,,,,,1,None,,1,1.516,,,,,,,,,,,,,,,,,,2019_Mar_28_1542,59.957142671037985,Cloud_Experiment_FR_REAL,001,29,
images/fcloud_D0.9_4.tif,0.9,0,,,,,,,,,0,40,40,3,,,,,,,,,,,,,,,None,None,,None,10.477,,,,,,,,,,,,,,,,,,2019_Mar_28_1542,59.957142671037985,Cloud_Experiment_FR_REAL,001,29,
images/fcloud80-20_D0.9_5.tif,0.9,2,,,,,,,,,0,41,41,76,,,,,,,,,,,,,,,2,None,,2,0.883,,,,,,,,,,,,,,,,,,2019_Mar_28_1542,59.957142671037985,Cloud_Experiment_FR_REAL,001,29,
images/fcloud65-35_D1.8_4.tif,1.8,1,,,,,,,,,0,42,42,66,,,,,,,,,,,,,,,2,None,,3,1.067,,,,,,,,,,,,,,,,,,2019_Mar_28_1542,59.957142671037985,Cloud_Experiment_FR_REAL,001,29,
images/fcloud65-35_D0.9_5.tif,0.9,1,,,,,,,,,0,43,43,40,,,,,,,,,,,,,,,1,space,4.63810049999,3,1.551,,,,,,,,,,,,,,,,,,2019_Mar_28_1542,59.957142671037985,Cloud_Experiment_FR_REAL,001,29,
images/fcloud65-35_D0.8_5.tif,0.8,1,,,,,,,,,0,44,44,37,,,,,,,,,,,,,,,None,None,,None,12.139,,,,,,,,,,,,,,,,,,2019_Mar_28_1542,59.957142671037985,Cloud_Experiment_FR_REAL,001,29,
images/fcloud_D1.3_6.tif,1.3,0,,,,,,,,,0,45,45,17,,,,,,,,,,,,,,,2,None,,1,1.168,,,,,,,,,,,,,,,,,,2019_Mar_28_1542,59.957142671037985,Cloud_Experiment_FR_REAL,001,29,
images/fcloud_D1.6_5.tif,1.6,0,,,,,,,,,0,46,46,25,,,,,,,,,,,,,,,2,None,,3,1.217,,,,,,,,,,,,,,,,,,2019_Mar_28_1542,59.957142671037985,Cloud_Experiment_FR_REAL,001,29,
images/fcloud_D0.9_5.tif,0.9,0,,,,,,,,,0,47,47,4,,,,,,,,,,,,,,,3,None,,3,0.969,,,,,,,,,,,,,,,,,,2019_Mar_28_1542,59.957142671037985,Cloud_Experiment_FR_REAL,001,29,
images/fcloud65-35_D1.2_4.tif,1.2,1,,,,,,,,,0,48,48,48,,,,,,,,,,,,,,,2,space,2.49467849999,3,2.467,,,,,,,,,,,,,,,,,,2019_Mar_28_1542,59.957142671037985,Cloud_Experiment_FR_REAL,001,29,
images/fcloud80-20_D1.8_4.tif,1.8,2,,,,,,,,,0,49,49,102,,,,,,,,,,,,,,,None,None,,None,11.526,,,,,,,,,,,,,,,,,,2019_Mar_28_1542,59.957142671037985,Cloud_Experiment_FR_REAL,001,29,
images/fcloud_D1.8_5.tif,1.8,0,,,,,,,,,0,50,50,31,,,,,,,,,,,,,,,2,None,,3,2.783,,,,,,,,,,,,,,,,,,2019_Mar_28_1542,59.957142671037985,Cloud_Experiment_FR_REAL,001,29,
images/fcloud80-20_D1.3_6.tif,1.3,2,,,,,,,,,0,51,51,89,,,,,,,,,,,,,,,2,space,5.02910769999,2,1.251,,,,,,,,,,,,,,,,,,2019_Mar_28_1542,59.957142671037985,Cloud_Experiment_FR_REAL,001,29,
images/fcloud65-35_D0.9_6.tif,0.9,1,,,,,,,,,0,52,52,41,,,,,,,,,,,,,,,2,None,,4,0.852,,,,,,,,,,,,,,,,,,2019_Mar_28_1542,59.957142671037985,Cloud_Experiment_FR_REAL,001,29,
images/fcloud80-20_D1.1_4.tif,1.1,2,,,,,,,,,0,53,53,81,,,,,,,,,,,,,,,2,None,,4,1.901,,,,,,,,,,,,,,,,,,2019_Mar_28_1542,59.957142671037985,Cloud_Experiment_FR_REAL,001,29,
images/fcloud65-35_D1_4.tif,1.0,1,,,,,,,,,0,54,54,42,,,,,,,,,,,,,,,2,None,,4,1.068,,,,,,,,,,,,,,,,,,2019_Mar_28_1542,59.957142671037985,Cloud_Experiment_FR_REAL,001,29,
images/fcloud80-20_D1.8_6.tif,1.8,2,,,,,,,,,0,55,55,104,,,,,,,,,,,,,,,2,None,,1,1.136,,,,,,,,,,,,,,,,,,2019_Mar_28_1542,59.957142671037985,Cloud_Experiment_FR_REAL,001,29,
images/fcloud80-20_D1.9_6.tif,1.9,2,,,,,,,,,0,56,56,107,,,,,,,,,,,,,,,None,None,,None,11.008,,,,,,,,,,,,,,,,,,2019_Mar_28_1542,59.957142671037985,Cloud_Experiment_FR_REAL,001,29,
images/fcloud80-20_D0.8_6.tif,0.8,2,,,,,,,,,0,57,57,74,,,,,,,,,,,,,,,1,None,,1,0.783,,,,,,,,,,,,,,,,,,2019_Mar_28_1542,59.957142671037985,Cloud_Experiment_FR_REAL,001,29,
images/fcloud_D1.5_4.tif,1.5,0,,,,,,,,,0,58,58,21,,,,,,,,,,,,,,,3,None,,5,6.346,,,,,,,,,,,,,,,,,,2019_Mar_28_1542,59.957142671037985,Cloud_Experiment_FR_REAL,001,29,
images/fcloud65-35_D1.5_4.tif,1.5,1,,,,,,,,,0,59,59,57,,,,,,,,,,,,,,,3,None,,3,0.718,,,,,,,,,,,,,,,,,,2019_Mar_28_1542,59.957142671037985,Cloud_Experiment_FR_REAL,001,29,
images/fcloud65-35_D1_6.tif,1.0,1,,,,,,,,,0,60,60,44,,,,,,,,,,,,,,,1,None,,4,1.435,,,,,,,,,,,,,,,,,,2019_Mar_28_1542,59.957142671037985,Cloud_Experiment_FR_REAL,001,29,
images/fcloud65-35_D1.1_6.tif,1.1,1,,,,,,,,,0,61,61,47,,,,,,,,,,,,,,,2,None,,3,1.133,,,,,,,,,,,,,,,,,,2019_Mar_28_1542,59.957142671037985,Cloud_Experiment_FR_REAL,001,29,
images/fcloud65-35_D1.8_5.tif,1.8,1,,,,,,,,,0,62,62,67,,,,,,,,,,,,,,,2,None,,1,1.669,,,,,,,,,,,,,,,,,,2019_Mar_28_1542,59.957142671037985,Cloud_Experiment_FR_REAL,001,29,
images/fcloud65-35_D1.4_5.tif,1.4,1,,,,,,,,,0,63,63,55,,,,,,,,,,,,,,,1,None,,2,0.651,,,,,,,,,,,,,,,,,,2019_Mar_28_1542,59.957142671037985,Cloud_Experiment_FR_REAL,001,29,
images/fcloud65-35_D1.2_6.tif,1.2,1,,,,,,,,,0,64,64,50,,,,,,,,,,,,,,,2,None,,3,0.57,,,,,,,,,,,,,,,,,,2019_Mar_28_1542,59.957142671037985,Cloud_Experiment_FR_REAL,001,29,
images/fcloud80-20_D1.6_5.tif,1.6,2,,,,,,,,,0,65,65,97,,,,,,,,,,,,,,,1,None,,2,1.018,,,,,,,,,,,,,,,,,,2019_Mar_28_1542,59.957142671037985,Cloud_Experiment_FR_REAL,001,29,
images/fcloud80-20_D1.9_4.tif,1.9,2,,,,,,,,,0,66,66,105,,,,,,,,,,,,,,,None,None,,None,10.342,,,,,,,,,,,,,,,,,,2019_Mar_28_1542,59.957142671037985,Cloud_Experiment_FR_REAL,001,29,
images/fcloud65-35_D1.7_5.tif,1.7,1,,,,,,,,,0,67,67,64,,,,,,,,,,,,,,,4,None,,4,1.919,,,,,,,,,,,,,,,,,,2019_Mar_28_1542,59.957142671037985,Cloud_Experiment_FR_REAL,001,29,
images/fcloud80-20_D1_6.tif,1.0,2,,,,,,,,,0,68,68,80,,,,,,,,,,,,,,,2,None,,1,0.634,,,,,,,,,,,,,,,,,,2019_Mar_28_1542,59.957142671037985,Cloud_Experiment_FR_REAL,001,29,
images/fcloud80-20_D1.6_4.tif,1.6,2,,,,,,,,,0,69,69,96,,,,,,,,,,,,,,,3,None,,2,1.235,,,,,,,,,,,,,,,,,,2019_Mar_28_1542,59.957142671037985,Cloud_Experiment_FR_REAL,001,29,
images/fcloud_D1.5_5.tif,1.5,0,,,,,,,,,0,70,70,22,,,,,,,,,,,,,,,5,None,,4,0.718,,,,,,,,,,,,,,,,,,2019_Mar_28_1542,59.957142671037985,Cloud_Experiment_FR_REAL,001,29,
images/fcloud80-20_D0.8_5.tif,0.8,2,,,,,,,,,0,71,71,73,,,,,,,,,,,,,,,1,None,,2,1.918,,,,,,,,,,,,,,,,,,2019_Mar_28_1542,59.957142671037985,Cloud_Experiment_FR_REAL,001,29,
images/fcloud80-20_D1.3_4.tif,1.3,2,,,,,,,,,0,72,72,87,,,,,,,,,,,,,,,4,None,,2,1.284,,,,,,,,,,,,,,,,,,2019_Mar_28_1542,59.957142671037985,Cloud_Experiment_FR_REAL,001,29,
images/fcloud_D1.4_4.tif,1.4,0,,,,,,,,,0,73,73,18,,,,,,,,,,,,,,,4,None,,3,2.251,,,,,,,,,,,,,,,,,,2019_Mar_28_1542,59.957142671037985,Cloud_Experiment_FR_REAL,001,29,
images/fcloud80-20_D1.7_6.tif,1.7,2,,,,,,,,,0,74,74,101,,,,,,,,,,,,,,,1,None,,1,0.501,,,,,,,,,,,,,,,,,,2019_Mar_28_1542,59.957142671037985,Cloud_Experiment_FR_REAL,001,29,
images/fcloud65-35_D1.4_6.tif,1.4,1,,,,,,,,,0,75,75,56,,,,,,,,,,,,,,,4,None,,3,1.234,,,,,,,,,,,,,,,,,,2019_Mar_28_1542,59.957142671037985,Cloud_Experiment_FR_REAL,001,29,
images/fcloud_D1.1_4.tif,1.1,0,,,,,,,,,0,76,76,9,,,,,,,,,,,,,,,3,None,,4,1.934,,,,,,,,,,,,,,,,,,2019_Mar_28_1542,59.957142671037985,Cloud_Experiment_FR_REAL,001,29,
images/fcloud_D1.4_6.tif,1.4,0,,,,,,,,,0,77,77,20,,,,,,,,,,,,,,,4,None,,3,1.517,,,,,,,,,,,,,,,,,,2019_Mar_28_1542,59.957142671037985,Cloud_Experiment_FR_REAL,001,29,
images/fcloud80-20_D1.2_5.tif,1.2,2,,,,,,,,,0,78,78,85,,,,,,,,,,,,,,,3,None,,1,1.667,,,,,,,,,,,,,,,,,,2019_Mar_28_1542,59.957142671037985,Cloud_Experiment_FR_REAL,001,29,
images/fcloud65-35_D1.3_4.tif,1.3,1,,,,,,,,,0,79,79,51,,,,,,,,,,,,,,,1,None,,3,1.752,,,,,,,,,,,,,,,,,,2019_Mar_28_1542,59.957142671037985,Cloud_Experiment_FR_REAL,001,29,
images/fcloud_D1.8_4.tif,1.8,0,,,,,,,,,0,80,80,30,,,,,,,,,,,,,,,1,space,5.07370549999,4,1.7,,,,,,,,,,,,,,,,,,2019_Mar_28_1542,59.957142671037985,Cloud_Experiment_FR_REAL,001,29,
images/fcloud65-35_D1.2_5.tif,1.2,1,,,,,,,,,0,81,81,49,,,,,,,,,,,,,,,4,None,,2,0.985,,,,,,,,,,,,,,,,,,2019_Mar_28_1542,59.957142671037985,Cloud_Experiment_FR_REAL,001,29,
images/fcloud_D1_4.tif,1.0,0,,,,,,,,,0,82,82,6,,,,,,,,,,,,,,,3,None,,5,0.934,,,,,,,,,,,,,,,,,,2019_Mar_28_1542,59.957142671037985,Cloud_Experiment_FR_REAL,001,29,
images/fcloud80-20_D0.9_6.tif,0.9,2,,,,,,,,,0,83,83,77,,,,,,,,,,,,,,,2,None,,2,1.406,,,,,,,,,,,,,,,,,,2019_Mar_28_1542,59.957142671037985,Cloud_Experiment_FR_REAL,001,29,
images/fcloud_D1.2_6.tif,1.2,0,,,,,,,,,0,84,84,14,,,,,,,,,,,,,,,4,None,,4,1.552,,,,,,,,,,,,,,,,,,2019_Mar_28_1542,59.957142671037985,Cloud_Experiment_FR_REAL,001,29,
images/fcloud_D1.6_6.tif,1.6,0,,,,,,,,,0,85,85,26,,,,,,,,,,,,,,,3,None,,2,0.519,,,,,,,,,,,,,,,,,,2019_Mar_28_1542,59.957142671037985,Cloud_Experiment_FR_REAL,001,29,
images/fcloud_D1.7_4.tif,1.7,0,,,,,,,,,0,86,86,27,,,,,,,,,,,,,,,3,None,,2,5.398,,,,,,,,,,,,,,,,,,2019_Mar_28_1542,59.957142671037985,Cloud_Experiment_FR_REAL,001,29,
images/fcloud_D1.6_4.tif,1.6,0,,,,,,,,,0,87,87,24,,,,,,,,,,,,,,,2,None,,1,1.538,,,,,,,,,,,,,,,,,,2019_Mar_28_1542,59.957142671037985,Cloud_Experiment_FR_REAL,001,29,
images/fcloud80-20_D1.2_6.tif,1.2,2,,,,,,,,,0,88,88,86,,,,,,,,,,,,,,,1,None,,3,0.451,,,,,,,,,,,,,,,,,,2019_Mar_28_1542,59.957142671037985,Cloud_Experiment_FR_REAL,001,29,
images/fcloud65-35_D1.6_5.tif,1.6,1,,,,,,,,,0,89,89,61,,,,,,,,,,,,,,,4,None,,3,1.284,,,,,,,,,,,,,,,,,,2019_Mar_28_1542,59.957142671037985,Cloud_Experiment_FR_REAL,001,29,
images/fcloud65-35_D1.1_5.tif,1.1,1,,,,,,,,,0,90,90,46,,,,,,,,,,,,,,,2,None,,1,0.868,,,,,,,,,,,,,,,,,,2019_Mar_28_1542,59.957142671037985,Cloud_Experiment_FR_REAL,001,29,
images/fcloud_D1.3_5.tif,1.3,0,,,,,,,,,0,91,91,16,,,,,,,,,,,,,,,5,space,2.10918259993,4,1.484,,,,,,,,,,,,,,,,,,2019_Mar_28_1542,59.957142671037985,Cloud_Experiment_FR_REAL,001,29,
images/fcloud_D1.9_6.tif,1.9,0,,,,,,,,,0,92,92,35,,,,,,,,,,,,,,,2,None,,1,0.504,,,,,,,,,,,,,,,,,,2019_Mar_28_1542,59.957142671037985,Cloud_Experiment_FR_REAL,001,29,
images/fcloud_D1.2_4.tif,1.2,0,,,,,,,,,0,93,93,12,,,,,,,,,,,,,,,5,None,,4,1.05,,,,,,,,,,,,,,,,,,2019_Mar_28_1542,59.957142671037985,Cloud_Experiment_FR_REAL,001,29,
images/fcloud65-35_D0.8_6.tif,0.8,1,,,,,,,,,0,94,94,38,,,,,,,,,,,,,,,1,None,,1,2.665,,,,,,,,,,,,,,,,,,2019_Mar_28_1542,59.957142671037985,Cloud_Experiment_FR_REAL,001,29,
images/fcloud80-20_D1.6_6.tif,1.6,2,,,,,,,,,0,95,95,98,,,,,,,,,,,,,,,None,None,,None,13.656,,,,,,,,,,,,,,,,,,2019_Mar_28_1542,59.957142671037985,Cloud_Experiment_FR_REAL,001,29,
images/fcloud80-20_D1.5_5.tif,1.5,2,,,,,,,,,0,96,96,94,,,,,,,,,,,,,,,None,None,,None,23.379,,,,,,,,,,,,,,,,,,2019_Mar_28_1542,59.957142671037985,Cloud_Experiment_FR_REAL,001,29,
images/fcloud80-20_D1.4_5.tif,1.4,2,,,,,,,,,0,97,97,91,,,,,,,,,,,,,,,2,space,1.66580810002,1,0.803,,,,,,,,,,,,,,,,,,2019_Mar_28_1542,59.957142671037985,Cloud_Experiment_FR_REAL,001,29,
images/fcloud65-35_D1.8_6.tif,1.8,1,,,,,,,,,0,98,98,68,,,,,,,,,,,,,,,5,None,,2,0.936,,,,,,,,,,,,,,,,,,2019_Mar_28_1542,59.957142671037985,Cloud_Experiment_FR_REAL,001,29,
images/fcloud_D1.4_5.tif,1.4,0,,,,,,,,,0,99,99,19,,,,,,,,,,,,,,,5,None,,3,1.417,,,,,,,,,,,,,,,,,,2019_Mar_28_1542,59.957142671037985,Cloud_Experiment_FR_REAL,001,29,
images/fcloud65-35_D1_5.tif,1.0,1,,,,,,,,,0,100,100,43,,,,,,,,,,,,,,,1,None,,1,0.517,,,,,,,,,,,,,,,,,,2019_Mar_28_1542,59.957142671037985,Cloud_Experiment_FR_REAL,001,29,
images/fcloud80-20_D1.5_6.tif,1.5,2,,,,,,,,,0,101,101,95,,,,,,,,,,,,,,,1,space,3.59251790005,5,2.767,,,,,,,,,,,,,,,,,,2019_Mar_28_1542,59.957142671037985,Cloud_Experiment_FR_REAL,001,29,
images/fcloud65-35_D1.6_6.tif,1.6,1,,,,,,,,,0,102,102,62,,,,,,,,,,,,,,,5,None,,2,0.951,,,,,,,,,,,,,,,,,,2019_Mar_28_1542,59.957142671037985,Cloud_Experiment_FR_REAL,001,29,
images/fcloud_D1_5.tif,1.0,0,,,,,,,,,0,103,103,7,,,,,,,,,,,,,,,3,None,,3,1.019,,,,,,,,,,,,,,,,,,2019_Mar_28_1542,59.957142671037985,Cloud_Experiment_FR_REAL,001,29,
images/fcloud_D1.9_5.tif,1.9,0,,,,,,,,,0,104,104,34,,,,,,,,,,,,,,,2,None,,1,0.651,,,,,,,,,,,,,,,,,,2019_Mar_28_1542,59.957142671037985,Cloud_Experiment_FR_REAL,001,29,
images/fcloud80-20_D0.9_4.tif,0.9,2,,,,,,,,,0,105,105,75,,,,,,,,,,,,,,,2,space,3.58729729999,1,0.651,,,,,,,,,,,,,,,,,,2019_Mar_28_1542,59.957142671037985,Cloud_Experiment_FR_REAL,001,29,
images/fcloud65-35_D1.5_5.tif,1.5,1,,,,,,,,,0,106,106,58,,,,,,,,,,,,,,,2,space,4.43262960005,1,0.503,,,,,,,,,,,,,,,,,,2019_Mar_28_1542,59.957142671037985,Cloud_Experiment_FR_REAL,001,29,
images/fcloud_D1.1_5.tif,1.1,0,,,,,,,,,0,107,107,10,,,,,,,,,,,,,,,2,None,,3,0.968,,,,,,,,,,,,,,,,,,2019_Mar_28_1542,59.957142671037985,Cloud_Experiment_FR_REAL,001,29,
,,,,,,,,,,,,,,,,,,,,,,,,,,,,,,,,,,,,,,,,,,,,,,space,2.94891549996,,,,2019_Mar_28_1542,59.957142671037985,Cloud_Experiment_FR_REAL,001,29,
,,,,,,,,,,,,,,,,,,,,,,,,,6,13.1,,,,,,,,,,,,,,,,,,,,,,,,,2019_Mar_28_1542,59.957142671037985,Cloud_Experiment_FR_REAL,001,29,
,,,,,,,,,,,,,,,,,,,,,,,,,,,,,,,,,,3,,,,,,,,,,,,,,,,,2019_Mar_28_1542,59.957142671037985,Cloud_Experiment_FR_REAL,001,29,
,,,,,,,,,,,,,,,,,,,,,,,,,,,,,,,,,,,5,,,,,,,,,,,,,,,,2019_Mar_28_1542,59.957142671037985,Cloud_Experiment_FR_REAL,001,29,
,,,,,,,,,,,,,,,,,,,,,,,,,,,,,,,,,,,,6,,,,,,,,,,,,,,,2019_Mar_28_1542,59.957142671037985,Cloud_Experiment_FR_REAL,001,29,
,,,,,,,,,,,,,,,,,,,,,,,,,,,,,,,,,,,,,4,,,,,,,,,,,,,,2019_Mar_28_1542,59.957142671037985,Cloud_Experiment_FR_REAL,001,29,
,,,,,,,,,,,,,,,,,,,,,,,,,,,,,,,,,,,,,,2,,,,,,,,,,,,,2019_Mar_28_1542,59.957142671037985,Cloud_Experiment_FR_REAL,001,29,
,,,,,,,,,,,,,,,,,,,,,,,,,,,,,,,,,,,,,,,6,,,,,,,,,,,,2019_Mar_28_1542,59.957142671037985,Cloud_Experiment_FR_REAL,001,29,
,,,,,,,,,,,,,,,,,,,,,,,,,,,,,,,,,,,,,,,,7,,,,,,,,,,,2019_Mar_28_1542,59.957142671037985,Cloud_Experiment_FR_REAL,001,29,
,,,,,,,,,,,,,,,,,,,,,,,,,,,,,,,,,,,,,,,,,7,,,,,,,,,,2019_Mar_28_1542,59.957142671037985,Cloud_Experiment_FR_REAL,001,29,
,,,,,,,,,,,,,,,,,,,,,,,,,,,,,,,,,,,,,,,,,,7,,,,,,,,,2019_Mar_28_1542,59.957142671037985,Cloud_Experiment_FR_REAL,001,29,
,,,,,,,,,,,,,,,,,,,,,,,,,,,,,,,,,,,,,,,,,,,5,,,,,,,,2019_Mar_28_1542,59.957142671037985,Cloud_Experiment_FR_REAL,001,29,
,,,,,,,,,,,,,,,,,,,,,,,,,,,,,,,,,,,,,,,,,,,,,,,,space,161.7598352,,2019_Mar_28_1542,59.957142671037985,Cloud_Experiment_FR_REAL,001,29,
images/fcloud65-35_D1.7_8.tif,1.7,1,,,,,,,,,,,,,0,0,0,85,,,,,,,,,,,4,None,,2,2.417,,,,,,,,,,,,,,,,,,2019_Mar_28_1542,59.957142671037985,Cloud_Experiment_FR_REAL,001,29,
images/fcloud80-20_D1.4_10.tif,1.4,2,,,,,,,,,,,,,0,1,1,123,,,,,,,,,,,1,None,,4,0.969,,,,,,,,,,,,,,,,,,2019_Mar_28_1542,59.957142671037985,Cloud_Experiment_FR_REAL,001,29,
images/fcloud80-20_D1.6_8.tif,1.6,2,,,,,,,,,,,,,0,2,2,129,,,,,,,,,,,None,None,,None,10.86,,,,,,,,,,,,,,,,,,2019_Mar_28_1542,59.957142671037985,Cloud_Experiment_FR_REAL,001,29,
images/fcloud80-20_D0.8_8.tif,0.8,2,,,,,,,,,,,,,0,3,3,97,,,,,,,,,,,None,None,,None,22.782,,,,,,,,,,,,,,,,,,2019_Mar_28_1542,59.957142671037985,Cloud_Experiment_FR_REAL,001,29,
images/fcloud_D1.3_7.tif,1.3,0,,,,,,,,,,,,,0,4,4,20,,,,,,,,,,,3,None,,4,1.05,,,,,,,,,,,,,,,,,,2019_Mar_28_1542,59.957142671037985,Cloud_Experiment_FR_REAL,001,29,
images/fcloud80-20_D1_9.tif,1.0,2,,,,,,,,,,,,,0,5,5,106,,,,,,,,,,,1,None,,2,0.868,,,,,,,,,,,,,,,,,,2019_Mar_28_1542,59.957142671037985,Cloud_Experiment_FR_REAL,001,29,
images/fcloud80-20_D0.9_8.tif,0.9,2,,,,,,,,,,,,,0,6,6,101,,,,,,,,,,,2,None,,3,0.923,,,,,,,,,,,,,,,,,,2019_Mar_28_1542,59.957142671037985,Cloud_Experiment_FR_REAL,001,29,
images/fcloud65-35_D1.7_9.tif,1.7,1,,,,,,,,,,,,,0,7,7,86,,,,,,,,,,,2,None,,3,0.551,,,,,,,,,,,,,,,,,,2019_Mar_28_1542,59.957142671037985,Cloud_Experiment_FR_REAL,001,29,
images/fcloud_D1.5_10.tif,1.5,0,,,,,,,,,,,,,0,8,8,31,,,,,,,,,,,4,None,,3,1.136,,,,,,,,,,,,,,,,,,2019_Mar_28_1542,59.957142671037985,Cloud_Experiment_FR_REAL,001,29,
images/fcloud_D1_9.tif,1.0,0,,,,,,,,,,,,,0,9,9,10,,,,,,,,,,,1,None,,4,1.65,,,,,,,,,,,,,,,,,,2019_Mar_28_1542,59.957142671037985,Cloud_Experiment_FR_REAL,001,29,
images/fcloud65-35_D1.1_10.tif,1.1,1,,,,,,,,,,,,,0,10,10,63,,,,,,,,,,,None,None,,None,10.858,,,,,,,,,,,,,,,,,,2019_Mar_28_1542,59.957142671037985,Cloud_Experiment_FR_REAL,001,29,
images/fcloud_D0.8_9.tif,0.8,0,,,,,,,,,,,,,0,11,11,2,,,,,,,,,,,2,None,,4,0.967,,,,,,,,,,,,,,,,,,2019_Mar_28_1542,59.957142671037985,Cloud_Experiment_FR_REAL,001,29,
images/fcloud80-20_D1.9_7.tif,1.9,2,,,,,,,,,,,,,0,12,12,140,,,,,,,,,,,None,None,,None,10.125,,,,,,,,,,,,,,,,,,2019_Mar_28_1542,59.957142671037985,Cloud_Experiment_FR_REAL,001,29,
images/fcloud80-20_D1.8_10.tif,1.8,2,,,,,,,,,,,,,0,13,13,139,,,,,,,,,,,1,None,,1,1.168,,,,,,,,,,,,,,,,,,2019_Mar_28_1542,59.957142671037985,Cloud_Experiment_FR_REAL,001,29,
images/fcloud65-35_D1.6_7.tif,1.6,1,,,,,,,,,,,,,0,14,14,80,,,,,,,,,,,3,None,,1,0.602,,,,,,,,,,,,,,,,,,2019_Mar_28_1542,59.957142671037985,Cloud_Experiment_FR_REAL,001,29,
images/fcloud65-35_D1.2_9.tif,1.2,1,,,,,,,,,,,,,0,15,15,66,,,,,,,,,,,1,space,6.41947740002,2,0.436,,,,,,,,,,,,,,,,,,2019_Mar_28_1542,59.957142671037985,Cloud_Experiment_FR_REAL,001,29,
images/fcloud_D1.4_7.tif,1.4,0,,,,,,,,,,,,,0,16,16,24,,,,,,,,,,,5,None,,5,0.487,,,,,,,,,,,,,,,,,,2019_Mar_28_1542,59.957142671037985,Cloud_Experiment_FR_REAL,001,29,
images/fcloud80-20_D1.5_9.tif,1.5,2,,,,,,,,,,,,,0,17,17,126,,,,,,,,,,,3,None,,2,0.585,,,,,,,,,,,,,,,,,,2019_Mar_28_1542,59.957142671037985,Cloud_Experiment_FR_REAL,001,29,
images/fcloud80-20_D1.7_10.tif,1.7,2,,,,,,,,,,,,,0,18,18,135,,,,,,,,,,,2,None,,1,0.934,,,,,,,,,,,,,,,,,,2019_Mar_28_1542,59.957142671037985,Cloud_Experiment_FR_REAL,001,29,
images/fcloud65-35_D0.8_8.tif,0.8,1,,,,,,,,,,,,,0,19,19,49,,,,,,,,,,,1,None,,1,1.385,,,,,,,,,,,,,,,,,,2019_Mar_28_1542,59.957142671037985,Cloud_Experiment_FR_REAL,001,29,
images/fcloud_D1.6_8.tif,1.6,0,,,,,,,,,,,,,0,20,20,33,,,,,,,,,,,5,space,4.02678479999,2,0.869,,,,,,,,,,,,,,,,,,2019_Mar_28_1542,59.957142671037985,Cloud_Experiment_FR_REAL,001,29,
images/fcloud_D0.8_8.tif,0.8,0,,,,,,,,,,,,,0,21,21,1,,,,,,,,,,,2,space,6.42024960008,3,0.753,,,,,,,,,,,,,,,,,,2019_Mar_28_1542,59.957142671037985,Cloud_Experiment_FR_REAL,001,29,
images/fcloud80-20_D1.8_9.tif,1.8,2,,,,,,,,,,,,,0,22,22,138,,,,,,,,,,,None,None,,None,10.292,,,,,,,,,,,,,,,,,,2019_Mar_28_1542,59.957142671037985,Cloud_Experiment_FR_REAL,001,29,
images/fcloud80-20_D1.6_7.tif,1.6,2,,,,,,,,,,,,,0,23,23,128,,,,,,,,,,,3,space,4.57142520009,2,1.883,,,,,,,,,,,,,,,,,,2019_Mar_28_1542,59.957142671037985,Cloud_Experiment_FR_REAL,001,29,
images/fcloud80-20_D1.6_9.tif,1.6,2,,,,,,,,,,,,,0,24,24,130,,,,,,,,,,,2,space,5.63389089995,3,1.284,,,,,,,,,,,,,,,,,,2019_Mar_28_1542,59.957142671037985,Cloud_Experiment_FR_REAL,001,29,
images/fcloud_D1.6_9.tif,1.6,0,,,,,,,,,,,,,0,25,25,34,,,,,,,,,,,3,space,2.46542170004,3,1.169,,,,,,,,,,,,,,,,,,2019_Mar_28_1542,59.957142671037985,Cloud_Experiment_FR_REAL,001,29,
images/fcloud65-35_D1.1_9.tif,1.1,1,,,,,,,,,,,,,0,26,26,62,,,,,,,,,,,2,None,,1,1.318,,,,,,,,,,,,,,,,,,2019_Mar_28_1542,59.957142671037985,Cloud_Experiment_FR_REAL,001,29,
images/fcloud_D1.1_8.tif,1.1,0,,,,,,,,,,,,,0,27,27,13,,,,,,,,,,,3,None,,3,1.75,,,,,,,,,,,,,,,,,,2019_Mar_28_1542,59.957142671037985,Cloud_Experiment_FR_REAL,001,29,
images/fcloud65-35_D1.4_9.tif,1.4,1,,,,,,,,,,,,,0,28,28,74,,,,,,,,,,,2,space,4.17483349994,3,1.951,,,,,,,,,,,,,,,,,,2019_Mar_28_1542,59.957142671037985,Cloud_Experiment_FR_REAL,001,29,
images/fcloud_D0.8_7.tif,0.8,0,,,,,,,,,,,,,0,29,29,0,,,,,,,,,,,2,None,,3,1.452,,,,,,,,,,,,,,,,,,2019_Mar_28_1542,59.957142671037985,Cloud_Experiment_FR_REAL,001,29,
images/fcloud_D1.4_8.tif,1.4,0,,,,,,,,,,,,,0,30,30,25,,,,,,,,,,,5,space,3.0204105,4,0.901,,,,,,,,,,,,,,,,,,2019_Mar_28_1542,59.957142671037985,Cloud_Experiment_FR_REAL,001,29,
images/fcloud80-20_D1.9_8.tif,1.9,2,,,,,,,,,,,,,0,31,31,141,,,,,,,,,,,None,None,,None,11.025,,,,,,,,,,,,,,,,,,2019_Mar_28_1542,59.957142671037985,Cloud_Experiment_FR_REAL,001,29,
images/fcloud65-35_D1.7_7.tif,1.7,1,,,,,,,,,,,,,0,32,32,84,,,,,,,,,,,1,space,7.25168650004,2,0.603,,,,,,,,,,,,,,,,,,2019_Mar_28_1542,59.957142671037985,Cloud_Experiment_FR_REAL,001,29,
images/fcloud_D1.4_9.tif,1.4,0,,,,,,,,,,,,,0,33,33,26,,,,,,,,,,,3,space,1.24109160004,4,0.702,,,,,,,,,,,,,,,,,,2019_Mar_28_1542,59.957142671037985,Cloud_Experiment_FR_REAL,001,29,
images/fcloud80-20_D1.4_8.tif,1.4,2,,,,,,,,,,,,,0,34,34,121,,,,,,,,,,,1,None,,1,1.284,,,,,,,,,,,,,,,,,,2019_Mar_28_1542,59.957142671037985,Cloud_Experiment_FR_REAL,001,29,
images/fcloud_D1.3_9.tif,1.3,0,,,,,,,,,,,,,0,35,35,22,,,,,,,,,,,5,space,2.71392879996,4,0.885,,,,,,,,,,,,,,,,,,2019_Mar_28_1542,59.957142671037985,Cloud_Experiment_FR_REAL,001,29,
images/fcloud_D1.9_9.tif,1.9,0,,,,,,,,,,,,,0,36,36,46,,,,,,,,,,,3,space,2.76478109998,2,1.569,,,,,,,,,,,,,,,,,,2019_Mar_28_1542,59.957142671037985,Cloud_Experiment_FR_REAL,001,29,
images/fcloud80-20_D1_8.tif,1.0,2,,,,,,,,,,,,,0,37,37,105,,,,,,,,,,,1,space,4.63522659999,1,0.471,,,,,,,,,,,,,,,,,,2019_Mar_28_1542,59.957142671037985,Cloud_Experiment_FR_REAL,001,29,
images/fcloud80-20_D1.2_8.tif,1.2,2,,,,,,,,,,,,,0,38,38,113,,,,,,,,,,,4,space,2.78407140006,4,1.401,,,,,,,,,,,,,,,,,,2019_Mar_28_1542,59.957142671037985,Cloud_Experiment_FR_REAL,001,29,
images/fcloud65-35_D1.3_10.tif,1.3,1,,,,,,,,,,,,,0,39,39,71,,,,,,,,,,,3,None,,4,1.517,,,,,,,,,,,,,,,,,,2019_Mar_28_1542,59.957142671037985,Cloud_Experiment_FR_REAL,001,29,
images/fcloud_D0.9_8.tif,0.9,0,,,,,,,,,,,,,0,40,40,5,,,,,,,,,,,3,space,6.80034399999,3,2.051,,,,,,,,,,,,,,,,,,2019_Mar_28_1542,59.957142671037985,Cloud_Experiment_FR_REAL,001,29,
images/fcloud_D0.9_10.tif,0.9,0,,,,,,,,,,,,,0,41,41,7,,,,,,,,,,,3,space,4.05476979993,3,1.121,,,,,,,,,,,,,,,,,,2019_Mar_28_1542,59.957142671037985,Cloud_Experiment_FR_REAL,001,29,
images/fcloud_D0.9_9.tif,0.9,0,,,,,,,,,,,,,0,42,42,6,,,,,,,,,,,5,space,2.38557279995,5,0.501,,,,,,,,,,,,,,,,,,2019_Mar_28_1542,59.957142671037985,Cloud_Experiment_FR_REAL,001,29,
images/fcloud80-20_D0.9_7.tif,0.9,2,,,,,,,,,,,,,0,43,43,100,,,,,,,,,,,1,space,4.32276649994,2,1.667,,,,,,,,,,,,,,,,,,2019_Mar_28_1542,59.957142671037985,Cloud_Experiment_FR_REAL,001,29,
images/fcloud80-20_D1.3_8.tif,1.3,2,,,,,,,,,,,,,0,44,44,117,,,,,,,,,,,1,space,5.70049369999,4,1.184,,,,,,,,,,,,,,,,,,2019_Mar_28_1542,59.957142671037985,Cloud_Experiment_FR_REAL,001,29,
images/fcloud80-20_D1.4_7.tif,1.4,2,,,,,,,,,,,,,0,45,45,120,,,,,,,,,,,3,space,4.45872949995,3,1.385,,,,,,,,,,,,,,,,,,2019_Mar_28_1542,59.957142671037985,Cloud_Experiment_FR_REAL,001,29,
images/fcloud65-35_D0.9_7.tif,0.9,1,,,,,,,,,,,,,0,46,46,52,,,,,,,,,,,2,space,1.9008991,3,0.634,,,,,,,,,,,,,,,,,,2019_Mar_28_1542,59.957142671037985,Cloud_Experiment_FR_REAL,001,29,
images/fcloud65-35_D0.9_9.tif,0.9,1,,,,,,,,,,,,,0,47,47,54,,,,,,,,,,,2,space,6.02037149994,3,3.024,,,,,,,,,,,,,,,,,,2019_Mar_28_1542,59.957142671037985,Cloud_Experiment_FR_REAL,001,29,
images/fcloud65-35_D1.9_7.tif,1.9,1,,,,,,,,,,,,,0,48,48,92,,,,,,,,,,,2,space,4.29562989995,2,1.901,,,,,,,,,,,,,,,,,,2019_Mar_28_1542,59.957142671037985,Cloud_Experiment_FR_REAL,001,29,
images/fcloud_D1.9_8.tif,1.9,0,,,,,,,,,,,,,0,49,49,45,,,,,,,,,,,2,space,5.12778709992,3,0.651,,,,,,,,,,,,,,,,,,2019_Mar_28_1542,59.957142671037985,Cloud_Experiment_FR_REAL,001,29,
images/fcloud80-20_D1.1_9.tif,1.1,2,,,,,,,,,,,,,0,50,50,110,,,,,,,,,,,2,None,,1,0.87,,,,,,,,,,,,,,,,,,2019_Mar_28_1542,59.957142671037985,Cloud_Experiment_FR_REAL,001,29,
images/fcloud80-20_D1.1_10.tif,1.1,2,,,,,,,,,,,,,0,51,51,111,,,,,,,,,,,3,space,4.59895200003,1,0.734,,,,,,,,,,,,,,,,,,2019_Mar_28_1542,59.957142671037985,Cloud_Experiment_FR_REAL,001,29,
images/fcloud80-20_D1.3_10.tif,1.3,2,,,,,,,,,,,,,0,52,52,119,,,,,,,,,,,4,None,,3,0.488,,,,,,,,,,,,,,,,,,2019_Mar_28_1542,59.957142671037985,Cloud_Experiment_FR_REAL,001,29,
images/fcloud_D1.4_10.tif,1.4,0,,,,,,,,,,,,,0,53,53,27,,,,,,,,,,,5,space,2.74684629997,4,0.734,,,,,,,,,,,,,,,,,,2019_Mar_28_1542,59.957142671037985,Cloud_Experiment_FR_REAL,001,29,
images/fcloud_D1.3_8.tif,1.3,0,,,,,,,,,,,,,0,54,54,21,,,,,,,,,,,5,space,2.35801020009,4,1.534,,,,,,,,,,,,,,,,,,2019_Mar_28_1542,59.957142671037985,Cloud_Experiment_FR_REAL,001,29,
images/fcloud80-20_D1.1_8.tif,1.1,2,,,,,,,,,,,,,0,55,55,109,,,,,,,,,,,2,space,3.92898500001,2,2.234,,,,,,,,,,,,,,,,,,2019_Mar_28_1542,59.957142671037985,Cloud_Experiment_FR_REAL,001,29,
images/fcloud80-20_D0.8_7.tif,0.8,2,,,,,,,,,,,,,0,56,56,96,,,,,,,,,,,2,None,,3,1.816,,,,,,,,,,,,,,,,,,2019_Mar_28_1542,59.957142671037985,Cloud_Experiment_FR_REAL,001,29,
images/fcloud65-35_D1.2_10.tif,1.2,1,,,,,,,,,,,,,0,57,57,67,,,,,,,,,,,3,space,3.21517510002,3,0.635,,,,,,,,,,,,,,,,,,2019_Mar_28_1542,59.957142671037985,Cloud_Experiment_FR_REAL,001,29,
images/fcloud80-20_D1.4_9.tif,1.4,2,,,,,,,,,,,,,0,58,58,122,,,,,,,,,,,2,None,,3,0.536,,,,,,,,,,,,,,,,,,2019_Mar_28_1542,59.957142671037985,Cloud_Experiment_FR_REAL,001,29,
images/fcloud80-20_D0.9_10.tif,0.9,2,,,,,,,,,,,,,0,59,59,103,,,,,,,,,,,2,space,1.54264960007,1,2.734,,,,,,,,,,,,,,,,,,2019_Mar_28_1542,59.957142671037985,Cloud_Experiment_FR_REAL,001,29,
images/fcloud65-35_D1.8_10.tif,1.8,1,,,,,,,,,,,,,0,60,60,91,,,,,,,,,,,1,space,6.91451919999,1,1.534,,,,,,,,,,,,,,,,,,2019_Mar_28_1542,59.957142671037985,Cloud_Experiment_FR_REAL,001,29,
images/fcloud80-20_D1.5_7.tif,1.5,2,,,,,,,,,,,,,0,61,61,124,,,,,,,,,,,1,space,7.75788140006,1,0.918,,,,,,,,,,,,,,,,,,2019_Mar_28_1542,59.957142671037985,Cloud_Experiment_FR_REAL,001,29,
images/fcloud65-35_D1_10.tif,1.0,1,,,,,,,,,,,,,0,62,62,59,,,,,,,,,,,2,space,4.05483529996,3,3.55,,,,,,,,,,,,,,,,,,2019_Mar_28_1542,59.957142671037985,Cloud_Experiment_FR_REAL,001,29,
images/fcloud_D1.7_7.tif,1.7,0,,,,,,,,,,,,,0,63,63,36,,,,,,,,,,,1,None,,3,2.384,,,,,,,,,,,,,,,,,,2019_Mar_28_1542,59.957142671037985,Cloud_Experiment_FR_REAL,001,29,
images/fcloud65-35_D1.6_10.tif,1.6,1,,,,,,,,,,,,,0,64,64,83,,,,,,,,,,,2,space,5.47921900009,3,1.202,,,,,,,,,,,,,,,,,,2019_Mar_28_1542,59.957142671037985,Cloud_Experiment_FR_REAL,001,29,
images/fcloud_D1_7.tif,1.0,0,,,,,,,,,,,,,0,65,65,8,,,,,,,,,,,3,None,,5,1.069,,,,,,,,,,,,,,,,,,2019_Mar_28_1542,59.957142671037985,Cloud_Experiment_FR_REAL,001,29,
images/fcloud_D1.3_10.tif,1.3,0,,,,,,,,,,,,,0,66,66,23,,,,,,,,,,,4,space,5.61260799994,4,1.305,,,,,,,,,,,,,,,,,,2019_Mar_28_1542,59.957142671037985,Cloud_Experiment_FR_REAL,001,29,
images/fcloud80-20_D1.8_7.tif,1.8,2,,,,,,,,,,,,,0,67,67,136,,,,,,,,,,,1,space,6.51756890002,1,1.601,,,,,,,,,,,,,,,,,,2019_Mar_28_1542,59.957142671037985,Cloud_Experiment_FR_REAL,001,29,
images/fcloud65-35_D1.2_8.tif,1.2,1,,,,,,,,,,,,,0,68,68,65,,,,,,,,,,,None,None,,None,10.676,,,,,,,,,,,,,,,,,,2019_Mar_28_1542,59.957142671037985,Cloud_Experiment_FR_REAL,001,29,
images/fcloud65-35_D1.3_7.tif,1.3,1,,,,,,,,,,,,,0,69,69,68,,,,,,,,,,,3,space,3.1848545,1,0.569,,,,,,,,,,,,,,,,,,2019_Mar_28_1542,59.957142671037985,Cloud_Experiment_FR_REAL,001,29,
images/fcloud65-35_D0.8_10.tif,0.8,1,,,,,,,,,,,,,0,70,70,51,,,,,,,,,,,None,None,,None,9.062,,,,,,,,,,,,,,,,,,2019_Mar_28_1542,59.957142671037985,Cloud_Experiment_FR_REAL,001,29,
images/fcloud_D1.8_9.tif,1.8,0,,,,,,,,,,,,,0,71,71,42,,,,,,,,,,,None,None,,None,18.518,,,,,,,,,,,,,,,,,,2019_Mar_28_1542,59.957142671037985,Cloud_Experiment_FR_REAL,001,29,
images/fcloud80-20_D1.8_8.tif,1.8,2,,,,,,,,,,,,,0,72,72,137,,,,,,,,,,,3,space,5.2479498001,1,0.835,,,,,,,,,,,,,,,,,,2019_Mar_28_1542,59.957142671037985,Cloud_Experiment_FR_REAL,001,29,
images/fcloud65-35_D1.9_8.tif,1.9,1,,,,,,,,,,,,,0,73,73,93,,,,,,,,,,,1,None,,1,0.419,,,,,,,,,,,,,,,,,,2019_Mar_28_1542,59.957142671037985,Cloud_Experiment_FR_REAL,001,29,
images/fcloud65-35_D1.5_8.tif,1.5,1,,,,,,,,,,,,,0,74,74,77,,,,,,,,,,,2,space,6.82036439993,2,1.351,,,,,,,,,,,,,,,,,,2019_Mar_28_1542,59.957142671037985,Cloud_Experiment_FR_REAL,001,29,
images/fcloud65-35_D1.8_8.tif,1.8,1,,,,,,,,,,,,,0,75,75,89,,,,,,,,,,,None,None,,None,10.844,,,,,,,,,,,,,,,,,,2019_Mar_28_1542,59.957142671037985,Cloud_Experiment_FR_REAL,001,29,
images/fcloud_D1.7_9.tif,1.7,0,,,,,,,,,,,,,0,76,76,38,,,,,,,,,,,5,None,,4,0.601,,,,,,,,,,,,,,,,,,2019_Mar_28_1542,59.957142671037985,Cloud_Experiment_FR_REAL,001,29,
images/fcloud65-35_D1_8.tif,1.0,1,,,,,,,,,,,,,0,77,77,57,,,,,,,,,,,3,space,2.69128550007,4,1.351,,,,,,,,,,,,,,,,,,2019_Mar_28_1542,59.957142671037985,Cloud_Experiment_FR_REAL,001,29,
images/fcloud65-35_D0.9_8.tif,0.9,1,,,,,,,,,,,,,0,78,78,53,,,,,,,,,,,3,None,,1,0.502,,,,,,,,,,,,,,,,,,2019_Mar_28_1542,59.957142671037985,Cloud_Experiment_FR_REAL,001,29,
images/fcloud65-35_D0.9_10.tif,0.9,1,,,,,,,,,,,,,0,79,79,55,,,,,,,,,,,4,space,3.06239170011,3,3.832,,,,,,,,,,,,,,,,,,2019_Mar_28_1542,59.957142671037985,Cloud_Experiment_FR_REAL,001,29,
images/fcloud_D1.7_8.tif,1.7,0,,,,,,,,,,,,,0,80,80,37,,,,,,,,,,,3,None,,4,1.251,,,,,,,,,,,,,,,,,,2019_Mar_28_1542,59.957142671037985,Cloud_Experiment_FR_REAL,001,29,
images/fcloud65-35_D1.5_9.tif,1.5,1,,,,,,,,,,,,,0,81,81,78,,,,,,,,,,,2,space,4.34276919998,4,1.35,,,,,,,,,,,,,,,,,,2019_Mar_28_1542,59.957142671037985,Cloud_Experiment_FR_REAL,001,29,
images/fcloud80-20_D1.9_9.tif,1.9,2,,,,,,,,,,,,,0,82,82,142,,,,,,,,,,,None,None,,None,10.924,,,,,,,,,,,,,,,,,,2019_Mar_28_1542,59.957142671037985,Cloud_Experiment_FR_REAL,001,29,
images/fcloud_D1.8_7.tif,1.8,0,,,,,,,,,,,,,0,83,83,40,,,,,,,,,,,2,None,,3,1.468,,,,,,,,,,,,,,,,,,2019_Mar_28_1542,59.957142671037985,Cloud_Experiment_FR_REAL,001,29,
images/fcloud_D0.9_7.tif,0.9,0,,,,,,,,,,,,,0,84,84,4,,,,,,,,,,,3,space,2.12702179991,4,0.785,,,,,,,,,,,,,,,,,,2019_Mar_28_1542,59.957142671037985,Cloud_Experiment_FR_REAL,001,29,
images/fcloud65-35_D1.5_7.tif,1.5,1,,,,,,,,,,,,,0,85,85,76,,,,,,,,,,,4,space,3.25199729996,3,2.0,,,,,,,,,,,,,,,,,,2019_Mar_28_1542,59.957142671037985,Cloud_Experiment_FR_REAL,001,29,
images/fcloud65-35_D1.4_7.tif,1.4,1,,,,,,,,,,,,,0,86,86,72,,,,,,,,,,,4,space,5.65732240002,2,0.62,,,,,,,,,,,,,,,,,,2019_Mar_28_1542,59.957142671037985,Cloud_Experiment_FR_REAL,001,29,
images/fcloud80-20_D1_10.tif,1.0,2,,,,,,,,,,,,,0,87,87,107,,,,,,,,,,,1,None,,2,1.286,,,,,,,,,,,,,,,,,,2019_Mar_28_1542,59.957142671037985,Cloud_Experiment_FR_REAL,001,29,
images/fcloud65-35_D1.6_9.tif,1.6,1,,,,,,,,,,,,,0,88,88,82,,,,,,,,,,,2,None,,3,1.37,,,,,,,,,,,,,,,,,,2019_Mar_28_1542,59.957142671037985,Cloud_Experiment_FR_REAL,001,29,
images/fcloud_D1.9_10.tif,1.9,0,,,,,,,,,,,,,0,89,89,47,,,,,,,,,,,1,None,,2,0.601,,,,,,,,,,,,,,,,,,2019_Mar_28_1542,59.957142671037985,Cloud_Experiment_FR_REAL,001,29,
images/fcloud_D1.2_10.tif,1.2,0,,,,,,,,,,,,,0,90,90,19,,,,,,,,,,,5,space,3.48008479993,5,0.585,,,,,,,,,,,,,,,,,,2019_Mar_28_1542,59.957142671037985,Cloud_Experiment_FR_REAL,001,29,
images/fcloud_D1.7_10.tif,1.7,0,,,,,,,,,,,,,0,91,91,39,,,,,,,,,,,4,None,,5,1.57,,,,,,,,,,,,,,,,,,2019_Mar_28_1542,59.957142671037985,Cloud_Experiment_FR_REAL,001,29,
images/fcloud_D0.8_10.tif,0.8,0,,,,,,,,,,,,,0,92,92,3,,,,,,,,,,,1,None,,3,1.733,,,,,,,,,,,,,,,,,,2019_Mar_28_1542,59.957142671037985,Cloud_Experiment_FR_REAL,001,29,
images/fcloud65-35_D0.8_7.tif,0.8,1,,,,,,,,,,,,,0,93,93,48,,,,,,,,,,,3,None,,4,1.036,,,,,,,,,,,,,,,,,,2019_Mar_28_1542,59.957142671037985,Cloud_Experiment_FR_REAL,001,29,
images/fcloud_D1.5_9.tif,1.5,0,,,,,,,,,,,,,0,94,94,30,,,,,,,,,,,5,None,,4,0.652,,,,,,,,,,,,,,,,,,2019_Mar_28_1542,59.957142671037985,Cloud_Experiment_FR_REAL,001,29,
images/fcloud80-20_D0.9_9.tif,0.9,2,,,,,,,,,,,,,0,95,95,102,,,,,,,,,,,2,None,,2,2.55,,,,,,,,,,,,,,,,,,2019_Mar_28_1542,59.957142671037985,Cloud_Experiment_FR_REAL,001,29,
images/fcloud65-35_D1_7.tif,1.0,1,,,,,,,,,,,,,0,96,96,56,,,,,,,,,,,1,space,6.0366298001,2,0.72,,,,,,,,,,,,,,,,,,2019_Mar_28_1542,59.957142671037985,Cloud_Experiment_FR_REAL,001,29,
images/fcloud_D1.1_9.tif,1.1,0,,,,,,,,,,,,,0,97,97,14,,,,,,,,,,,4,space,4.77220210002,4,3.001,,,,,,,,,,,,,,,,,,2019_Mar_28_1542,59.957142671037985,Cloud_Experiment_FR_REAL,001,29,
images/fcloud65-35_D1.4_8.tif,1.4,1,,,,,,,,,,,,,0,98,98,73,,,,,,,,,,,4,space,2.98883259995,3,0.585,,,,,,,,,,,,,,,,,,2019_Mar_28_1542,59.957142671037985,Cloud_Experiment_FR_REAL,001,29,
images/fcloud80-20_D1.5_10.tif,1.5,2,,,,,,,,,,,,,0,99,99,127,,,,,,,,,,,3,space,7.10058510001,1,1.067,,,,,,,,,,,,,,,,,,2019_Mar_28_1542,59.957142671037985,Cloud_Experiment_FR_REAL,001,29,
images/fcloud_D1.6_10.tif,1.6,0,,,,,,,,,,,,,0,100,100,35,,,,,,,,,,,3,None,,4,0.651,,,,,,,,,,,,,,,,,,2019_Mar_28_1542,59.957142671037985,Cloud_Experiment_FR_REAL,001,29,
images/fcloud_D1.2_9.tif,1.2,0,,,,,,,,,,,,,0,101,101,18,,,,,,,,,,,5,space,3.67854809994,4,0.901,,,,,,,,,,,,,,,,,,2019_Mar_28_1542,59.957142671037985,Cloud_Experiment_FR_REAL,001,29,
images/fcloud_D1_8.tif,1.0,0,,,,,,,,,,,,,0,102,102,9,,,,,,,,,,,4,None,,4,3.148,,,,,,,,,,,,,,,,,,2019_Mar_28_1542,59.957142671037985,Cloud_Experiment_FR_REAL,001,29,
images/fcloud80-20_D1.7_8.tif,1.7,2,,,,,,,,,,,,,0,103,103,133,,,,,,,,,,,2,space,3.90616710007,1,0.422,,,,,,,,,,,,,,,,,,2019_Mar_28_1542,59.957142671037985,Cloud_Experiment_FR_REAL,001,29,
images/fcloud65-35_D1.5_10.tif,1.5,1,,,,,,,,,,,,,0,104,104,79,,,,,,,,,,,1,space,2.23248140002,5,1.6,,,,,,,,,,,,,,,,,,2019_Mar_28_1542,59.957142671037985,Cloud_Experiment_FR_REAL,001,29,
images/fcloud_D1.5_7.tif,1.5,0,,,,,,,,,,,,,0,105,105,28,,,,,,,,,,,4,None,,4,0.869,,,,,,,,,,,,,,,,,,2019_Mar_28_1542,59.957142671037985,Cloud_Experiment_FR_REAL,001,29,
images/fcloud65-35_D0.8_9.tif,0.8,1,,,,,,,,,,,,,0,106,106,50,,,,,,,,,,,None,None,,None,10.825,,,,,,,,,,,,,,,,,,2019_Mar_28_1542,59.957142671037985,Cloud_Experiment_FR_REAL,001,29,
images/fcloud80-20_D1.1_7.tif,1.1,2,,,,,,,,,,,,,0,107,107,108,,,,,,,,,,,2,space,5.39005509997,1,0.619,,,,,,,,,,,,,,,,,,2019_Mar_28_1542,59.957142671037985,Cloud_Experiment_FR_REAL,001,29,
images/fcloud_D1.1_10.tif,1.1,0,,,,,,,,,,,,,0,108,108,15,,,,,,,,,,,2,None,,4,0.785,,,,,,,,,,,,,,,,,,2019_Mar_28_1542,59.957142671037985,Cloud_Experiment_FR_REAL,001,29,
images/fcloud65-35_D1.2_7.tif,1.2,1,,,,,,,,,,,,,0,109,109,64,,,,,,,,,,,2,None,,3,1.102,,,,,,,,,,,,,,,,,,2019_Mar_28_1542,59.957142671037985,Cloud_Experiment_FR_REAL,001,29,
images/fcloud65-35_D1.6_8.tif,1.6,1,,,,,,,,,,,,,0,110,110,81,,,,,,,,,,,3,space,5.83654320007,2,0.668,,,,,,,,,,,,,,,,,,2019_Mar_28_1542,59.957142671037985,Cloud_Experiment_FR_REAL,001,29,
images/fcloud80-20_D1.2_7.tif,1.2,2,,,,,,,,,,,,,0,111,111,112,,,,,,,,,,,None,None,,None,10.445,,,,,,,,,,,,,,,,,,2019_Mar_28_1542,59.957142671037985,Cloud_Experiment_FR_REAL,001,29,
images/fcloud65-35_D1.8_9.tif,1.8,1,,,,,,,,,,,,,0,112,112,90,,,,,,,,,,,1,None,,1,0.568,,,,,,,,,,,,,,,,,,2019_Mar_28_1542,59.957142671037985,Cloud_Experiment_FR_REAL,001,29,
images/fcloud65-35_D1.3_9.tif,1.3,1,,,,,,,,,,,,,0,113,113,70,,,,,,,,,,,1,space,1.88884790009,3,0.568,,,,,,,,,,,,,,,,,,2019_Mar_28_1542,59.957142671037985,Cloud_Experiment_FR_REAL,001,29,
images/fcloud65-35_D1.3_8.tif,1.3,1,,,,,,,,,,,,,0,114,114,69,,,,,,,,,,,3,space,2.70631020004,3,0.968,,,,,,,,,,,,,,,,,,2019_Mar_28_1542,59.957142671037985,Cloud_Experiment_FR_REAL,001,29,
images/fcloud80-20_D0.8_9.tif,0.8,2,,,,,,,,,,,,,0,115,115,98,,,,,,,,,,,1,space,6.89832889999,4,2.034,,,,,,,,,,,,,,,,,,2019_Mar_28_1542,59.957142671037985,Cloud_Experiment_FR_REAL,001,29,
images/fcloud65-35_D1.8_7.tif,1.8,1,,,,,,,,,,,,,0,116,116,88,,,,,,,,,,,2,space,4.46482160001,3,1.649,,,,,,,,,,,,,,,,,,2019_Mar_28_1542,59.957142671037985,Cloud_Experiment_FR_REAL,001,29,
images/fcloud65-35_D1.1_8.tif,1.1,1,,,,,,,,,,,,,0,117,117,61,,,,,,,,,,,2,space,6.55104559998,1,0.67,,,,,,,,,,,,,,,,,,2019_Mar_28_1542,59.957142671037985,Cloud_Experiment_FR_REAL,001,29,
images/fcloud_D1_10.tif,1.0,0,,,,,,,,,,,,,0,118,118,11,,,,,,,,,,,2,space,2.59892110003,3,1.749,,,,,,,,,,,,,,,,,,2019_Mar_28_1542,59.957142671037985,Cloud_Experiment_FR_REAL,001,29,
images/fcloud_D1.1_7.tif,1.1,0,,,,,,,,,,,,,0,119,119,12,,,,,,,,,,,5,None,,4,0.618,,,,,,,,,,,,,,,,,,2019_Mar_28_1542,59.957142671037985,Cloud_Experiment_FR_REAL,001,29,
images/fcloud80-20_D1.7_7.tif,1.7,2,,,,,,,,,,,,,0,120,120,132,,,,,,,,,,,2,space,1.93138279999,3,1.985,,,,,,,,,,,,,,,,,,2019_Mar_28_1542,59.957142671037985,Cloud_Experiment_FR_REAL,001,29,
images/fcloud65-35_D1.4_10.tif,1.4,1,,,,,,,,,,,,,0,121,121,75,,,,,,,,,,,2,space,5.38458790001,3,0.485,,,,,,,,,,,,,,,,,,2019_Mar_28_1542,59.957142671037985,Cloud_Experiment_FR_REAL,001,29,
images/fcloud_D1.2_7.tif,1.2,0,,,,,,,,,,,,,0,122,122,16,,,,,,,,,,,2,None,,4,0.785,,,,,,,,,,,,,,,,,,2019_Mar_28_1542,59.957142671037985,Cloud_Experiment_FR_REAL,001,29,
images/fcloud65-35_D1.1_7.tif,1.1,1,,,,,,,,,,,,,0,123,123,60,,,,,,,,,,,3,space,7.56547919998,4,1.368,,,,,,,,,,,,,,,,,,2019_Mar_28_1542,59.957142671037985,Cloud_Experiment_FR_REAL,001,29,
images/fcloud65-35_D1.7_10.tif,1.7,1,,,,,,,,,,,,,0,124,124,87,,,,,,,,,,,2,space,4.39524990006,2,1.167,,,,,,,,,,,,,,,,,,2019_Mar_28_1542,59.957142671037985,Cloud_Experiment_FR_REAL,001,29,
images/fcloud65-35_D1.9_9.tif,1.9,1,,,,,,,,,,,,,0,125,125,94,,,,,,,,,,,None,None,,None,10.391,,,,,,,,,,,,,,,,,,2019_Mar_28_1542,59.957142671037985,Cloud_Experiment_FR_REAL,001,29,
images/fcloud_D1.6_7.tif,1.6,0,,,,,,,,,,,,,0,126,126,32,,,,,,,,,,,2,space,4.90125650004,3,0.784,,,,,,,,,,,,,,,,,,2019_Mar_28_1542,59.957142671037985,Cloud_Experiment_FR_REAL,001,29,
images/fcloud_D1.5_8.tif,1.5,0,,,,,,,,,,,,,0,127,127,29,,,,,,,,,,,4,None,,4,0.467,,,,,,,,,,,,,,,,,,2019_Mar_28_1542,59.957142671037985,Cloud_Experiment_FR_REAL,001,29,
images/fcloud80-20_D1.6_10.tif,1.6,2,,,,,,,,,,,,,0,128,128,131,,,,,,,,,,,1,space,1.77607519994,4,0.834,,,,,,,,,,,,,,,,,,2019_Mar_28_1542,59.957142671037985,Cloud_Experiment_FR_REAL,001,29,
images/fcloud80-20_D1.3_7.tif,1.3,2,,,,,,,,,,,,,0,129,129,116,,,,,,,,,,,2,space,3.73648169998,2,2.0,,,,,,,,,,,,,,,,,,2019_Mar_28_1542,59.957142671037985,Cloud_Experiment_FR_REAL,001,29,
images/fcloud65-35_D1_9.tif,1.0,1,,,,,,,,,,,,,0,130,130,58,,,,,,,,,,,1,None,,1,0.553,,,,,,,,,,,,,,,,,,2019_Mar_28_1542,59.957142671037985,Cloud_Experiment_FR_REAL,001,29,
images/fcloud_D1.2_8.tif,1.2,0,,,,,,,,,,,,,0,131,131,17,,,,,,,,,,,5,None,,4,0.868,,,,,,,,,,,,,,,,,,2019_Mar_28_1542,59.957142671037985,Cloud_Experiment_FR_REAL,001,29,
images/fcloud80-20_D1.2_9.tif,1.2,2,,,,,,,,,,,,,0,132,132,114,,,,,,,,,,,1,None,,2,2.268,,,,,,,,,,,,,,,,,,2019_Mar_28_1542,59.957142671037985,Cloud_Experiment_FR_REAL,001,29,
images/fcloud80-20_D1.9_10.tif,1.9,2,,,,,,,,,,,,,0,133,133,143,,,,,,,,,,,None,None,,None,11.624,,,,,,,,,,,,,,,,,,2019_Mar_28_1542,59.957142671037985,Cloud_Experiment_FR_REAL,001,29,
images/fcloud80-20_D1.3_9.tif,1.3,2,,,,,,,,,,,,,0,134,134,118,,,,,,,,,,,1,None,,1,1.52,,,,,,,,,,,,,,,,,,2019_Mar_28_1542,59.957142671037985,Cloud_Experiment_FR_REAL,001,29,
images/fcloud80-20_D1.2_10.tif,1.2,2,,,,,,,,,,,,,0,135,135,115,,,,,,,,,,,4,None,,3,0.419,,,,,,,,,,,,,,,,,,2019_Mar_28_1542,59.957142671037985,Cloud_Experiment_FR_REAL,001,29,
images/fcloud80-20_D1.7_9.tif,1.7,2,,,,,,,,,,,,,0,136,136,134,,,,,,,,,,,None,None,,None,10.276,,,,,,,,,,,,,,,,,,2019_Mar_28_1542,59.957142671037985,Cloud_Experiment_FR_REAL,001,29,
images/fcloud_D1.8_8.tif,1.8,0,,,,,,,,,,,,,0,137,137,41,,,,,,,,,,,3,None,,2,1.134,,,,,,,,,,,,,,,,,,2019_Mar_28_1542,59.957142671037985,Cloud_Experiment_FR_REAL,001,29,
images/fcloud_D1.9_7.tif,1.9,0,,,,,,,,,,,,,0,138,138,44,,,,,,,,,,,None,None,,None,9.846,,,,,,,,,,,,,,,,,,2019_Mar_28_1542,59.957142671037985,Cloud_Experiment_FR_REAL,001,29,
images/fcloud80-20_D1_7.tif,1.0,2,,,,,,,,,,,,,0,139,139,104,,,,,,,,,,,3,None,,3,0.868,,,,,,,,,,,,,,,,,,2019_Mar_28_1542,59.957142671037985,Cloud_Experiment_FR_REAL,001,29,
images/fcloud65-35_D1.9_10.tif,1.9,1,,,,,,,,,,,,,0,140,140,95,,,,,,,,,,,None,None,,None,10.074,,,,,,,,,,,,,,,,,,2019_Mar_28_1542,59.957142671037985,Cloud_Experiment_FR_REAL,001,29,
images/fcloud80-20_D0.8_10.tif,0.8,2,,,,,,,,,,,,,0,141,141,99,,,,,,,,,,,None,None,,None,19.593,,,,,,,,,,,,,,,,,,2019_Mar_28_1542,59.957142671037985,Cloud_Experiment_FR_REAL,001,29,
images/fcloud80-20_D1.5_8.tif,1.5,2,,,,,,,,,,,,,0,142,142,125,,,,,,,,,,,2,space,3.76477909996,2,0.518,,,,,,,,,,,,,,,,,,2019_Mar_28_1542,59.957142671037985,Cloud_Experiment_FR_REAL,001,29,
images/fcloud_D1.8_10.tif,1.8,0,,,,,,,,,,,,,0,143,143,43,,,,,,,,,,,1,None,,2,0.687,,,,,,,,,,,,,,,,,,2019_Mar_28_1542,59.957142671037985,Cloud_Experiment_FR_REAL,001,29,
,,,,,,,,,,,,,,,,,,,,,,,,,4,9.1,,,,,,,,,,,,,,,,,,,,,,,,,2019_Mar_28_1542,59.957142671037985,Cloud_Experiment_FR_REAL,001,29,
,,,,,,,,,,,,,,,,,,,,,,,,,,,,,,,,,,3,,,,,,,,,,,,,,,,,2019_Mar_28_1542,59.957142671037985,Cloud_Experiment_FR_REAL,001,29,
,,,,,,,,,,,,,,,,,,,,,,,,,,,,,,,,,,,7,,,,,,,,,,,,,,,,2019_Mar_28_1542,59.957142671037985,Cloud_Experiment_FR_REAL,001,29,
,,,,,,,,,,,,,,,,,,,,,,,,,,,,,,,,,,,,6,,,,,,,,,,,,,,,2019_Mar_28_1542,59.957142671037985,Cloud_Experiment_FR_REAL,001,29,
,,,,,,,,,,,,,,,,,,,,,,,,,,,,,,,,,,,,,4,,,,,,,,,,,,,,2019_Mar_28_1542,59.957142671037985,Cloud_Experiment_FR_REAL,001,29,
,,,,,,,,,,,,,,,,,,,,,,,,,,,,,,,,,,,,,,2,,,,,,,,,,,,,2019_Mar_28_1542,59.957142671037985,Cloud_Experiment_FR_REAL,001,29,
,,,,,,,,,,,,,,,,,,,,,,,,,,,,,,,,,,,,,,,6,,,,,,,,,,,,2019_Mar_28_1542,59.957142671037985,Cloud_Experiment_FR_REAL,001,29,
,,,,,,,,,,,,,,,,,,,,,,,,,,,,,,,,,,,,,,,,7,,,,,,,,,,,2019_Mar_28_1542,59.957142671037985,Cloud_Experiment_FR_REAL,001,29,
,,,,,,,,,,,,,,,,,,,,,,,,,,,,,,,,,,,,,,,,,7,,,,,,,,,,2019_Mar_28_1542,59.957142671037985,Cloud_Experiment_FR_REAL,001,29,
,,,,,,,,,,,,,,,,,,,,,,,,,,,,,,,,,,,,,,,,,,7,,,,,,,,,2019_Mar_28_1542,59.957142671037985,Cloud_Experiment_FR_REAL,001,29,
,,,,,,,,,,,,,,,,,,,,,,,,,,,,,,,,,,,,,,,,,,,5,,,,,,,,2019_Mar_28_1542,59.957142671037985,Cloud_Experiment_FR_REAL,001,29,
,,,,,,,,,,,,,,,,,,,,,,,,,,,,,,,,,,,,,,,,,,,,,,,,,,5,2019_Mar_28_1542,59.957142671037985,Cloud_Experiment_FR_REAL,001,29,
