ImageFile,FD,Contrast,trials_4.thisRepN,trials_4.thisTrialN,trials_4.thisN,trials_4.thisIndex,trials.thisRepN,trials.thisTrialN,trials.thisN,trials.thisIndex,trials_2.thisRepN,trials_2.thisTrialN,trials_2.thisN,trials_2.thisIndex,trials_3.thisRepN,trials_3.thisTrialN,trials_3.thisN,trials_3.thisIndex,end_instructions.keys,end_instructions.rt,key_resp_4.keys,key_resp_4.rt,key_resp_6.keys,key_resp_6.rt,Fatigue.response,Fatigue.rt,key_resp_5.keys,key_resp_5.rt,n_objets.response,reaction_time.keys,reaction_time.rt,vividness.response,vividness.rt,Flow01.response,Flow02.response,Flow03.response,Flow04.response,Flow05.response,Flow06.response,Flow07.response,Flow08.response,Flow09.response,Flow10.response,key_resp_2.keys,key_resp_2.rt,key_resp_8.keys,key_resp_8.rt,key_resp_3.keys,key_resp_3.rt,Redondance_question.response,date,frameRate,expName,session,participant,
,,,,,,,,,,,,,,,,,,,space,14.8204478,,,,,,,,,,,,,,,,,,,,,,,,,,,,,,,2019_Mar_28_1706,60.66705855577804,Cloud_Experiment_FR_REAL,001,30,
,,,,,,,,,,,,,,,,,,,,,space,33.0722485,,,,,,,,,,,,,,,,,,,,,,,,,,,,,2019_Mar_28_1706,60.66705855577804,Cloud_Experiment_FR_REAL,001,30,
,,,,,,,,,,,,,,,,,,,,,,,space,8.57605670008,,,,,,,,,,,,,,,,,,,,,,,,,,,2019_Mar_28_1706,60.66705855577804,Cloud_Experiment_FR_REAL,001,30,
,,,,,,,,,,,,,,,,,,,,,,,,,7,10.157,,,,,,,,,,,,,,,,,,,,,,,,,2019_Mar_28_1706,60.66705855577804,Cloud_Experiment_FR_REAL,001,30,
,,,,,,,,,,,,,,,,,,,,,,,,,,,space,5.19879559998,,,,,,,,,,,,,,,,,,,,,,,2019_Mar_28_1706,60.66705855577804,Cloud_Experiment_FR_REAL,001,30,
pratique/fcloud80-20_D1.5_30,1.5,2,0,0,0,8,,,,,,,,,,,,,,,,,,,,,,,1,space,4.73670819995,1,5.752,,,,,,,,,,,,,,,,,,2019_Mar_28_1706,60.66705855577804,Cloud_Experiment_FR_REAL,001,30,
pratique/fcloud_D1.6_28,1.6,0,0,1,1,5,,,,,,,,,,,,,,,,,,,,,,,None,None,,None,17.72,,,,,,,,,,,,,,,,,,2019_Mar_28_1706,60.66705855577804,Cloud_Experiment_FR_REAL,001,30,
pratique/fcloud80-20_D1.8_30,1.8,2,0,2,2,4,,,,,,,,,,,,,,,,,,,,,,,1,space,6.75479539996,1,1.767,,,,,,,,,,,,,,,,,,2019_Mar_28_1706,60.66705855577804,Cloud_Experiment_FR_REAL,001,30,
pratique/fcloud_D1.4_30,1.4,0,0,3,3,1,,,,,,,,,,,,,,,,,,,,,,,1,space,7.47576070006,2,3.333,,,,,,,,,,,,,,,,,,2019_Mar_28_1706,60.66705855577804,Cloud_Experiment_FR_REAL,001,30,
pratique/fcloud65-35_D1.6_30,1.6,1,0,4,4,2,,,,,,,,,,,,,,,,,,,,,,,None,None,,None,12.661,,,,,,,,,,,,,,,,,,2019_Mar_28_1706,60.66705855577804,Cloud_Experiment_FR_REAL,001,30,
pratique/fcloud_D0.8_30,0.8,0,0,5,5,0,,,,,,,,,,,,,,,,,,,,,,,2,space,3.29078620009,3,2.932,,,,,,,,,,,,,,,,,,2019_Mar_28_1706,60.66705855577804,Cloud_Experiment_FR_REAL,001,30,
pratique/fcloud65-35_D1.2_30,1.2,1,0,6,6,3,,,,,,,,,,,,,,,,,,,,,,,1,None,,2,0.736,,,,,,,,,,,,,,,,,,2019_Mar_28_1706,60.66705855577804,Cloud_Experiment_FR_REAL,001,30,
pratique/fcloud65-35_D1.9_29,1.9,1,0,7,7,7,,,,,,,,,,,,,,,,,,,,,,,1,space,7.02326189994,2,3.283,,,,,,,,,,,,,,,,,,2019_Mar_28_1706,60.66705855577804,Cloud_Experiment_FR_REAL,001,30,
pratique/fcloud65-35_D1.3_30,1.3,1,0,8,8,6,,,,,,,,,,,,,,,,,,,,,,,None,None,,None,13.007,,,,,,,,,,,,,,,,,,2019_Mar_28_1706,60.66705855577804,Cloud_Experiment_FR_REAL,001,30,
pratique/fcloud80-20_D1_30,1.0,2,0,9,9,9,,,,,,,,,,,,,,,,,,,,,,,2,None,,3,2.934,,,,,,,,,,,,,,,,,,2019_Mar_28_1706,60.66705855577804,Cloud_Experiment_FR_REAL,001,30,
,,,,,,,,,,,,,,,,,,,,,,,,,,,,,,,,,,5,,,,,,,,,,,,,,,,,2019_Mar_28_1706,60.66705855577804,Cloud_Experiment_FR_REAL,001,30,
,,,,,,,,,,,,,,,,,,,,,,,,,,,,,,,,,,,6,,,,,,,,,,,,,,,,2019_Mar_28_1706,60.66705855577804,Cloud_Experiment_FR_REAL,001,30,
,,,,,,,,,,,,,,,,,,,,,,,,,,,,,,,,,,,,4,,,,,,,,,,,,,,,2019_Mar_28_1706,60.66705855577804,Cloud_Experiment_FR_REAL,001,30,
,,,,,,,,,,,,,,,,,,,,,,,,,,,,,,,,,,,,,4,,,,,,,,,,,,,,2019_Mar_28_1706,60.66705855577804,Cloud_Experiment_FR_REAL,001,30,
,,,,,,,,,,,,,,,,,,,,,,,,,,,,,,,,,,,,,,5,,,,,,,,,,,,,2019_Mar_28_1706,60.66705855577804,Cloud_Experiment_FR_REAL,001,30,
,,,,,,,,,,,,,,,,,,,,,,,,,,,,,,,,,,,,,,,6,,,,,,,,,,,,2019_Mar_28_1706,60.66705855577804,Cloud_Experiment_FR_REAL,001,30,
,,,,,,,,,,,,,,,,,,,,,,,,,,,,,,,,,,,,,,,,4,,,,,,,,,,,2019_Mar_28_1706,60.66705855577804,Cloud_Experiment_FR_REAL,001,30,
,,,,,,,,,,,,,,,,,,,,,,,,,,,,,,,,,,,,,,,,,7,,,,,,,,,,2019_Mar_28_1706,60.66705855577804,Cloud_Experiment_FR_REAL,001,30,
,,,,,,,,,,,,,,,,,,,,,,,,,,,,,,,,,,,,,,,,,,7,,,,,,,,,2019_Mar_28_1706,60.66705855577804,Cloud_Experiment_FR_REAL,001,30,
,,,,,,,,,,,,,,,,,,,,,,,,,,,,,,,,,,,,,,,,,,,2,,,,,,,,2019_Mar_28_1706,60.66705855577804,Cloud_Experiment_FR_REAL,001,30,
,,,,,,,,,,,,,,,,,,,,,,,,,,,,,,,,,,,,,,,,,,,,space,4.8322860999,,,,,,2019_Mar_28_1706,60.66705855577804,Cloud_Experiment_FR_REAL,001,30,
images/fcloud65-35_D1.2_3.tif,1.2,1,,,,,0,0,0,50,,,,,,,,,,,,,,,,,,,2,space,5.77059780003,3,5.63,,,,,,,,,,,,,,,,,,2019_Mar_28_1706,60.66705855577804,Cloud_Experiment_FR_REAL,001,30,
images/fcloud80-20_D1_3.tif,1.0,2,,,,,0,1,1,80,,,,,,,,,,,,,,,,,,,1,space,11.5010109,2,2.7,,,,,,,,,,,,,,,,,,2019_Mar_28_1706,60.66705855577804,Cloud_Experiment_FR_REAL,001,30,
images/fcloud80-20_D1.1_1.tif,1.1,2,,,,,0,2,2,81,,,,,,,,,,,,,,,,,,,2,None,,2,1.67,,,,,,,,,,,,,,,,,,2019_Mar_28_1706,60.66705855577804,Cloud_Experiment_FR_REAL,001,30,
images/fcloud65-35_D1.3_2.tif,1.3,1,,,,,0,3,3,52,,,,,,,,,,,,,,,,,,,2,None,,3,5.915,,,,,,,,,,,,,,,,,,2019_Mar_28_1706,60.66705855577804,Cloud_Experiment_FR_REAL,001,30,
images/fcloud_D1.6_1.tif,1.6,0,,,,,0,4,4,24,,,,,,,,,,,,,,,,,,,2,space,3.52212049998,3,1.75,,,,,,,,,,,,,,,,,,2019_Mar_28_1706,60.66705855577804,Cloud_Experiment_FR_REAL,001,30,
images/fcloud_D1.6_3.tif,1.6,0,,,,,0,5,5,26,,,,,,,,,,,,,,,,,,,2,space,2.1966574,4,3.699,,,,,,,,,,,,,,,,,,2019_Mar_28_1706,60.66705855577804,Cloud_Experiment_FR_REAL,001,30,
images/fcloud_D1_3.tif,1.0,0,,,,,0,6,6,8,,,,,,,,,,,,,,,,,,,1,space,8.03732250002,2,0.818,,,,,,,,,,,,,,,,,,2019_Mar_28_1706,60.66705855577804,Cloud_Experiment_FR_REAL,001,30,
images/fcloud80-20_D1.9_1.tif,1.9,2,,,,,0,7,7,105,,,,,,,,,,,,,,,,,,,None,None,,None,9.927,,,,,,,,,,,,,,,,,,2019_Mar_28_1706,60.66705855577804,Cloud_Experiment_FR_REAL,001,30,
images/fcloud65-35_D1.3_1.tif,1.3,1,,,,,0,8,8,51,,,,,,,,,,,,,,,,,,,1,None,,1,1.151,,,,,,,,,,,,,,,,,,2019_Mar_28_1706,60.66705855577804,Cloud_Experiment_FR_REAL,001,30,
images/fcloud80-20_D1.3_2.tif,1.3,2,,,,,0,9,9,88,,,,,,,,,,,,,,,,,,,None,None,,None,10.174,,,,,,,,,,,,,,,,,,2019_Mar_28_1706,60.66705855577804,Cloud_Experiment_FR_REAL,001,30,
images/fcloud_D1_1.tif,1.0,0,,,,,0,10,10,6,,,,,,,,,,,,,,,,,,,2,space,6.17733440001,4,1.302,,,,,,,,,,,,,,,,,,2019_Mar_28_1706,60.66705855577804,Cloud_Experiment_FR_REAL,001,30,
images/fcloud65-35_D1.5_2.tif,1.5,1,,,,,0,11,11,58,,,,,,,,,,,,,,,,,,,None,None,,None,10.492,,,,,,,,,,,,,,,,,,2019_Mar_28_1706,60.66705855577804,Cloud_Experiment_FR_REAL,001,30,
images/fcloud65-35_D1.9_3.tif,1.9,1,,,,,0,12,12,71,,,,,,,,,,,,,,,,,,,1,None,,1,0.686,,,,,,,,,,,,,,,,,,2019_Mar_28_1706,60.66705855577804,Cloud_Experiment_FR_REAL,001,30,
images/fcloud_D1.3_1.tif,1.3,0,,,,,0,13,13,15,,,,,,,,,,,,,,,,,,,3,space,2.14812629996,4,3.583,,,,,,,,,,,,,,,,,,2019_Mar_28_1706,60.66705855577804,Cloud_Experiment_FR_REAL,001,30,
images/fcloud65-35_D1_2.tif,1.0,1,,,,,0,14,14,43,,,,,,,,,,,,,,,,,,,1,None,,1,0.635,,,,,,,,,,,,,,,,,,2019_Mar_28_1706,60.66705855577804,Cloud_Experiment_FR_REAL,001,30,
images/fcloud_D0.9_1.tif,0.9,0,,,,,0,15,15,3,,,,,,,,,,,,,,,,,,,1,space,5.58865460008,1,1.034,,,,,,,,,,,,,,,,,,2019_Mar_28_1706,60.66705855577804,Cloud_Experiment_FR_REAL,001,30,
images/fcloud65-35_D1.5_1.tif,1.5,1,,,,,0,16,16,57,,,,,,,,,,,,,,,,,,,1,space,5.87666469999,3,0.851,,,,,,,,,,,,,,,,,,2019_Mar_28_1706,60.66705855577804,Cloud_Experiment_FR_REAL,001,30,
images/fcloud_D1.9_1.tif,1.9,0,,,,,0,17,17,33,,,,,,,,,,,,,,,,,,,None,None,,None,11.074,,,,,,,,,,,,,,,,,,2019_Mar_28_1706,60.66705855577804,Cloud_Experiment_FR_REAL,001,30,
images/fcloud_D1.8_1.tif,1.8,0,,,,,0,18,18,30,,,,,,,,,,,,,,,,,,,None,None,,None,20.666,,,,,,,,,,,,,,,,,,2019_Mar_28_1706,60.66705855577804,Cloud_Experiment_FR_REAL,001,30,
images/fcloud_D1.5_1.tif,1.5,0,,,,,0,19,19,21,,,,,,,,,,,,,,,,,,,1,space,3.03016019997,5,1.418,,,,,,,,,,,,,,,,,,2019_Mar_28_1706,60.66705855577804,Cloud_Experiment_FR_REAL,001,30,
images/fcloud80-20_D0.8_2.tif,0.8,2,,,,,0,20,20,73,,,,,,,,,,,,,,,,,,,1,space,5.58536989999,3,1.716,,,,,,,,,,,,,,,,,,2019_Mar_28_1706,60.66705855577804,Cloud_Experiment_FR_REAL,001,30,
images/fcloud_D1.5_3.tif,1.5,0,,,,,0,21,21,23,,,,,,,,,,,,,,,,,,,None,None,,None,10.991,,,,,,,,,,,,,,,,,,2019_Mar_28_1706,60.66705855577804,Cloud_Experiment_FR_REAL,001,30,
images/fcloud80-20_D1_1.tif,1.0,2,,,,,0,22,22,78,,,,,,,,,,,,,,,,,,,1,space,4.86139380001,5,1.534,,,,,,,,,,,,,,,,,,2019_Mar_28_1706,60.66705855577804,Cloud_Experiment_FR_REAL,001,30,
images/fcloud65-35_D1.8_2.tif,1.8,1,,,,,0,23,23,67,,,,,,,,,,,,,,,,,,,1,space,6.69787370006,2,0.884,,,,,,,,,,,,,,,,,,2019_Mar_28_1706,60.66705855577804,Cloud_Experiment_FR_REAL,001,30,
images/fcloud80-20_D1.7_1.tif,1.7,2,,,,,0,24,24,99,,,,,,,,,,,,,,,,,,,None,None,,None,10.66,,,,,,,,,,,,,,,,,,2019_Mar_28_1706,60.66705855577804,Cloud_Experiment_FR_REAL,001,30,
images/fcloud65-35_D0.8_1.tif,0.8,1,,,,,0,25,25,36,,,,,,,,,,,,,,,,,,,3,space,2.11868279998,3,2.2,,,,,,,,,,,,,,,,,,2019_Mar_28_1706,60.66705855577804,Cloud_Experiment_FR_REAL,001,30,
images/fcloud_D1.9_3.tif,1.9,0,,,,,0,26,26,35,,,,,,,,,,,,,,,,,,,1,space,4.49251620006,4,0.819,,,,,,,,,,,,,,,,,,2019_Mar_28_1706,60.66705855577804,Cloud_Experiment_FR_REAL,001,30,
images/fcloud65-35_D1.5_3.tif,1.5,1,,,,,0,27,27,59,,,,,,,,,,,,,,,,,,,2,space,3.38083729998,4,5.547,,,,,,,,,,,,,,,,,,2019_Mar_28_1706,60.66705855577804,Cloud_Experiment_FR_REAL,001,30,
images/fcloud_D1.5_2.tif,1.5,0,,,,,0,28,28,22,,,,,,,,,,,,,,,,,,,1,space,5.68901960005,2,0.734,,,,,,,,,,,,,,,,,,2019_Mar_28_1706,60.66705855577804,Cloud_Experiment_FR_REAL,001,30,
images/fcloud65-35_D1.4_3.tif,1.4,1,,,,,0,29,29,56,,,,,,,,,,,,,,,,,,,2,None,,3,1.251,,,,,,,,,,,,,,,,,,2019_Mar_28_1706,60.66705855577804,Cloud_Experiment_FR_REAL,001,30,
images/fcloud80-20_D1.4_2.tif,1.4,2,,,,,0,30,30,91,,,,,,,,,,,,,,,,,,,1,space,7.02060050005,1,0.651,,,,,,,,,,,,,,,,,,2019_Mar_28_1706,60.66705855577804,Cloud_Experiment_FR_REAL,001,30,
images/fcloud65-35_D1.7_1.tif,1.7,1,,,,,0,31,31,63,,,,,,,,,,,,,,,,,,,1,space,7.82400329993,2,0.786,,,,,,,,,,,,,,,,,,2019_Mar_28_1706,60.66705855577804,Cloud_Experiment_FR_REAL,001,30,
images/fcloud80-20_D1.7_2.tif,1.7,2,,,,,0,32,32,100,,,,,,,,,,,,,,,,,,,1,space,7.22089430003,1,0.871,,,,,,,,,,,,,,,,,,2019_Mar_28_1706,60.66705855577804,Cloud_Experiment_FR_REAL,001,30,
images/fcloud65-35_D1.6_2.tif,1.6,1,,,,,0,33,33,61,,,,,,,,,,,,,,,,,,,2,space,4.28492160002,1,4.331,,,,,,,,,,,,,,,,,,2019_Mar_28_1706,60.66705855577804,Cloud_Experiment_FR_REAL,001,30,
images/fcloud_D1.2_1.tif,1.2,0,,,,,0,34,34,12,,,,,,,,,,,,,,,,,,,None,None,,None,13.789,,,,,,,,,,,,,,,,,,2019_Mar_28_1706,60.66705855577804,Cloud_Experiment_FR_REAL,001,30,
images/fcloud80-20_D1.4_1.tif,1.4,2,,,,,0,35,35,90,,,,,,,,,,,,,,,,,,,1,space,7.76655239996,1,0.853,,,,,,,,,,,,,,,,,,2019_Mar_28_1706,60.66705855577804,Cloud_Experiment_FR_REAL,001,30,
images/fcloud65-35_D1.1_1.tif,1.1,1,,,,,0,36,36,45,,,,,,,,,,,,,,,,,,,1,space,5.36139530002,1,0.637,,,,,,,,,,,,,,,,,,2019_Mar_28_1706,60.66705855577804,Cloud_Experiment_FR_REAL,001,30,
images/fcloud65-35_D1.9_1.tif,1.9,1,,,,,0,37,37,69,,,,,,,,,,,,,,,,,,,2,space,6.30903629994,2,1.368,,,,,,,,,,,,,,,,,,2019_Mar_28_1706,60.66705855577804,Cloud_Experiment_FR_REAL,001,30,
images/fcloud80-20_D1.8_3.tif,1.8,2,,,,,0,38,38,104,,,,,,,,,,,,,,,,,,,1,space,5.71359860001,1,1.3,,,,,,,,,,,,,,,,,,2019_Mar_28_1706,60.66705855577804,Cloud_Experiment_FR_REAL,001,30,
images/fcloud_D0.8_1.tif,0.8,0,,,,,0,39,39,0,,,,,,,,,,,,,,,,,,,2,space,2.73339750001,4,1.767,,,,,,,,,,,,,,,,,,2019_Mar_28_1706,60.66705855577804,Cloud_Experiment_FR_REAL,001,30,
images/fcloud_D1.4_3.tif,1.4,0,,,,,0,40,40,20,,,,,,,,,,,,,,,,,,,3,space,3.09681429993,4,0.902,,,,,,,,,,,,,,,,,,2019_Mar_28_1706,60.66705855577804,Cloud_Experiment_FR_REAL,001,30,
images/fcloud65-35_D0.8_2.tif,0.8,1,,,,,0,41,41,37,,,,,,,,,,,,,,,,,,,1,space,7.63277180004,2,1.634,,,,,,,,,,,,,,,,,,2019_Mar_28_1706,60.66705855577804,Cloud_Experiment_FR_REAL,001,30,
images/fcloud80-20_D1.6_1.tif,1.6,2,,,,,0,42,42,96,,,,,,,,,,,,,,,,,,,None,None,,None,11.142,,,,,,,,,,,,,,,,,,2019_Mar_28_1706,60.66705855577804,Cloud_Experiment_FR_REAL,001,30,
images/fcloud80-20_D0.9_3.tif,0.9,2,,,,,0,43,43,77,,,,,,,,,,,,,,,,,,,2,space,4.85109120002,2,0.934,,,,,,,,,,,,,,,,,,2019_Mar_28_1706,60.66705855577804,Cloud_Experiment_FR_REAL,001,30,
images/fcloud80-20_D1.1_3.tif,1.1,2,,,,,0,44,44,83,,,,,,,,,,,,,,,,,,,2,space,3.95454920002,4,1.601,,,,,,,,,,,,,,,,,,2019_Mar_28_1706,60.66705855577804,Cloud_Experiment_FR_REAL,001,30,
images/fcloud80-20_D1_2.tif,1.0,2,,,,,0,45,45,79,,,,,,,,,,,,,,,,,,,2,space,7.25779119995,3,0.952,,,,,,,,,,,,,,,,,,2019_Mar_28_1706,60.66705855577804,Cloud_Experiment_FR_REAL,001,30,
images/fcloud_D1.2_3.tif,1.2,0,,,,,0,46,46,14,,,,,,,,,,,,,,,,,,,1,space,4.47527279996,2,1.686,,,,,,,,,,,,,,,,,,2019_Mar_28_1706,60.66705855577804,Cloud_Experiment_FR_REAL,001,30,
images/fcloud_D1.3_3.tif,1.3,0,,,,,0,47,47,17,,,,,,,,,,,,,,,,,,,2,space,2.39216380008,3,1.036,,,,,,,,,,,,,,,,,,2019_Mar_28_1706,60.66705855577804,Cloud_Experiment_FR_REAL,001,30,
images/fcloud65-35_D1.6_1.tif,1.6,1,,,,,0,48,48,60,,,,,,,,,,,,,,,,,,,1,space,6.98976979998,1,0.72,,,,,,,,,,,,,,,,,,2019_Mar_28_1706,60.66705855577804,Cloud_Experiment_FR_REAL,001,30,
images/fcloud_D1.2_2.tif,1.2,0,,,,,0,49,49,13,,,,,,,,,,,,,,,,,,,3,space,2.38079259999,5,0.819,,,,,,,,,,,,,,,,,,2019_Mar_28_1706,60.66705855577804,Cloud_Experiment_FR_REAL,001,30,
images/fcloud_D1.7_1.tif,1.7,0,,,,,0,50,50,27,,,,,,,,,,,,,,,,,,,1,None,,1,0.753,,,,,,,,,,,,,,,,,,2019_Mar_28_1706,60.66705855577804,Cloud_Experiment_FR_REAL,001,30,
images/fcloud65-35_D1.6_3.tif,1.6,1,,,,,0,51,51,62,,,,,,,,,,,,,,,,,,,None,None,,None,12.956,,,,,,,,,,,,,,,,,,2019_Mar_28_1706,60.66705855577804,Cloud_Experiment_FR_REAL,001,30,
images/fcloud65-35_D1_1.tif,1.0,1,,,,,0,52,52,42,,,,,,,,,,,,,,,,,,,2,space,3.70389829995,3,0.603,,,,,,,,,,,,,,,,,,2019_Mar_28_1706,60.66705855577804,Cloud_Experiment_FR_REAL,001,30,
images/fcloud80-20_D0.8_1.tif,0.8,2,,,,,0,53,53,72,,,,,,,,,,,,,,,,,,,1,space,6.91652880004,1,0.786,,,,,,,,,,,,,,,,,,2019_Mar_28_1706,60.66705855577804,Cloud_Experiment_FR_REAL,001,30,
images/fcloud_D1.7_3.tif,1.7,0,,,,,0,54,54,29,,,,,,,,,,,,,,,,,,,1,None,,1,0.584,,,,,,,,,,,,,,,,,,2019_Mar_28_1706,60.66705855577804,Cloud_Experiment_FR_REAL,001,30,
images/fcloud65-35_D1_3.tif,1.0,1,,,,,0,55,55,44,,,,,,,,,,,,,,,,,,,1,space,4.07615029998,3,1.419,,,,,,,,,,,,,,,,,,2019_Mar_28_1706,60.66705855577804,Cloud_Experiment_FR_REAL,001,30,
images/fcloud80-20_D1.8_1.tif,1.8,2,,,,,0,56,56,102,,,,,,,,,,,,,,,,,,,1,space,4.75318160001,2,0.851,,,,,,,,,,,,,,,,,,2019_Mar_28_1706,60.66705855577804,Cloud_Experiment_FR_REAL,001,30,
images/fcloud65-35_D1.8_1.tif,1.8,1,,,,,0,57,57,66,,,,,,,,,,,,,,,,,,,1,space,6.42171719996,1,1.019,,,,,,,,,,,,,,,,,,2019_Mar_28_1706,60.66705855577804,Cloud_Experiment_FR_REAL,001,30,
images/fcloud65-35_D1.1_3.tif,1.1,1,,,,,0,58,58,47,,,,,,,,,,,,,,,,,,,3,space,3.63932049996,2,2.017,,,,,,,,,,,,,,,,,,2019_Mar_28_1706,60.66705855577804,Cloud_Experiment_FR_REAL,001,30,
images/fcloud_D1.4_2.tif,1.4,0,,,,,0,59,59,19,,,,,,,,,,,,,,,,,,,None,None,,None,11.608,,,,,,,,,,,,,,,,,,2019_Mar_28_1706,60.66705855577804,Cloud_Experiment_FR_REAL,001,30,
images/fcloud65-35_D1.9_2.tif,1.9,1,,,,,0,60,60,70,,,,,,,,,,,,,,,,,,,1,space,6.73002380005,1,0.684,,,,,,,,,,,,,,,,,,2019_Mar_28_1706,60.66705855577804,Cloud_Experiment_FR_REAL,001,30,
images/fcloud80-20_D1.3_1.tif,1.3,2,,,,,0,61,61,87,,,,,,,,,,,,,,,,,,,1,space,5.97438320005,3,0.734,,,,,,,,,,,,,,,,,,2019_Mar_28_1706,60.66705855577804,Cloud_Experiment_FR_REAL,001,30,
images/fcloud80-20_D0.9_1.tif,0.9,2,,,,,0,62,62,75,,,,,,,,,,,,,,,,,,,None,None,,None,10.326,,,,,,,,,,,,,,,,,,2019_Mar_28_1706,60.66705855577804,Cloud_Experiment_FR_REAL,001,30,
images/fcloud_D1_2.tif,1.0,0,,,,,0,63,63,7,,,,,,,,,,,,,,,,,,,2,space,1.97333089996,4,0.968,,,,,,,,,,,,,,,,,,2019_Mar_28_1706,60.66705855577804,Cloud_Experiment_FR_REAL,001,30,
images/fcloud80-20_D1.5_1.tif,1.5,2,,,,,0,64,64,93,,,,,,,,,,,,,,,,,,,1,space,4.35713220004,2,1.037,,,,,,,,,,,,,,,,,,2019_Mar_28_1706,60.66705855577804,Cloud_Experiment_FR_REAL,001,30,
images/fcloud65-35_D1.7_2.tif,1.7,1,,,,,0,65,65,64,,,,,,,,,,,,,,,,,,,2,space,3.32360850007,3,0.967,,,,,,,,,,,,,,,,,,2019_Mar_28_1706,60.66705855577804,Cloud_Experiment_FR_REAL,001,30,
images/fcloud65-35_D1.3_3.tif,1.3,1,,,,,0,66,66,53,,,,,,,,,,,,,,,,,,,1,space,7.15806540009,4,1.167,,,,,,,,,,,,,,,,,,2019_Mar_28_1706,60.66705855577804,Cloud_Experiment_FR_REAL,001,30,
images/fcloud80-20_D1.6_2.tif,1.6,2,,,,,0,67,67,97,,,,,,,,,,,,,,,,,,,1,space,4.94600989996,2,0.868,,,,,,,,,,,,,,,,,,2019_Mar_28_1706,60.66705855577804,Cloud_Experiment_FR_REAL,001,30,
images/fcloud_D1.3_2.tif,1.3,0,,,,,0,68,68,16,,,,,,,,,,,,,,,,,,,3,space,1.31016619992,4,2.733,,,,,,,,,,,,,,,,,,2019_Mar_28_1706,60.66705855577804,Cloud_Experiment_FR_REAL,001,30,
images/fcloud_D1.1_1.tif,1.1,0,,,,,0,69,69,9,,,,,,,,,,,,,,,,,,,1,space,6.65822470002,1,0.668,,,,,,,,,,,,,,,,,,2019_Mar_28_1706,60.66705855577804,Cloud_Experiment_FR_REAL,001,30,
images/fcloud80-20_D1.6_3.tif,1.6,2,,,,,0,70,70,98,,,,,,,,,,,,,,,,,,,1,space,6.9875570999,3,0.601,,,,,,,,,,,,,,,,,,2019_Mar_28_1706,60.66705855577804,Cloud_Experiment_FR_REAL,001,30,
images/fcloud65-35_D0.9_2.tif,0.9,1,,,,,0,71,71,40,,,,,,,,,,,,,,,,,,,1,space,4.99948480004,3,0.717,,,,,,,,,,,,,,,,,,2019_Mar_28_1706,60.66705855577804,Cloud_Experiment_FR_REAL,001,30,
images/fcloud80-20_D0.8_3.tif,0.8,2,,,,,0,72,72,74,,,,,,,,,,,,,,,,,,,1,space,2.8817423,1,0.719,,,,,,,,,,,,,,,,,,2019_Mar_28_1706,60.66705855577804,Cloud_Experiment_FR_REAL,001,30,
images/fcloud_D1.8_2.tif,1.8,0,,,,,0,73,73,31,,,,,,,,,,,,,,,,,,,2,None,,2,2.285,,,,,,,,,,,,,,,,,,2019_Mar_28_1706,60.66705855577804,Cloud_Experiment_FR_REAL,001,30,
images/fcloud65-35_D1.2_1.tif,1.2,1,,,,,0,74,74,48,,,,,,,,,,,,,,,,,,,2,space,4.04306479997,3,0.901,,,,,,,,,,,,,,,,,,2019_Mar_28_1706,60.66705855577804,Cloud_Experiment_FR_REAL,001,30,
images/fcloud_D1.7_2.tif,1.7,0,,,,,0,75,75,28,,,,,,,,,,,,,,,,,,,1,None,,1,0.635,,,,,,,,,,,,,,,,,,2019_Mar_28_1706,60.66705855577804,Cloud_Experiment_FR_REAL,001,30,
images/fcloud80-20_D1.2_3.tif,1.2,2,,,,,0,76,76,86,,,,,,,,,,,,,,,,,,,1,space,4.79053,3,0.703,,,,,,,,,,,,,,,,,,2019_Mar_28_1706,60.66705855577804,Cloud_Experiment_FR_REAL,001,30,
images/fcloud65-35_D0.8_3.tif,0.8,1,,,,,0,77,77,38,,,,,,,,,,,,,,,,,,,1,space,4.0854021,1,1.184,,,,,,,,,,,,,,,,,,2019_Mar_28_1706,60.66705855577804,Cloud_Experiment_FR_REAL,001,30,
images/fcloud65-35_D0.9_3.tif,0.9,1,,,,,0,78,78,41,,,,,,,,,,,,,,,,,,,1,space,4.52809070004,2,0.604,,,,,,,,,,,,,,,,,,2019_Mar_28_1706,60.66705855577804,Cloud_Experiment_FR_REAL,001,30,
images/fcloud80-20_D1.4_3.tif,1.4,2,,,,,0,79,79,92,,,,,,,,,,,,,,,,,,,None,None,,None,10.444,,,,,,,,,,,,,,,,,,2019_Mar_28_1706,60.66705855577804,Cloud_Experiment_FR_REAL,001,30,
images/fcloud80-20_D0.9_2.tif,0.9,2,,,,,0,80,80,76,,,,,,,,,,,,,,,,,,,2,space,3.24298450002,3,1.018,,,,,,,,,,,,,,,,,,2019_Mar_28_1706,60.66705855577804,Cloud_Experiment_FR_REAL,001,30,
images/fcloud_D1.8_3.tif,1.8,0,,,,,0,81,81,32,,,,,,,,,,,,,,,,,,,2,space,4.56027979997,2,0.851,,,,,,,,,,,,,,,,,,2019_Mar_28_1706,60.66705855577804,Cloud_Experiment_FR_REAL,001,30,
images/fcloud80-20_D1.5_2.tif,1.5,2,,,,,0,82,82,94,,,,,,,,,,,,,,,,,,,None,None,,None,10.259,,,,,,,,,,,,,,,,,,2019_Mar_28_1706,60.66705855577804,Cloud_Experiment_FR_REAL,001,30,
images/fcloud_D0.8_3.tif,0.8,0,,,,,0,83,83,2,,,,,,,,,,,,,,,,,,,4,None,,4,1.752,,,,,,,,,,,,,,,,,,2019_Mar_28_1706,60.66705855577804,Cloud_Experiment_FR_REAL,001,30,
images/fcloud65-35_D0.9_1.tif,0.9,1,,,,,0,84,84,39,,,,,,,,,,,,,,,,,,,2,space,2.82104010007,3,0.77,,,,,,,,,,,,,,,,,,2019_Mar_28_1706,60.66705855577804,Cloud_Experiment_FR_REAL,001,30,
images/fcloud80-20_D1.8_2.tif,1.8,2,,,,,0,85,85,103,,,,,,,,,,,,,,,,,,,1,None,,1,0.685,,,,,,,,,,,,,,,,,,2019_Mar_28_1706,60.66705855577804,Cloud_Experiment_FR_REAL,001,30,
images/fcloud_D1.1_2.tif,1.1,0,,,,,0,86,86,10,,,,,,,,,,,,,,,,,,,1,space,6.05801019992,2,0.774,,,,,,,,,,,,,,,,,,2019_Mar_28_1706,60.66705855577804,Cloud_Experiment_FR_REAL,001,30,
images/fcloud_D1.4_1.tif,1.4,0,,,,,0,87,87,18,,,,,,,,,,,,,,,,,,,2,space,3.31336540007,3,1.119,,,,,,,,,,,,,,,,,,2019_Mar_28_1706,60.66705855577804,Cloud_Experiment_FR_REAL,001,30,
images/fcloud80-20_D1.7_3.tif,1.7,2,,,,,0,88,88,101,,,,,,,,,,,,,,,,,,,2,space,3.49328049994,3,0.585,,,,,,,,,,,,,,,,,,2019_Mar_28_1706,60.66705855577804,Cloud_Experiment_FR_REAL,001,30,
images/fcloud_D1.9_2.tif,1.9,0,,,,,0,89,89,34,,,,,,,,,,,,,,,,,,,1,space,4.55533460004,1,2.35,,,,,,,,,,,,,,,,,,2019_Mar_28_1706,60.66705855577804,Cloud_Experiment_FR_REAL,001,30,
images/fcloud65-35_D1.7_3.tif,1.7,1,,,,,0,90,90,65,,,,,,,,,,,,,,,,,,,None,None,,None,11.873,,,,,,,,,,,,,,,,,,2019_Mar_28_1706,60.66705855577804,Cloud_Experiment_FR_REAL,001,30,
images/fcloud80-20_D1.2_2.tif,1.2,2,,,,,0,91,91,85,,,,,,,,,,,,,,,,,,,3,space,1.54007980006,3,1.234,,,,,,,,,,,,,,,,,,2019_Mar_28_1706,60.66705855577804,Cloud_Experiment_FR_REAL,001,30,
images/fcloud65-35_D1.4_1.tif,1.4,1,,,,,0,92,92,54,,,,,,,,,,,,,,,,,,,3,space,5.47740560002,2,0.701,,,,,,,,,,,,,,,,,,2019_Mar_28_1706,60.66705855577804,Cloud_Experiment_FR_REAL,001,30,
images/fcloud65-35_D1.2_2.tif,1.2,1,,,,,0,93,93,49,,,,,,,,,,,,,,,,,,,2,space,6.11092000001,1,0.601,,,,,,,,,,,,,,,,,,2019_Mar_28_1706,60.66705855577804,Cloud_Experiment_FR_REAL,001,30,
images/fcloud80-20_D1.9_2.tif,1.9,2,,,,,0,94,94,106,,,,,,,,,,,,,,,,,,,1,space,6.02149039996,2,0.653,,,,,,,,,,,,,,,,,,2019_Mar_28_1706,60.66705855577804,Cloud_Experiment_FR_REAL,001,30,
images/fcloud65-35_D1.8_3.tif,1.8,1,,,,,0,95,95,68,,,,,,,,,,,,,,,,,,,1,space,5.33482450002,1,0.551,,,,,,,,,,,,,,,,,,2019_Mar_28_1706,60.66705855577804,Cloud_Experiment_FR_REAL,001,30,
images/fcloud80-20_D1.2_1.tif,1.2,2,,,,,0,96,96,84,,,,,,,,,,,,,,,,,,,None,None,,None,11.075,,,,,,,,,,,,,,,,,,2019_Mar_28_1706,60.66705855577804,Cloud_Experiment_FR_REAL,001,30,
images/fcloud_D1.6_2.tif,1.6,0,,,,,0,97,97,25,,,,,,,,,,,,,,,,,,,4,space,3.00527819991,3,2.534,,,,,,,,,,,,,,,,,,2019_Mar_28_1706,60.66705855577804,Cloud_Experiment_FR_REAL,001,30,
images/fcloud65-35_D1.1_2.tif,1.1,1,,,,,0,98,98,46,,,,,,,,,,,,,,,,,,,1,space,7.27110220003,3,0.735,,,,,,,,,,,,,,,,,,2019_Mar_28_1706,60.66705855577804,Cloud_Experiment_FR_REAL,001,30,
images/fcloud80-20_D1.3_3.tif,1.3,2,,,,,0,99,99,89,,,,,,,,,,,,,,,,,,,1,None,,2,0.785,,,,,,,,,,,,,,,,,,2019_Mar_28_1706,60.66705855577804,Cloud_Experiment_FR_REAL,001,30,
images/fcloud_D1.1_3.tif,1.1,0,,,,,0,100,100,11,,,,,,,,,,,,,,,,,,,2,None,,3,0.886,,,,,,,,,,,,,,,,,,2019_Mar_28_1706,60.66705855577804,Cloud_Experiment_FR_REAL,001,30,
images/fcloud_D0.9_2.tif,0.9,0,,,,,0,101,101,4,,,,,,,,,,,,,,,,,,,3,space,1.52358959999,4,2.416,,,,,,,,,,,,,,,,,,2019_Mar_28_1706,60.66705855577804,Cloud_Experiment_FR_REAL,001,30,
images/fcloud80-20_D1.1_2.tif,1.1,2,,,,,0,102,102,82,,,,,,,,,,,,,,,,,,,1,None,,1,0.586,,,,,,,,,,,,,,,,,,2019_Mar_28_1706,60.66705855577804,Cloud_Experiment_FR_REAL,001,30,
images/fcloud65-35_D1.4_2.tif,1.4,1,,,,,0,103,103,55,,,,,,,,,,,,,,,,,,,1,space,3.04647150007,1,0.834,,,,,,,,,,,,,,,,,,2019_Mar_28_1706,60.66705855577804,Cloud_Experiment_FR_REAL,001,30,
images/fcloud_D0.9_3.tif,0.9,0,,,,,0,104,104,5,,,,,,,,,,,,,,,,,,,2,None,,3,0.983,,,,,,,,,,,,,,,,,,2019_Mar_28_1706,60.66705855577804,Cloud_Experiment_FR_REAL,001,30,
images/fcloud_D0.8_2.tif,0.8,0,,,,,0,105,105,1,,,,,,,,,,,,,,,,,,,3,space,1.81471489999,3,1.434,,,,,,,,,,,,,,,,,,2019_Mar_28_1706,60.66705855577804,Cloud_Experiment_FR_REAL,001,30,
images/fcloud80-20_D1.5_3.tif,1.5,2,,,,,0,106,106,95,,,,,,,,,,,,,,,,,,,None,None,,None,10.91,,,,,,,,,,,,,,,,,,2019_Mar_28_1706,60.66705855577804,Cloud_Experiment_FR_REAL,001,30,
images/fcloud80-20_D1.9_3.tif,1.9,2,,,,,0,107,107,107,,,,,,,,,,,,,,,,,,,None,None,,None,19.849,,,,,,,,,,,,,,,,,,2019_Mar_28_1706,60.66705855577804,Cloud_Experiment_FR_REAL,001,30,
,,,,,,,,,,,,,,,,,,,,,,,,,,,,,,,,,,,,,,,,,,,,,,space,4.46108789998,,,,2019_Mar_28_1706,60.66705855577804,Cloud_Experiment_FR_REAL,001,30,
,,,,,,,,,,,,,,,,,,,,,,,,,6,13.716,,,,,,,,,,,,,,,,,,,,,,,,,2019_Mar_28_1706,60.66705855577804,Cloud_Experiment_FR_REAL,001,30,
,,,,,,,,,,,,,,,,,,,,,,,,,,,,,,,,,,4,,,,,,,,,,,,,,,,,2019_Mar_28_1706,60.66705855577804,Cloud_Experiment_FR_REAL,001,30,
,,,,,,,,,,,,,,,,,,,,,,,,,,,,,,,,,,,5,,,,,,,,,,,,,,,,2019_Mar_28_1706,60.66705855577804,Cloud_Experiment_FR_REAL,001,30,
,,,,,,,,,,,,,,,,,,,,,,,,,,,,,,,,,,,,4,,,,,,,,,,,,,,,2019_Mar_28_1706,60.66705855577804,Cloud_Experiment_FR_REAL,001,30,
,,,,,,,,,,,,,,,,,,,,,,,,,,,,,,,,,,,,,3,,,,,,,,,,,,,,2019_Mar_28_1706,60.66705855577804,Cloud_Experiment_FR_REAL,001,30,
,,,,,,,,,,,,,,,,,,,,,,,,,,,,,,,,,,,,,,3,,,,,,,,,,,,,2019_Mar_28_1706,60.66705855577804,Cloud_Experiment_FR_REAL,001,30,
,,,,,,,,,,,,,,,,,,,,,,,,,,,,,,,,,,,,,,,4,,,,,,,,,,,,2019_Mar_28_1706,60.66705855577804,Cloud_Experiment_FR_REAL,001,30,
,,,,,,,,,,,,,,,,,,,,,,,,,,,,,,,,,,,,,,,,4,,,,,,,,,,,2019_Mar_28_1706,60.66705855577804,Cloud_Experiment_FR_REAL,001,30,
,,,,,,,,,,,,,,,,,,,,,,,,,,,,,,,,,,,,,,,,,7,,,,,,,,,,2019_Mar_28_1706,60.66705855577804,Cloud_Experiment_FR_REAL,001,30,
,,,,,,,,,,,,,,,,,,,,,,,,,,,,,,,,,,,,,,,,,,7,,,,,,,,,2019_Mar_28_1706,60.66705855577804,Cloud_Experiment_FR_REAL,001,30,
,,,,,,,,,,,,,,,,,,,,,,,,,,,,,,,,,,,,,,,,,,,2,,,,,,,,2019_Mar_28_1706,60.66705855577804,Cloud_Experiment_FR_REAL,001,30,
,,,,,,,,,,,,,,,,,,,,,,,,,,,,,,,,,,,,,,,,,,,,,,,,space,70.8063682,,2019_Mar_28_1706,60.66705855577804,Cloud_Experiment_FR_REAL,001,30,
images/fcloud65-35_D0.9_4.tif,0.9,1,,,,,,,,,0,0,0,39,,,,,,,,,,,,,,,1,None,,4,4.467,,,,,,,,,,,,,,,,,,2019_Mar_28_1706,60.66705855577804,Cloud_Experiment_FR_REAL,001,30,
images/fcloud_D1.4_6.tif,1.4,0,,,,,,,,,0,1,1,20,,,,,,,,,,,,,,,2,space,6.26864909998,3,0.636,,,,,,,,,,,,,,,,,,2019_Mar_28_1706,60.66705855577804,Cloud_Experiment_FR_REAL,001,30,
images/fcloud65-35_D0.9_6.tif,0.9,1,,,,,,,,,0,2,2,41,,,,,,,,,,,,,,,1,space,6.73493979999,2,0.717,,,,,,,,,,,,,,,,,,2019_Mar_28_1706,60.66705855577804,Cloud_Experiment_FR_REAL,001,30,
images/fcloud65-35_D1.7_4.tif,1.7,1,,,,,,,,,0,3,3,63,,,,,,,,,,,,,,,None,None,,None,10.325,,,,,,,,,,,,,,,,,,2019_Mar_28_1706,60.66705855577804,Cloud_Experiment_FR_REAL,001,30,
images/fcloud80-20_D1.5_4.tif,1.5,2,,,,,,,,,0,4,4,93,,,,,,,,,,,,,,,2,space,1.78307580005,2,0.884,,,,,,,,,,,,,,,,,,2019_Mar_28_1706,60.66705855577804,Cloud_Experiment_FR_REAL,001,30,
images/fcloud_D1.7_4.tif,1.7,0,,,,,,,,,0,5,5,27,,,,,,,,,,,,,,,2,space,2.54373239994,4,1.152,,,,,,,,,,,,,,,,,,2019_Mar_28_1706,60.66705855577804,Cloud_Experiment_FR_REAL,001,30,
images/fcloud_D1.5_4.tif,1.5,0,,,,,,,,,0,6,6,21,,,,,,,,,,,,,,,2,space,2.58610039996,4,0.919,,,,,,,,,,,,,,,,,,2019_Mar_28_1706,60.66705855577804,Cloud_Experiment_FR_REAL,001,30,
images/fcloud80-20_D1.3_6.tif,1.3,2,,,,,,,,,0,7,7,89,,,,,,,,,,,,,,,1,space,6.68038079992,1,1.002,,,,,,,,,,,,,,,,,,2019_Mar_28_1706,60.66705855577804,Cloud_Experiment_FR_REAL,001,30,
images/fcloud65-35_D1.7_5.tif,1.7,1,,,,,,,,,0,8,8,64,,,,,,,,,,,,,,,None,None,,None,11.31,,,,,,,,,,,,,,,,,,2019_Mar_28_1706,60.66705855577804,Cloud_Experiment_FR_REAL,001,30,
images/fcloud_D1.7_5.tif,1.7,0,,,,,,,,,0,9,9,28,,,,,,,,,,,,,,,None,None,,None,20.7,,,,,,,,,,,,,,,,,,2019_Mar_28_1706,60.66705855577804,Cloud_Experiment_FR_REAL,001,30,
images/fcloud_D1.9_5.tif,1.9,0,,,,,,,,,0,10,10,34,,,,,,,,,,,,,,,1,space,6.15694290004,1,0.719,,,,,,,,,,,,,,,,,,2019_Mar_28_1706,60.66705855577804,Cloud_Experiment_FR_REAL,001,30,
images/fcloud80-20_D1.3_4.tif,1.3,2,,,,,,,,,0,11,11,87,,,,,,,,,,,,,,,1,space,5.36369699996,2,0.985,,,,,,,,,,,,,,,,,,2019_Mar_28_1706,60.66705855577804,Cloud_Experiment_FR_REAL,001,30,
images/fcloud65-35_D1.9_5.tif,1.9,1,,,,,,,,,0,12,12,70,,,,,,,,,,,,,,,None,None,,None,10.924,,,,,,,,,,,,,,,,,,2019_Mar_28_1706,60.66705855577804,Cloud_Experiment_FR_REAL,001,30,
images/fcloud_D1.7_6.tif,1.7,0,,,,,,,,,0,13,13,29,,,,,,,,,,,,,,,None,None,,None,20.968,,,,,,,,,,,,,,,,,,2019_Mar_28_1706,60.66705855577804,Cloud_Experiment_FR_REAL,001,30,
images/fcloud65-35_D1.8_5.tif,1.8,1,,,,,,,,,0,14,14,67,,,,,,,,,,,,,,,None,None,,None,31.145,,,,,,,,,,,,,,,,,,2019_Mar_28_1706,60.66705855577804,Cloud_Experiment_FR_REAL,001,30,
images/fcloud_D0.9_6.tif,0.9,0,,,,,,,,,0,15,15,5,,,,,,,,,,,,,,,2,space,2.0208081,3,0.87,,,,,,,,,,,,,,,,,,2019_Mar_28_1706,60.66705855577804,Cloud_Experiment_FR_REAL,001,30,
images/fcloud80-20_D1.4_4.tif,1.4,2,,,,,,,,,0,16,16,90,,,,,,,,,,,,,,,1,None,,1,0.751,,,,,,,,,,,,,,,,,,2019_Mar_28_1706,60.66705855577804,Cloud_Experiment_FR_REAL,001,30,
images/fcloud_D0.8_6.tif,0.8,0,,,,,,,,,0,17,17,2,,,,,,,,,,,,,,,2,space,4.62570689991,2,0.834,,,,,,,,,,,,,,,,,,2019_Mar_28_1706,60.66705855577804,Cloud_Experiment_FR_REAL,001,30,
images/fcloud_D1.8_5.tif,1.8,0,,,,,,,,,0,18,18,31,,,,,,,,,,,,,,,1,space,4.47753999999,1,4.514,,,,,,,,,,,,,,,,,,2019_Mar_28_1706,60.66705855577804,Cloud_Experiment_FR_REAL,001,30,
images/fcloud65-35_D1.2_4.tif,1.2,1,,,,,,,,,0,19,19,48,,,,,,,,,,,,,,,None,None,,None,14.209,,,,,,,,,,,,,,,,,,2019_Mar_28_1706,60.66705855577804,Cloud_Experiment_FR_REAL,001,30,
images/fcloud65-35_D1.6_5.tif,1.6,1,,,,,,,,,0,20,20,61,,,,,,,,,,,,,,,None,None,,None,30.445,,,,,,,,,,,,,,,,,,2019_Mar_28_1706,60.66705855577804,Cloud_Experiment_FR_REAL,001,30,
images/fcloud_D1.3_6.tif,1.3,0,,,,,,,,,0,21,21,17,,,,,,,,,,,,,,,1,space,6.87444649998,3,0.637,,,,,,,,,,,,,,,,,,2019_Mar_28_1706,60.66705855577804,Cloud_Experiment_FR_REAL,001,30,
images/fcloud65-35_D1.1_5.tif,1.1,1,,,,,,,,,0,22,22,46,,,,,,,,,,,,,,,1,space,5.23563499993,2,1.22,,,,,,,,,,,,,,,,,,2019_Mar_28_1706,60.66705855577804,Cloud_Experiment_FR_REAL,001,30,
images/fcloud65-35_D1_4.tif,1.0,1,,,,,,,,,0,23,23,42,,,,,,,,,,,,,,,None,None,,None,11.49,,,,,,,,,,,,,,,,,,2019_Mar_28_1706,60.66705855577804,Cloud_Experiment_FR_REAL,001,30,
images/fcloud_D1.6_6.tif,1.6,0,,,,,,,,,0,24,24,26,,,,,,,,,,,,,,,None,None,,None,21.065,,,,,,,,,,,,,,,,,,2019_Mar_28_1706,60.66705855577804,Cloud_Experiment_FR_REAL,001,30,
images/fcloud_D1_4.tif,1.0,0,,,,,,,,,0,25,25,6,,,,,,,,,,,,,,,2,space,4.29194929998,2,0.736,,,,,,,,,,,,,,,,,,2019_Mar_28_1706,60.66705855577804,Cloud_Experiment_FR_REAL,001,30,
images/fcloud_D1.3_4.tif,1.3,0,,,,,,,,,0,26,26,15,,,,,,,,,,,,,,,None,None,,None,10.41,,,,,,,,,,,,,,,,,,2019_Mar_28_1706,60.66705855577804,Cloud_Experiment_FR_REAL,001,30,
images/fcloud80-20_D0.9_5.tif,0.9,2,,,,,,,,,0,27,27,76,,,,,,,,,,,,,,,1,space,3.37066360004,1,1.217,,,,,,,,,,,,,,,,,,2019_Mar_28_1706,60.66705855577804,Cloud_Experiment_FR_REAL,001,30,
images/fcloud65-35_D0.8_4.tif,0.8,1,,,,,,,,,0,28,28,36,,,,,,,,,,,,,,,None,None,,None,11.257,,,,,,,,,,,,,,,,,,2019_Mar_28_1706,60.66705855577804,Cloud_Experiment_FR_REAL,001,30,
images/fcloud80-20_D1.7_6.tif,1.7,2,,,,,,,,,0,29,29,101,,,,,,,,,,,,,,,1,space,7.1726073001,1,0.802,,,,,,,,,,,,,,,,,,2019_Mar_28_1706,60.66705855577804,Cloud_Experiment_FR_REAL,001,30,
images/fcloud80-20_D1_5.tif,1.0,2,,,,,,,,,0,30,30,79,,,,,,,,,,,,,,,2,space,4.72984020005,2,1.284,,,,,,,,,,,,,,,,,,2019_Mar_28_1706,60.66705855577804,Cloud_Experiment_FR_REAL,001,30,
images/fcloud_D1.1_4.tif,1.1,0,,,,,,,,,0,31,31,9,,,,,,,,,,,,,,,2,space,4.26060019992,2,4.849,,,,,,,,,,,,,,,,,,2019_Mar_28_1706,60.66705855577804,Cloud_Experiment_FR_REAL,001,30,
images/fcloud_D1.6_5.tif,1.6,0,,,,,,,,,0,32,32,25,,,,,,,,,,,,,,,1,space,6.85965740005,1,2.133,,,,,,,,,,,,,,,,,,2019_Mar_28_1706,60.66705855577804,Cloud_Experiment_FR_REAL,001,30,
images/fcloud65-35_D1.2_6.tif,1.2,1,,,,,,,,,0,33,33,50,,,,,,,,,,,,,,,None,None,,None,12.691,,,,,,,,,,,,,,,,,,2019_Mar_28_1706,60.66705855577804,Cloud_Experiment_FR_REAL,001,30,
images/fcloud65-35_D1.6_6.tif,1.6,1,,,,,,,,,0,34,34,62,,,,,,,,,,,,,,,1,space,7.27935829991,1,2.85,,,,,,,,,,,,,,,,,,2019_Mar_28_1706,60.66705855577804,Cloud_Experiment_FR_REAL,001,30,
images/fcloud65-35_D1.9_4.tif,1.9,1,,,,,,,,,0,35,35,69,,,,,,,,,,,,,,,None,None,,None,12.34,,,,,,,,,,,,,,,,,,2019_Mar_28_1706,60.66705855577804,Cloud_Experiment_FR_REAL,001,30,
images/fcloud_D1.3_5.tif,1.3,0,,,,,,,,,0,36,36,16,,,,,,,,,,,,,,,3,space,2.40238739992,3,1.602,,,,,,,,,,,,,,,,,,2019_Mar_28_1706,60.66705855577804,Cloud_Experiment_FR_REAL,001,30,
images/fcloud80-20_D0.9_6.tif,0.9,2,,,,,,,,,0,37,37,77,,,,,,,,,,,,,,,1,space,5.1270970999,2,0.585,,,,,,,,,,,,,,,,,,2019_Mar_28_1706,60.66705855577804,Cloud_Experiment_FR_REAL,001,30,
images/fcloud65-35_D1.8_6.tif,1.8,1,,,,,,,,,0,38,38,68,,,,,,,,,,,,,,,1,space,8.21830189996,1,0.652,,,,,,,,,,,,,,,,,,2019_Mar_28_1706,60.66705855577804,Cloud_Experiment_FR_REAL,001,30,
images/fcloud80-20_D1.8_4.tif,1.8,2,,,,,,,,,0,39,39,102,,,,,,,,,,,,,,,1,space,3.09851640009,3,1.52,,,,,,,,,,,,,,,,,,2019_Mar_28_1706,60.66705855577804,Cloud_Experiment_FR_REAL,001,30,
images/fcloud80-20_D1.6_6.tif,1.6,2,,,,,,,,,0,40,40,98,,,,,,,,,,,,,,,None,None,,None,11.259,,,,,,,,,,,,,,,,,,2019_Mar_28_1706,60.66705855577804,Cloud_Experiment_FR_REAL,001,30,
images/fcloud80-20_D1.8_5.tif,1.8,2,,,,,,,,,0,41,41,103,,,,,,,,,,,,,,,None,None,,None,21.566,,,,,,,,,,,,,,,,,,2019_Mar_28_1706,60.66705855577804,Cloud_Experiment_FR_REAL,001,30,
images/fcloud80-20_D1.3_5.tif,1.3,2,,,,,,,,,0,42,42,88,,,,,,,,,,,,,,,1,space,5.9015884999,1,0.552,,,,,,,,,,,,,,,,,,2019_Mar_28_1706,60.66705855577804,Cloud_Experiment_FR_REAL,001,30,
images/fcloud65-35_D0.9_5.tif,0.9,1,,,,,,,,,0,43,43,40,,,,,,,,,,,,,,,1,space,5.72066410002,2,0.801,,,,,,,,,,,,,,,,,,2019_Mar_28_1706,60.66705855577804,Cloud_Experiment_FR_REAL,001,30,
images/fcloud_D0.9_4.tif,0.9,0,,,,,,,,,0,44,44,3,,,,,,,,,,,,,,,1,space,1.91250410001,4,1.085,,,,,,,,,,,,,,,,,,2019_Mar_28_1706,60.66705855577804,Cloud_Experiment_FR_REAL,001,30,
images/fcloud_D1.9_4.tif,1.9,0,,,,,,,,,0,45,45,33,,,,,,,,,,,,,,,1,space,6.47851589997,2,0.667,,,,,,,,,,,,,,,,,,2019_Mar_28_1706,60.66705855577804,Cloud_Experiment_FR_REAL,001,30,
images/fcloud80-20_D0.8_6.tif,0.8,2,,,,,,,,,0,46,46,74,,,,,,,,,,,,,,,None,None,,None,10.724,,,,,,,,,,,,,,,,,,2019_Mar_28_1706,60.66705855577804,Cloud_Experiment_FR_REAL,001,30,
images/fcloud65-35_D1.3_4.tif,1.3,1,,,,,,,,,0,47,47,51,,,,,,,,,,,,,,,1,space,7.34478840011,2,0.669,,,,,,,,,,,,,,,,,,2019_Mar_28_1706,60.66705855577804,Cloud_Experiment_FR_REAL,001,30,
images/fcloud_D1.2_4.tif,1.2,0,,,,,,,,,0,48,48,12,,,,,,,,,,,,,,,1,space,3.87820069992,4,0.854,,,,,,,,,,,,,,,,,,2019_Mar_28_1706,60.66705855577804,Cloud_Experiment_FR_REAL,001,30,
images/fcloud_D1.1_5.tif,1.1,0,,,,,,,,,0,49,49,10,,,,,,,,,,,,,,,4,space,2.43891050003,4,0.919,,,,,,,,,,,,,,,,,,2019_Mar_28_1706,60.66705855577804,Cloud_Experiment_FR_REAL,001,30,
images/fcloud80-20_D1.9_5.tif,1.9,2,,,,,,,,,0,50,50,106,,,,,,,,,,,,,,,1,space,5.25585399999,2,0.951,,,,,,,,,,,,,,,,,,2019_Mar_28_1706,60.66705855577804,Cloud_Experiment_FR_REAL,001,30,
images/fcloud65-35_D1.3_5.tif,1.3,1,,,,,,,,,0,51,51,52,,,,,,,,,,,,,,,1,space,6.49228000001,1,0.884,,,,,,,,,,,,,,,,,,2019_Mar_28_1706,60.66705855577804,Cloud_Experiment_FR_REAL,001,30,
images/fcloud80-20_D1.2_5.tif,1.2,2,,,,,,,,,0,52,52,85,,,,,,,,,,,,,,,1,space,1.25981790002,4,2.516,,,,,,,,,,,,,,,,,,2019_Mar_28_1706,60.66705855577804,Cloud_Experiment_FR_REAL,001,30,
images/fcloud_D1.6_4.tif,1.6,0,,,,,,,,,0,53,53,24,,,,,,,,,,,,,,,2,space,1.97615340003,3,2.316,,,,,,,,,,,,,,,,,,2019_Mar_28_1706,60.66705855577804,Cloud_Experiment_FR_REAL,001,30,
images/fcloud80-20_D1.8_6.tif,1.8,2,,,,,,,,,0,54,54,104,,,,,,,,,,,,,,,None,None,,None,11.691,,,,,,,,,,,,,,,,,,2019_Mar_28_1706,60.66705855577804,Cloud_Experiment_FR_REAL,001,30,
images/fcloud65-35_D1.8_4.tif,1.8,1,,,,,,,,,0,55,55,66,,,,,,,,,,,,,,,2,space,2.7650751,2,2.333,,,,,,,,,,,,,,,,,,2019_Mar_28_1706,60.66705855577804,Cloud_Experiment_FR_REAL,001,30,
images/fcloud80-20_D1.1_5.tif,1.1,2,,,,,,,,,0,56,56,82,,,,,,,,,,,,,,,2,space,5.27572220005,3,0.617,,,,,,,,,,,,,,,,,,2019_Mar_28_1706,60.66705855577804,Cloud_Experiment_FR_REAL,001,30,
images/fcloud65-35_D1.1_4.tif,1.1,1,,,,,,,,,0,57,57,45,,,,,,,,,,,,,,,2,space,1.4639805,4,0.602,,,,,,,,,,,,,,,,,,2019_Mar_28_1706,60.66705855577804,Cloud_Experiment_FR_REAL,001,30,
images/fcloud80-20_D1.7_4.tif,1.7,2,,,,,,,,,0,58,58,99,,,,,,,,,,,,,,,None,None,,None,9.96,,,,,,,,,,,,,,,,,,2019_Mar_28_1706,60.66705855577804,Cloud_Experiment_FR_REAL,001,30,
images/fcloud65-35_D1.4_4.tif,1.4,1,,,,,,,,,0,59,59,54,,,,,,,,,,,,,,,1,space,5.30503049993,2,0.868,,,,,,,,,,,,,,,,,,2019_Mar_28_1706,60.66705855577804,Cloud_Experiment_FR_REAL,001,30,
images/fcloud_D1.5_5.tif,1.5,0,,,,,,,,,0,60,60,22,,,,,,,,,,,,,,,3,space,5.09354310005,2,0.868,,,,,,,,,,,,,,,,,,2019_Mar_28_1706,60.66705855577804,Cloud_Experiment_FR_REAL,001,30,
images/fcloud_D0.9_5.tif,0.9,0,,,,,,,,,0,61,61,4,,,,,,,,,,,,,,,3,space,2.76205069991,2,1.235,,,,,,,,,,,,,,,,,,2019_Mar_28_1706,60.66705855577804,Cloud_Experiment_FR_REAL,001,30,
images/fcloud65-35_D1.4_6.tif,1.4,1,,,,,,,,,0,62,62,56,,,,,,,,,,,,,,,None,None,,None,10.31,,,,,,,,,,,,,,,,,,2019_Mar_28_1706,60.66705855577804,Cloud_Experiment_FR_REAL,001,30,
images/fcloud80-20_D1.2_6.tif,1.2,2,,,,,,,,,0,63,63,86,,,,,,,,,,,,,,,None,None,,None,21.133,,,,,,,,,,,,,,,,,,2019_Mar_28_1706,60.66705855577804,Cloud_Experiment_FR_REAL,001,30,
images/fcloud80-20_D1.9_6.tif,1.9,2,,,,,,,,,0,64,64,107,,,,,,,,,,,,,,,3,space,3.91769149993,1,0.721,,,,,,,,,,,,,,,,,,2019_Mar_28_1706,60.66705855577804,Cloud_Experiment_FR_REAL,001,30,
images/fcloud_D1.4_4.tif,1.4,0,,,,,,,,,0,65,65,18,,,,,,,,,,,,,,,2,space,3.21984679997,3,1.101,,,,,,,,,,,,,,,,,,2019_Mar_28_1706,60.66705855577804,Cloud_Experiment_FR_REAL,001,30,
images/fcloud80-20_D1_4.tif,1.0,2,,,,,,,,,0,66,66,78,,,,,,,,,,,,,,,1,space,7.7628577,1,0.701,,,,,,,,,,,,,,,,,,2019_Mar_28_1706,60.66705855577804,Cloud_Experiment_FR_REAL,001,30,
images/fcloud65-35_D1.5_4.tif,1.5,1,,,,,,,,,0,67,67,57,,,,,,,,,,,,,,,1,space,5.17475790007,1,0.984,,,,,,,,,,,,,,,,,,2019_Mar_28_1706,60.66705855577804,Cloud_Experiment_FR_REAL,001,30,
images/fcloud80-20_D1.1_6.tif,1.1,2,,,,,,,,,0,68,68,83,,,,,,,,,,,,,,,None,None,,None,10.476,,,,,,,,,,,,,,,,,,2019_Mar_28_1706,60.66705855577804,Cloud_Experiment_FR_REAL,001,30,
images/fcloud65-35_D1.5_5.tif,1.5,1,,,,,,,,,0,69,69,58,,,,,,,,,,,,,,,None,None,,None,19.652,,,,,,,,,,,,,,,,,,2019_Mar_28_1706,60.66705855577804,Cloud_Experiment_FR_REAL,001,30,
images/fcloud65-35_D1.6_4.tif,1.6,1,,,,,,,,,0,70,70,60,,,,,,,,,,,,,,,1,space,1.68463419995,2,0.818,,,,,,,,,,,,,,,,,,2019_Mar_28_1706,60.66705855577804,Cloud_Experiment_FR_REAL,001,30,
images/fcloud80-20_D1.5_5.tif,1.5,2,,,,,,,,,0,71,71,94,,,,,,,,,,,,,,,1,space,7.83243209997,3,1.251,,,,,,,,,,,,,,,,,,2019_Mar_28_1706,60.66705855577804,Cloud_Experiment_FR_REAL,001,30,
images/fcloud80-20_D1.6_4.tif,1.6,2,,,,,,,,,0,72,72,96,,,,,,,,,,,,,,,1,space,7.10642329999,1,1.352,,,,,,,,,,,,,,,,,,2019_Mar_28_1706,60.66705855577804,Cloud_Experiment_FR_REAL,001,30,
images/fcloud_D1.2_6.tif,1.2,0,,,,,,,,,0,73,73,14,,,,,,,,,,,,,,,4,space,1.79523190006,4,1.8,,,,,,,,,,,,,,,,,,2019_Mar_28_1706,60.66705855577804,Cloud_Experiment_FR_REAL,001,30,
images/fcloud_D1.4_5.tif,1.4,0,,,,,,,,,0,74,74,19,,,,,,,,,,,,,,,None,None,,None,25.994,,,,,,,,,,,,,,,,,,2019_Mar_28_1706,60.66705855577804,Cloud_Experiment_FR_REAL,001,30,
images/fcloud80-20_D1.5_6.tif,1.5,2,,,,,,,,,0,75,75,95,,,,,,,,,,,,,,,1,space,2.83728380001,3,0.901,,,,,,,,,,,,,,,,,,2019_Mar_28_1706,60.66705855577804,Cloud_Experiment_FR_REAL,001,30,
images/fcloud65-35_D1.2_5.tif,1.2,1,,,,,,,,,0,76,76,49,,,,,,,,,,,,,,,1,space,4.6000336,2,2.219,,,,,,,,,,,,,,,,,,2019_Mar_28_1706,60.66705855577804,Cloud_Experiment_FR_REAL,001,30,
images/fcloud80-20_D1.1_4.tif,1.1,2,,,,,,,,,0,77,77,81,,,,,,,,,,,,,,,1,None,,1,0.669,,,,,,,,,,,,,,,,,,2019_Mar_28_1706,60.66705855577804,Cloud_Experiment_FR_REAL,001,30,
images/fcloud80-20_D0.8_5.tif,0.8,2,,,,,,,,,0,78,78,73,,,,,,,,,,,,,,,None,None,,None,10.11,,,,,,,,,,,,,,,,,,2019_Mar_28_1706,60.66705855577804,Cloud_Experiment_FR_REAL,001,30,
images/fcloud65-35_D1_6.tif,1.0,1,,,,,,,,,0,79,79,44,,,,,,,,,,,,,,,1,space,2.34934859991,4,1.402,,,,,,,,,,,,,,,,,,2019_Mar_28_1706,60.66705855577804,Cloud_Experiment_FR_REAL,001,30,
images/fcloud_D1_6.tif,1.0,0,,,,,,,,,0,80,80,8,,,,,,,,,,,,,,,3,space,2.77810610004,4,1.085,,,,,,,,,,,,,,,,,,2019_Mar_28_1706,60.66705855577804,Cloud_Experiment_FR_REAL,001,30,
images/fcloud_D0.8_5.tif,0.8,0,,,,,,,,,0,81,81,1,,,,,,,,,,,,,,,3,None,,4,0.986,,,,,,,,,,,,,,,,,,2019_Mar_28_1706,60.66705855577804,Cloud_Experiment_FR_REAL,001,30,
images/fcloud_D1_5.tif,1.0,0,,,,,,,,,0,82,82,7,,,,,,,,,,,,,,,2,space,7.93846550002,3,0.635,,,,,,,,,,,,,,,,,,2019_Mar_28_1706,60.66705855577804,Cloud_Experiment_FR_REAL,001,30,
images/fcloud65-35_D1.9_6.tif,1.9,1,,,,,,,,,0,83,83,71,,,,,,,,,,,,,,,None,None,,None,10.408,,,,,,,,,,,,,,,,,,2019_Mar_28_1706,60.66705855577804,Cloud_Experiment_FR_REAL,001,30,
images/fcloud80-20_D1.9_4.tif,1.9,2,,,,,,,,,0,84,84,105,,,,,,,,,,,,,,,None,None,,None,20.517,,,,,,,,,,,,,,,,,,2019_Mar_28_1706,60.66705855577804,Cloud_Experiment_FR_REAL,001,30,
images/fcloud65-35_D1.4_5.tif,1.4,1,,,,,,,,,0,85,85,55,,,,,,,,,,,,,,,2,space,5.97535289999,2,2.067,,,,,,,,,,,,,,,,,,2019_Mar_28_1706,60.66705855577804,Cloud_Experiment_FR_REAL,001,30,
images/fcloud80-20_D1.6_5.tif,1.6,2,,,,,,,,,0,86,86,97,,,,,,,,,,,,,,,2,space,3.3416423999,2,3.781,,,,,,,,,,,,,,,,,,2019_Mar_28_1706,60.66705855577804,Cloud_Experiment_FR_REAL,001,30,
images/fcloud80-20_D1.2_4.tif,1.2,2,,,,,,,,,0,87,87,84,,,,,,,,,,,,,,,None,None,,None,13.54,,,,,,,,,,,,,,,,,,2019_Mar_28_1706,60.66705855577804,Cloud_Experiment_FR_REAL,001,30,
images/fcloud65-35_D1.5_6.tif,1.5,1,,,,,,,,,0,88,88,59,,,,,,,,,,,,,,,None,None,,None,22.997,,,,,,,,,,,,,,,,,,2019_Mar_28_1706,60.66705855577804,Cloud_Experiment_FR_REAL,001,30,
images/fcloud_D1.9_6.tif,1.9,0,,,,,,,,,0,89,89,35,,,,,,,,,,,,,,,None,None,,None,32.29,,,,,,,,,,,,,,,,,,2019_Mar_28_1706,60.66705855577804,Cloud_Experiment_FR_REAL,001,30,
images/fcloud80-20_D1.4_5.tif,1.4,2,,,,,,,,,0,90,90,91,,,,,,,,,,,,,,,2,space,2.88424379996,2,1.018,,,,,,,,,,,,,,,,,,2019_Mar_28_1706,60.66705855577804,Cloud_Experiment_FR_REAL,001,30,
images/fcloud65-35_D1.7_6.tif,1.7,1,,,,,,,,,0,91,91,65,,,,,,,,,,,,,,,1,space,6.585143,2,0.768,,,,,,,,,,,,,,,,,,2019_Mar_28_1706,60.66705855577804,Cloud_Experiment_FR_REAL,001,30,
images/fcloud_D0.8_4.tif,0.8,0,,,,,,,,,0,92,92,0,,,,,,,,,,,,,,,2,space,3.43082860007,4,1.634,,,,,,,,,,,,,,,,,,2019_Mar_28_1706,60.66705855577804,Cloud_Experiment_FR_REAL,001,30,
images/fcloud80-20_D1.7_5.tif,1.7,2,,,,,,,,,0,93,93,100,,,,,,,,,,,,,,,1,space,7.90333599993,1,1.386,,,,,,,,,,,,,,,,,,2019_Mar_28_1706,60.66705855577804,Cloud_Experiment_FR_REAL,001,30,
images/fcloud80-20_D1.4_6.tif,1.4,2,,,,,,,,,0,94,94,92,,,,,,,,,,,,,,,2,space,2.56140630005,1,0.636,,,,,,,,,,,,,,,,,,2019_Mar_28_1706,60.66705855577804,Cloud_Experiment_FR_REAL,001,30,
images/fcloud65-35_D0.8_6.tif,0.8,1,,,,,,,,,0,95,95,38,,,,,,,,,,,,,,,1,None,,1,0.703,,,,,,,,,,,,,,,,,,2019_Mar_28_1706,60.66705855577804,Cloud_Experiment_FR_REAL,001,30,
images/fcloud65-35_D1.3_6.tif,1.3,1,,,,,,,,,0,96,96,53,,,,,,,,,,,,,,,2,space,2.76303050003,2,0.851,,,,,,,,,,,,,,,,,,2019_Mar_28_1706,60.66705855577804,Cloud_Experiment_FR_REAL,001,30,
images/fcloud65-35_D1_5.tif,1.0,1,,,,,,,,,0,97,97,43,,,,,,,,,,,,,,,2,space,2.13152020006,4,1.085,,,,,,,,,,,,,,,,,,2019_Mar_28_1706,60.66705855577804,Cloud_Experiment_FR_REAL,001,30,
images/fcloud_D1.8_6.tif,1.8,0,,,,,,,,,0,98,98,32,,,,,,,,,,,,,,,1,None,,1,0.919,,,,,,,,,,,,,,,,,,2019_Mar_28_1706,60.66705855577804,Cloud_Experiment_FR_REAL,001,30,
images/fcloud_D1.8_4.tif,1.8,0,,,,,,,,,0,99,99,30,,,,,,,,,,,,,,,1,space,7.8352162001,1,0.585,,,,,,,,,,,,,,,,,,2019_Mar_28_1706,60.66705855577804,Cloud_Experiment_FR_REAL,001,30,
images/fcloud_D1.2_5.tif,1.2,0,,,,,,,,,0,100,100,13,,,,,,,,,,,,,,,3,space,2.11265089992,3,1.485,,,,,,,,,,,,,,,,,,2019_Mar_28_1706,60.66705855577804,Cloud_Experiment_FR_REAL,001,30,
images/fcloud80-20_D0.8_4.tif,0.8,2,,,,,,,,,0,101,101,72,,,,,,,,,,,,,,,2,space,1.8215355,3,0.585,,,,,,,,,,,,,,,,,,2019_Mar_28_1706,60.66705855577804,Cloud_Experiment_FR_REAL,001,30,
images/fcloud_D1.1_6.tif,1.1,0,,,,,,,,,0,102,102,11,,,,,,,,,,,,,,,3,space,1.50512540003,4,1.068,,,,,,,,,,,,,,,,,,2019_Mar_28_1706,60.66705855577804,Cloud_Experiment_FR_REAL,001,30,
images/fcloud_D1.5_6.tif,1.5,0,,,,,,,,,0,103,103,23,,,,,,,,,,,,,,,1,space,7.88263630006,5,2.184,,,,,,,,,,,,,,,,,,2019_Mar_28_1706,60.66705855577804,Cloud_Experiment_FR_REAL,001,30,
images/fcloud80-20_D0.9_4.tif,0.9,2,,,,,,,,,0,104,104,75,,,,,,,,,,,,,,,1,space,5.43991880002,2,1.067,,,,,,,,,,,,,,,,,,2019_Mar_28_1706,60.66705855577804,Cloud_Experiment_FR_REAL,001,30,
images/fcloud80-20_D1_6.tif,1.0,2,,,,,,,,,0,105,105,80,,,,,,,,,,,,,,,1,None,,2,0.734,,,,,,,,,,,,,,,,,,2019_Mar_28_1706,60.66705855577804,Cloud_Experiment_FR_REAL,001,30,
images/fcloud65-35_D0.8_5.tif,0.8,1,,,,,,,,,0,106,106,37,,,,,,,,,,,,,,,1,space,3.76615070004,2,1.718,,,,,,,,,,,,,,,,,,2019_Mar_28_1706,60.66705855577804,Cloud_Experiment_FR_REAL,001,30,
images/fcloud65-35_D1.1_6.tif,1.1,1,,,,,,,,,0,107,107,47,,,,,,,,,,,,,,,1,space,3.1880813,3,1.585,,,,,,,,,,,,,,,,,,2019_Mar_28_1706,60.66705855577804,Cloud_Experiment_FR_REAL,001,30,
,,,,,,,,,,,,,,,,,,,,,,,,,,,,,,,,,,,,,,,,,,,,,,space,2.88085860002,,,,2019_Mar_28_1706,60.66705855577804,Cloud_Experiment_FR_REAL,001,30,
,,,,,,,,,,,,,,,,,,,,,,,,,4,7.538,,,,,,,,,,,,,,,,,,,,,,,,,2019_Mar_28_1706,60.66705855577804,Cloud_Experiment_FR_REAL,001,30,
,,,,,,,,,,,,,,,,,,,,,,,,,,,,,,,,,,4,,,,,,,,,,,,,,,,,2019_Mar_28_1706,60.66705855577804,Cloud_Experiment_FR_REAL,001,30,
,,,,,,,,,,,,,,,,,,,,,,,,,,,,,,,,,,,5,,,,,,,,,,,,,,,,2019_Mar_28_1706,60.66705855577804,Cloud_Experiment_FR_REAL,001,30,
,,,,,,,,,,,,,,,,,,,,,,,,,,,,,,,,,,,,3,,,,,,,,,,,,,,,2019_Mar_28_1706,60.66705855577804,Cloud_Experiment_FR_REAL,001,30,
,,,,,,,,,,,,,,,,,,,,,,,,,,,,,,,,,,,,,3,,,,,,,,,,,,,,2019_Mar_28_1706,60.66705855577804,Cloud_Experiment_FR_REAL,001,30,
,,,,,,,,,,,,,,,,,,,,,,,,,,,,,,,,,,,,,,4,,,,,,,,,,,,,2019_Mar_28_1706,60.66705855577804,Cloud_Experiment_FR_REAL,001,30,
,,,,,,,,,,,,,,,,,,,,,,,,,,,,,,,,,,,,,,,3,,,,,,,,,,,,2019_Mar_28_1706,60.66705855577804,Cloud_Experiment_FR_REAL,001,30,
,,,,,,,,,,,,,,,,,,,,,,,,,,,,,,,,,,,,,,,,5,,,,,,,,,,,2019_Mar_28_1706,60.66705855577804,Cloud_Experiment_FR_REAL,001,30,
,,,,,,,,,,,,,,,,,,,,,,,,,,,,,,,,,,,,,,,,,7,,,,,,,,,,2019_Mar_28_1706,60.66705855577804,Cloud_Experiment_FR_REAL,001,30,
,,,,,,,,,,,,,,,,,,,,,,,,,,,,,,,,,,,,,,,,,,7,,,,,,,,,2019_Mar_28_1706,60.66705855577804,Cloud_Experiment_FR_REAL,001,30,
,,,,,,,,,,,,,,,,,,,,,,,,,,,,,,,,,,,,,,,,,,,4,,,,,,,,2019_Mar_28_1706,60.66705855577804,Cloud_Experiment_FR_REAL,001,30,
,,,,,,,,,,,,,,,,,,,,,,,,,,,,,,,,,,,,,,,,,,,,,,,,space,36.3193888001,,2019_Mar_28_1706,60.66705855577804,Cloud_Experiment_FR_REAL,001,30,
images/fcloud80-20_D1.6_7.tif,1.6,2,,,,,,,,,,,,,0,0,0,128,,,,,,,,,,,1,space,5.53528750001,2,0.818,,,,,,,,,,,,,,,,,,2019_Mar_28_1706,60.66705855577804,Cloud_Experiment_FR_REAL,001,30,
images/fcloud_D1.4_8.tif,1.4,0,,,,,,,,,,,,,0,1,1,25,,,,,,,,,,,4,space,3.20449789998,3,0.752,,,,,,,,,,,,,,,,,,2019_Mar_28_1706,60.66705855577804,Cloud_Experiment_FR_REAL,001,30,
images/fcloud_D1.8_7.tif,1.8,0,,,,,,,,,,,,,0,2,2,40,,,,,,,,,,,1,None,,1,0.586,,,,,,,,,,,,,,,,,,2019_Mar_28_1706,60.66705855577804,Cloud_Experiment_FR_REAL,001,30,
images/fcloud_D1.1_10.tif,1.1,0,,,,,,,,,,,,,0,3,3,15,,,,,,,,,,,3,space,2.10366840009,3,0.953,,,,,,,,,,,,,,,,,,2019_Mar_28_1706,60.66705855577804,Cloud_Experiment_FR_REAL,001,30,
images/fcloud65-35_D1.8_8.tif,1.8,1,,,,,,,,,,,,,0,4,4,89,,,,,,,,,,,None,None,,None,10.077,,,,,,,,,,,,,,,,,,2019_Mar_28_1706,60.66705855577804,Cloud_Experiment_FR_REAL,001,30,
images/fcloud65-35_D1_9.tif,1.0,1,,,,,,,,,,,,,0,5,5,58,,,,,,,,,,,1,space,1.65630939999,3,0.785,,,,,,,,,,,,,,,,,,2019_Mar_28_1706,60.66705855577804,Cloud_Experiment_FR_REAL,001,30,
images/fcloud80-20_D1.2_8.tif,1.2,2,,,,,,,,,,,,,0,6,6,113,,,,,,,,,,,None,None,,None,10.026,,,,,,,,,,,,,,,,,,2019_Mar_28_1706,60.66705855577804,Cloud_Experiment_FR_REAL,001,30,
images/fcloud80-20_D1_8.tif,1.0,2,,,,,,,,,,,,,0,7,7,105,,,,,,,,,,,1,space,4.09935869998,2,0.885,,,,,,,,,,,,,,,,,,2019_Mar_28_1706,60.66705855577804,Cloud_Experiment_FR_REAL,001,30,
images/fcloud80-20_D1.9_9.tif,1.9,2,,,,,,,,,,,,,0,8,8,142,,,,,,,,,,,None,None,,None,10.162,,,,,,,,,,,,,,,,,,2019_Mar_28_1706,60.66705855577804,Cloud_Experiment_FR_REAL,001,30,
images/fcloud_D1.3_7.tif,1.3,0,,,,,,,,,,,,,0,9,9,20,,,,,,,,,,,2,space,2.70748520002,4,0.701,,,,,,,,,,,,,,,,,,2019_Mar_28_1706,60.66705855577804,Cloud_Experiment_FR_REAL,001,30,
images/fcloud65-35_D1_8.tif,1.0,1,,,,,,,,,,,,,0,10,10,57,,,,,,,,,,,1,space,4.47661199991,1,0.869,,,,,,,,,,,,,,,,,,2019_Mar_28_1706,60.66705855577804,Cloud_Experiment_FR_REAL,001,30,
images/fcloud_D1.4_10.tif,1.4,0,,,,,,,,,,,,,0,11,11,27,,,,,,,,,,,3,space,1.878562,4,0.933,,,,,,,,,,,,,,,,,,2019_Mar_28_1706,60.66705855577804,Cloud_Experiment_FR_REAL,001,30,
images/fcloud80-20_D1.2_10.tif,1.2,2,,,,,,,,,,,,,0,12,12,115,,,,,,,,,,,2,space,6.30579959997,1,0.818,,,,,,,,,,,,,,,,,,2019_Mar_28_1706,60.66705855577804,Cloud_Experiment_FR_REAL,001,30,
images/fcloud80-20_D1_10.tif,1.0,2,,,,,,,,,,,,,0,13,13,107,,,,,,,,,,,1,space,6.60693749995,1,0.601,,,,,,,,,,,,,,,,,,2019_Mar_28_1706,60.66705855577804,Cloud_Experiment_FR_REAL,001,30,
images/fcloud80-20_D1.7_8.tif,1.7,2,,,,,,,,,,,,,0,14,14,133,,,,,,,,,,,1,space,7.82290470006,1,0.567,,,,,,,,,,,,,,,,,,2019_Mar_28_1706,60.66705855577804,Cloud_Experiment_FR_REAL,001,30,
images/fcloud80-20_D0.9_8.tif,0.9,2,,,,,,,,,,,,,0,15,15,101,,,,,,,,,,,1,space,3.69696660002,1,0.751,,,,,,,,,,,,,,,,,,2019_Mar_28_1706,60.66705855577804,Cloud_Experiment_FR_REAL,001,30,
images/fcloud_D1.5_7.tif,1.5,0,,,,,,,,,,,,,0,16,16,28,,,,,,,,,,,2,space,7.3744951,1,0.734,,,,,,,,,,,,,,,,,,2019_Mar_28_1706,60.66705855577804,Cloud_Experiment_FR_REAL,001,30,
images/fcloud65-35_D1.3_10.tif,1.3,1,,,,,,,,,,,,,0,17,17,71,,,,,,,,,,,1,space,5.96266070008,2,0.57,,,,,,,,,,,,,,,,,,2019_Mar_28_1706,60.66705855577804,Cloud_Experiment_FR_REAL,001,30,
images/fcloud80-20_D1.4_10.tif,1.4,2,,,,,,,,,,,,,0,18,18,123,,,,,,,,,,,3,space,4.17816919996,3,1.584,,,,,,,,,,,,,,,,,,2019_Mar_28_1706,60.66705855577804,Cloud_Experiment_FR_REAL,001,30,
images/fcloud_D1_9.tif,1.0,0,,,,,,,,,,,,,0,19,19,10,,,,,,,,,,,1,space,4.9133591,2,0.668,,,,,,,,,,,,,,,,,,2019_Mar_28_1706,60.66705855577804,Cloud_Experiment_FR_REAL,001,30,
images/fcloud_D1.8_10.tif,1.8,0,,,,,,,,,,,,,0,20,20,43,,,,,,,,,,,None,None,,None,10.075,,,,,,,,,,,,,,,,,,2019_Mar_28_1706,60.66705855577804,Cloud_Experiment_FR_REAL,001,30,
images/fcloud_D0.8_7.tif,0.8,0,,,,,,,,,,,,,0,21,21,0,,,,,,,,,,,2,space,3.20933569991,3,0.601,,,,,,,,,,,,,,,,,,2019_Mar_28_1706,60.66705855577804,Cloud_Experiment_FR_REAL,001,30,
images/fcloud_D1.5_8.tif,1.5,0,,,,,,,,,,,,,0,22,22,29,,,,,,,,,,,1,space,8.10699580004,1,1.02,,,,,,,,,,,,,,,,,,2019_Mar_28_1706,60.66705855577804,Cloud_Experiment_FR_REAL,001,30,
images/fcloud80-20_D1.5_9.tif,1.5,2,,,,,,,,,,,,,0,23,23,126,,,,,,,,,,,None,None,,None,10.726,,,,,,,,,,,,,,,,,,2019_Mar_28_1706,60.66705855577804,Cloud_Experiment_FR_REAL,001,30,
images/fcloud65-35_D1.1_10.tif,1.1,1,,,,,,,,,,,,,0,24,24,63,,,,,,,,,,,1,space,3.93783399998,3,1.185,,,,,,,,,,,,,,,,,,2019_Mar_28_1706,60.66705855577804,Cloud_Experiment_FR_REAL,001,30,
images/fcloud80-20_D1.3_10.tif,1.3,2,,,,,,,,,,,,,0,25,25,119,,,,,,,,,,,1,space,7.93973420002,1,0.901,,,,,,,,,,,,,,,,,,2019_Mar_28_1706,60.66705855577804,Cloud_Experiment_FR_REAL,001,30,
images/fcloud_D1.9_7.tif,1.9,0,,,,,,,,,,,,,0,26,26,44,,,,,,,,,,,2,space,1.66180789995,3,1.635,,,,,,,,,,,,,,,,,,2019_Mar_28_1706,60.66705855577804,Cloud_Experiment_FR_REAL,001,30,
images/fcloud80-20_D1.1_10.tif,1.1,2,,,,,,,,,,,,,0,27,27,111,,,,,,,,,,,1,space,5.10535720002,2,0.951,,,,,,,,,,,,,,,,,,2019_Mar_28_1706,60.66705855577804,Cloud_Experiment_FR_REAL,001,30,
images/fcloud80-20_D1.5_7.tif,1.5,2,,,,,,,,,,,,,0,28,28,124,,,,,,,,,,,2,space,7.39214970008,1,0.519,,,,,,,,,,,,,,,,,,2019_Mar_28_1706,60.66705855577804,Cloud_Experiment_FR_REAL,001,30,
images/fcloud80-20_D1.6_10.tif,1.6,2,,,,,,,,,,,,,0,29,29,131,,,,,,,,,,,1,space,5.23715209996,2,0.617,,,,,,,,,,,,,,,,,,2019_Mar_28_1706,60.66705855577804,Cloud_Experiment_FR_REAL,001,30,
images/fcloud65-35_D1.3_8.tif,1.3,1,,,,,,,,,,,,,0,30,30,69,,,,,,,,,,,1,None,,1,1.116,,,,,,,,,,,,,,,,,,2019_Mar_28_1706,60.66705855577804,Cloud_Experiment_FR_REAL,001,30,
images/fcloud65-35_D1.9_7.tif,1.9,1,,,,,,,,,,,,,0,31,31,92,,,,,,,,,,,None,None,,None,10.459,,,,,,,,,,,,,,,,,,2019_Mar_28_1706,60.66705855577804,Cloud_Experiment_FR_REAL,001,30,
images/fcloud65-35_D1.4_10.tif,1.4,1,,,,,,,,,,,,,0,32,32,75,,,,,,,,,,,None,None,,None,19.933,,,,,,,,,,,,,,,,,,2019_Mar_28_1706,60.66705855577804,Cloud_Experiment_FR_REAL,001,30,
images/fcloud65-35_D1.3_7.tif,1.3,1,,,,,,,,,,,,,0,33,33,68,,,,,,,,,,,None,space,3.3264887,None,29.142,,,,,,,,,,,,,,,,,,2019_Mar_28_1706,60.66705855577804,Cloud_Experiment_FR_REAL,001,30,
images/fcloud80-20_D1.4_9.tif,1.4,2,,,,,,,,,,,,,0,34,34,122,,,,,,,,,,,1,None,,2,0.718,,,,,,,,,,,,,,,,,,2019_Mar_28_1706,60.66705855577804,Cloud_Experiment_FR_REAL,001,30,
images/fcloud80-20_D1.7_10.tif,1.7,2,,,,,,,,,,,,,0,35,35,135,,,,,,,,,,,None,None,,None,12.841,,,,,,,,,,,,,,,,,,2019_Mar_28_1706,60.66705855577804,Cloud_Experiment_FR_REAL,001,30,
images/fcloud80-20_D1_9.tif,1.0,2,,,,,,,,,,,,,0,36,36,106,,,,,,,,,,,None,None,,None,22.066,,,,,,,,,,,,,,,,,,2019_Mar_28_1706,60.66705855577804,Cloud_Experiment_FR_REAL,001,30,
images/fcloud_D1.1_8.tif,1.1,0,,,,,,,,,,,,,0,37,37,13,,,,,,,,,,,None,space,4.85075900005,None,31.191,,,,,,,,,,,,,,,,,,2019_Mar_28_1706,60.66705855577804,Cloud_Experiment_FR_REAL,001,30,
images/fcloud_D1.2_8.tif,1.2,0,,,,,,,,,,,,,0,38,38,17,,,,,,,,,,,2,None,,3,0.653,,,,,,,,,,,,,,,,,,2019_Mar_28_1706,60.66705855577804,Cloud_Experiment_FR_REAL,001,30,
images/fcloud80-20_D1.7_9.tif,1.7,2,,,,,,,,,,,,,0,39,39,134,,,,,,,,,,,1,None,,1,0.685,,,,,,,,,,,,,,,,,,2019_Mar_28_1706,60.66705855577804,Cloud_Experiment_FR_REAL,001,30,
images/fcloud65-35_D0.8_8.tif,0.8,1,,,,,,,,,,,,,0,40,40,49,,,,,,,,,,,1,space,5.47063960007,1,0.469,,,,,,,,,,,,,,,,,,2019_Mar_28_1706,60.66705855577804,Cloud_Experiment_FR_REAL,001,30,
images/fcloud_D1.2_7.tif,1.2,0,,,,,,,,,,,,,0,41,41,16,,,,,,,,,,,2,space,2.0768413,3,0.803,,,,,,,,,,,,,,,,,,2019_Mar_28_1706,60.66705855577804,Cloud_Experiment_FR_REAL,001,30,
images/fcloud80-20_D1.4_8.tif,1.4,2,,,,,,,,,,,,,0,42,42,121,,,,,,,,,,,2,space,6.19634449994,3,1.235,,,,,,,,,,,,,,,,,,2019_Mar_28_1706,60.66705855577804,Cloud_Experiment_FR_REAL,001,30,
images/fcloud65-35_D1.2_9.tif,1.2,1,,,,,,,,,,,,,0,43,43,66,,,,,,,,,,,None,None,,None,14.041,,,,,,,,,,,,,,,,,,2019_Mar_28_1706,60.66705855577804,Cloud_Experiment_FR_REAL,001,30,
images/fcloud_D1.9_8.tif,1.9,0,,,,,,,,,,,,,0,44,44,45,,,,,,,,,,,None,None,,None,23.313,,,,,,,,,,,,,,,,,,2019_Mar_28_1706,60.66705855577804,Cloud_Experiment_FR_REAL,001,30,
images/fcloud65-35_D1.8_7.tif,1.8,1,,,,,,,,,,,,,0,45,45,88,,,,,,,,,,,None,None,,None,32.639,,,,,,,,,,,,,,,,,,2019_Mar_28_1706,60.66705855577804,Cloud_Experiment_FR_REAL,001,30,
images/fcloud_D1.4_9.tif,1.4,0,,,,,,,,,,,,,0,46,46,26,,,,,,,,,,,3,space,4.76800539996,3,1.069,,,,,,,,,,,,,,,,,,2019_Mar_28_1706,60.66705855577804,Cloud_Experiment_FR_REAL,001,30,
images/fcloud65-35_D1.8_9.tif,1.8,1,,,,,,,,,,,,,0,47,47,90,,,,,,,,,,,None,None,,None,10.525,,,,,,,,,,,,,,,,,,2019_Mar_28_1706,60.66705855577804,Cloud_Experiment_FR_REAL,001,30,
images/fcloud65-35_D1.6_7.tif,1.6,1,,,,,,,,,,,,,0,48,48,80,,,,,,,,,,,1,space,3.51088690001,2,0.687,,,,,,,,,,,,,,,,,,2019_Mar_28_1706,60.66705855577804,Cloud_Experiment_FR_REAL,001,30,
images/fcloud_D1.6_8.tif,1.6,0,,,,,,,,,,,,,0,49,49,33,,,,,,,,,,,1,None,,1,0.485,,,,,,,,,,,,,,,,,,2019_Mar_28_1706,60.66705855577804,Cloud_Experiment_FR_REAL,001,30,
images/fcloud_D1.4_7.tif,1.4,0,,,,,,,,,,,,,0,50,50,24,,,,,,,,,,,2,space,3.99078849994,1,0.62,,,,,,,,,,,,,,,,,,2019_Mar_28_1706,60.66705855577804,Cloud_Experiment_FR_REAL,001,30,
images/fcloud80-20_D0.8_10.tif,0.8,2,,,,,,,,,,,,,0,51,51,99,,,,,,,,,,,1,space,3.24209239997,1,0.834,,,,,,,,,,,,,,,,,,2019_Mar_28_1706,60.66705855577804,Cloud_Experiment_FR_REAL,001,30,
images/fcloud_D1.3_10.tif,1.3,0,,,,,,,,,,,,,0,52,52,23,,,,,,,,,,,2,space,5.39223540004,2,0.486,,,,,,,,,,,,,,,,,,2019_Mar_28_1706,60.66705855577804,Cloud_Experiment_FR_REAL,001,30,
images/fcloud65-35_D1.6_10.tif,1.6,1,,,,,,,,,,,,,0,53,53,83,,,,,,,,,,,None,None,,None,9.908,,,,,,,,,,,,,,,,,,2019_Mar_28_1706,60.66705855577804,Cloud_Experiment_FR_REAL,001,30,
images/fcloud65-35_D0.9_7.tif,0.9,1,,,,,,,,,,,,,0,54,54,52,,,,,,,,,,,2,space,3.13709960005,3,0.404,,,,,,,,,,,,,,,,,,2019_Mar_28_1706,60.66705855577804,Cloud_Experiment_FR_REAL,001,30,
images/fcloud65-35_D0.8_9.tif,0.8,1,,,,,,,,,,,,,0,55,55,50,,,,,,,,,,,2,space,3.22922760004,1,1.868,,,,,,,,,,,,,,,,,,2019_Mar_28_1706,60.66705855577804,Cloud_Experiment_FR_REAL,001,30,
images/fcloud80-20_D0.8_7.tif,0.8,2,,,,,,,,,,,,,0,56,56,96,,,,,,,,,,,2,space,2.43265610002,1,0.9,,,,,,,,,,,,,,,,,,2019_Mar_28_1706,60.66705855577804,Cloud_Experiment_FR_REAL,001,30,
images/fcloud65-35_D1.9_8.tif,1.9,1,,,,,,,,,,,,,0,57,57,93,,,,,,,,,,,1,space,4.80747559993,1,2.549,,,,,,,,,,,,,,,,,,2019_Mar_28_1706,60.66705855577804,Cloud_Experiment_FR_REAL,001,30,
images/fcloud80-20_D1.6_9.tif,1.6,2,,,,,,,,,,,,,0,58,58,130,,,,,,,,,,,2,space,4.94597730006,1,0.936,,,,,,,,,,,,,,,,,,2019_Mar_28_1706,60.66705855577804,Cloud_Experiment_FR_REAL,001,30,
images/fcloud_D1.5_10.tif,1.5,0,,,,,,,,,,,,,0,59,59,31,,,,,,,,,,,1,space,5.43355840002,3,1.052,,,,,,,,,,,,,,,,,,2019_Mar_28_1706,60.66705855577804,Cloud_Experiment_FR_REAL,001,30,
images/fcloud65-35_D1.1_7.tif,1.1,1,,,,,,,,,,,,,0,60,60,60,,,,,,,,,,,2,space,1.39888759993,3,0.767,,,,,,,,,,,,,,,,,,2019_Mar_28_1706,60.66705855577804,Cloud_Experiment_FR_REAL,001,30,
images/fcloud80-20_D1.1_7.tif,1.1,2,,,,,,,,,,,,,0,61,61,108,,,,,,,,,,,1,None,,1,0.501,,,,,,,,,,,,,,,,,,2019_Mar_28_1706,60.66705855577804,Cloud_Experiment_FR_REAL,001,30,
images/fcloud_D1.6_9.tif,1.6,0,,,,,,,,,,,,,0,62,62,34,,,,,,,,,,,1,space,5.4632282001,1,0.636,,,,,,,,,,,,,,,,,,2019_Mar_28_1706,60.66705855577804,Cloud_Experiment_FR_REAL,001,30,
images/fcloud65-35_D0.9_9.tif,0.9,1,,,,,,,,,,,,,0,63,63,54,,,,,,,,,,,2,space,5.95678280003,3,0.553,,,,,,,,,,,,,,,,,,2019_Mar_28_1706,60.66705855577804,Cloud_Experiment_FR_REAL,001,30,
images/fcloud65-35_D1.1_9.tif,1.1,1,,,,,,,,,,,,,0,64,64,62,,,,,,,,,,,2,space,4.97162929992,4,1.035,,,,,,,,,,,,,,,,,,2019_Mar_28_1706,60.66705855577804,Cloud_Experiment_FR_REAL,001,30,
images/fcloud65-35_D1_10.tif,1.0,1,,,,,,,,,,,,,0,65,65,59,,,,,,,,,,,2,space,4.94377160002,2,1.717,,,,,,,,,,,,,,,,,,2019_Mar_28_1706,60.66705855577804,Cloud_Experiment_FR_REAL,001,30,
images/fcloud_D0.8_10.tif,0.8,0,,,,,,,,,,,,,0,66,66,3,,,,,,,,,,,1,space,3.19183589995,2,1.167,,,,,,,,,,,,,,,,,,2019_Mar_28_1706,60.66705855577804,Cloud_Experiment_FR_REAL,001,30,
images/fcloud80-20_D1.1_9.tif,1.1,2,,,,,,,,,,,,,0,67,67,110,,,,,,,,,,,2,space,1.67917519994,2,1.884,,,,,,,,,,,,,,,,,,2019_Mar_28_1706,60.66705855577804,Cloud_Experiment_FR_REAL,001,30,
images/fcloud_D1.7_7.tif,1.7,0,,,,,,,,,,,,,0,68,68,36,,,,,,,,,,,None,None,,None,11.458,,,,,,,,,,,,,,,,,,2019_Mar_28_1706,60.66705855577804,Cloud_Experiment_FR_REAL,001,30,
images/fcloud65-35_D1.3_9.tif,1.3,1,,,,,,,,,,,,,0,69,69,70,,,,,,,,,,,None,None,,None,20.201,,,,,,,,,,,,,,,,,,2019_Mar_28_1706,60.66705855577804,Cloud_Experiment_FR_REAL,001,30,
images/fcloud_D1.7_8.tif,1.7,0,,,,,,,,,,,,,0,70,70,37,,,,,,,,,,,2,space,4.02981650003,3,0.769,,,,,,,,,,,,,,,,,,2019_Mar_28_1706,60.66705855577804,Cloud_Experiment_FR_REAL,001,30,
images/fcloud80-20_D1.4_7.tif,1.4,2,,,,,,,,,,,,,0,71,71,120,,,,,,,,,,,1,space,4.63058399991,1,1.285,,,,,,,,,,,,,,,,,,2019_Mar_28_1706,60.66705855577804,Cloud_Experiment_FR_REAL,001,30,
images/fcloud80-20_D1.8_7.tif,1.8,2,,,,,,,,,,,,,0,72,72,136,,,,,,,,,,,None,None,,None,9.958,,,,,,,,,,,,,,,,,,2019_Mar_28_1706,60.66705855577804,Cloud_Experiment_FR_REAL,001,30,
images/fcloud_D1_8.tif,1.0,0,,,,,,,,,,,,,0,73,73,9,,,,,,,,,,,2,space,3.8431848,4,0.684,,,,,,,,,,,,,,,,,,2019_Mar_28_1706,60.66705855577804,Cloud_Experiment_FR_REAL,001,30,
images/fcloud80-20_D1.3_9.tif,1.3,2,,,,,,,,,,,,,0,74,74,118,,,,,,,,,,,1,space,5.83561710001,3,0.919,,,,,,,,,,,,,,,,,,2019_Mar_28_1706,60.66705855577804,Cloud_Experiment_FR_REAL,001,30,
images/fcloud65-35_D1_7.tif,1.0,1,,,,,,,,,,,,,0,75,75,56,,,,,,,,,,,None,None,,None,11.939,,,,,,,,,,,,,,,,,,2019_Mar_28_1706,60.66705855577804,Cloud_Experiment_FR_REAL,001,30,
images/fcloud_D1.3_8.tif,1.3,0,,,,,,,,,,,,,0,76,76,21,,,,,,,,,,,1,space,7.62334639998,1,1.967,,,,,,,,,,,,,,,,,,2019_Mar_28_1706,60.66705855577804,Cloud_Experiment_FR_REAL,001,30,
images/fcloud65-35_D1.2_7.tif,1.2,1,,,,,,,,,,,,,0,77,77,64,,,,,,,,,,,1,space,5.01110190002,2,0.818,,,,,,,,,,,,,,,,,,2019_Mar_28_1706,60.66705855577804,Cloud_Experiment_FR_REAL,001,30,
images/fcloud80-20_D1.7_7.tif,1.7,2,,,,,,,,,,,,,0,78,78,132,,,,,,,,,,,2,space,5.49636809994,1,0.619,,,,,,,,,,,,,,,,,,2019_Mar_28_1706,60.66705855577804,Cloud_Experiment_FR_REAL,001,30,
images/fcloud65-35_D1.1_8.tif,1.1,1,,,,,,,,,,,,,0,79,79,61,,,,,,,,,,,2,space,5.82051530003,1,0.618,,,,,,,,,,,,,,,,,,2019_Mar_28_1706,60.66705855577804,Cloud_Experiment_FR_REAL,001,30,
images/fcloud80-20_D1.8_10.tif,1.8,2,,,,,,,,,,,,,0,80,80,139,,,,,,,,,,,None,None,,None,10.459,,,,,,,,,,,,,,,,,,2019_Mar_28_1706,60.66705855577804,Cloud_Experiment_FR_REAL,001,30,
images/fcloud80-20_D1.8_9.tif,1.8,2,,,,,,,,,,,,,0,81,81,138,,,,,,,,,,,None,None,,None,20.5,,,,,,,,,,,,,,,,,,2019_Mar_28_1706,60.66705855577804,Cloud_Experiment_FR_REAL,001,30,
images/fcloud65-35_D1.9_10.tif,1.9,1,,,,,,,,,,,,,0,82,82,95,,,,,,,,,,,None,None,,None,32.939,,,,,,,,,,,,,,,,,,2019_Mar_28_1706,60.66705855577804,Cloud_Experiment_FR_REAL,001,30,
images/fcloud_D1.6_10.tif,1.6,0,,,,,,,,,,,,,0,83,83,35,,,,,,,,,,,3,space,3.44097789994,3,0.769,,,,,,,,,,,,,,,,,,2019_Mar_28_1706,60.66705855577804,Cloud_Experiment_FR_REAL,001,30,
images/fcloud_D0.8_8.tif,0.8,0,,,,,,,,,,,,,0,84,84,1,,,,,,,,,,,2,space,6.32805120002,1,1.171,,,,,,,,,,,,,,,,,,2019_Mar_28_1706,60.66705855577804,Cloud_Experiment_FR_REAL,001,30,
images/fcloud65-35_D1.5_8.tif,1.5,1,,,,,,,,,,,,,0,85,85,77,,,,,,,,,,,None,None,,None,10.576,,,,,,,,,,,,,,,,,,2019_Mar_28_1706,60.66705855577804,Cloud_Experiment_FR_REAL,001,30,
images/fcloud_D1.1_7.tif,1.1,0,,,,,,,,,,,,,0,86,86,12,,,,,,,,,,,3,space,5.14006020001,2,0.602,,,,,,,,,,,,,,,,,,2019_Mar_28_1706,60.66705855577804,Cloud_Experiment_FR_REAL,001,30,
images/fcloud65-35_D1.7_9.tif,1.7,1,,,,,,,,,,,,,0,87,87,86,,,,,,,,,,,2,space,4.70420269994,1,0.602,,,,,,,,,,,,,,,,,,2019_Mar_28_1706,60.66705855577804,Cloud_Experiment_FR_REAL,001,30,
images/fcloud_D0.8_9.tif,0.8,0,,,,,,,,,,,,,0,88,88,2,,,,,,,,,,,1,space,3.89337429998,1,0.62,,,,,,,,,,,,,,,,,,2019_Mar_28_1706,60.66705855577804,Cloud_Experiment_FR_REAL,001,30,
images/fcloud_D1.2_10.tif,1.2,0,,,,,,,,,,,,,0,89,89,19,,,,,,,,,,,2,space,2.81196229998,4,1.419,,,,,,,,,,,,,,,,,,2019_Mar_28_1706,60.66705855577804,Cloud_Experiment_FR_REAL,001,30,
images/fcloud80-20_D0.9_10.tif,0.9,2,,,,,,,,,,,,,0,90,90,103,,,,,,,,,,,1,space,6.11531459994,1,1.135,,,,,,,,,,,,,,,,,,2019_Mar_28_1706,60.66705855577804,Cloud_Experiment_FR_REAL,001,30,
images/fcloud65-35_D1.9_9.tif,1.9,1,,,,,,,,,,,,,0,91,91,94,,,,,,,,,,,None,None,,None,11.626,,,,,,,,,,,,,,,,,,2019_Mar_28_1706,60.66705855577804,Cloud_Experiment_FR_REAL,001,30,
images/fcloud65-35_D1.5_7.tif,1.5,1,,,,,,,,,,,,,0,92,92,76,,,,,,,,,,,2,space,5.28845620004,2,0.703,,,,,,,,,,,,,,,,,,2019_Mar_28_1706,60.66705855577804,Cloud_Experiment_FR_REAL,001,30,
images/fcloud65-35_D1.5_9.tif,1.5,1,,,,,,,,,,,,,0,93,93,78,,,,,,,,,,,2,space,2.61395090003,1,0.635,,,,,,,,,,,,,,,,,,2019_Mar_28_1706,60.66705855577804,Cloud_Experiment_FR_REAL,001,30,
images/fcloud80-20_D1.3_8.tif,1.3,2,,,,,,,,,,,,,0,94,94,117,,,,,,,,,,,None,None,,None,10.209,,,,,,,,,,,,,,,,,,2019_Mar_28_1706,60.66705855577804,Cloud_Experiment_FR_REAL,001,30,
images/fcloud65-35_D0.8_10.tif,0.8,1,,,,,,,,,,,,,0,95,95,51,,,,,,,,,,,1,space,3.18007519993,4,1.536,,,,,,,,,,,,,,,,,,2019_Mar_28_1706,60.66705855577804,Cloud_Experiment_FR_REAL,001,30,
images/fcloud_D1_10.tif,1.0,0,,,,,,,,,,,,,0,96,96,11,,,,,,,,,,,1,space,10.5078667001,1,0.984,,,,,,,,,,,,,,,,,,2019_Mar_28_1706,60.66705855577804,Cloud_Experiment_FR_REAL,001,30,
images/fcloud65-35_D1.6_8.tif,1.6,1,,,,,,,,,,,,,0,97,97,81,,,,,,,,,,,1,space,5.67284569994,2,0.768,,,,,,,,,,,,,,,,,,2019_Mar_28_1706,60.66705855577804,Cloud_Experiment_FR_REAL,001,30,
images/fcloud65-35_D1.7_7.tif,1.7,1,,,,,,,,,,,,,0,98,98,84,,,,,,,,,,,1,space,6.67787699995,1,0.536,,,,,,,,,,,,,,,,,,2019_Mar_28_1706,60.66705855577804,Cloud_Experiment_FR_REAL,001,30,
images/fcloud80-20_D1.9_10.tif,1.9,2,,,,,,,,,,,,,0,99,99,143,,,,,,,,,,,None,None,,None,10.059,,,,,,,,,,,,,,,,,,2019_Mar_28_1706,60.66705855577804,Cloud_Experiment_FR_REAL,001,30,
images/fcloud_D1.6_7.tif,1.6,0,,,,,,,,,,,,,0,100,100,32,,,,,,,,,,,1,None,,1,0.587,,,,,,,,,,,,,,,,,,2019_Mar_28_1706,60.66705855577804,Cloud_Experiment_FR_REAL,001,30,
images/fcloud_D0.9_9.tif,0.9,0,,,,,,,,,,,,,0,101,101,6,,,,,,,,,,,3,space,1.55643950007,4,0.885,,,,,,,,,,,,,,,,,,2019_Mar_28_1706,60.66705855577804,Cloud_Experiment_FR_REAL,001,30,
images/fcloud_D1.2_9.tif,1.2,0,,,,,,,,,,,,,0,102,102,18,,,,,,,,,,,1,space,5.57786770002,3,0.803,,,,,,,,,,,,,,,,,,2019_Mar_28_1706,60.66705855577804,Cloud_Experiment_FR_REAL,001,30,
images/fcloud_D0.9_10.tif,0.9,0,,,,,,,,,,,,,0,103,103,7,,,,,,,,,,,2,space,5.16852459998,3,0.502,,,,,,,,,,,,,,,,,,2019_Mar_28_1706,60.66705855577804,Cloud_Experiment_FR_REAL,001,30,
images/fcloud_D1.9_9.tif,1.9,0,,,,,,,,,,,,,0,104,104,46,,,,,,,,,,,None,None,,None,10.362,,,,,,,,,,,,,,,,,,2019_Mar_28_1706,60.66705855577804,Cloud_Experiment_FR_REAL,001,30,
images/fcloud_D1_7.tif,1.0,0,,,,,,,,,,,,,0,105,105,8,,,,,,,,,,,2,space,5.06539400003,5,2.351,,,,,,,,,,,,,,,,,,2019_Mar_28_1706,60.66705855577804,Cloud_Experiment_FR_REAL,001,30,
images/fcloud80-20_D0.9_9.tif,0.9,2,,,,,,,,,,,,,0,106,106,102,,,,,,,,,,,2,space,3.807959,1,0.668,,,,,,,,,,,,,,,,,,2019_Mar_28_1706,60.66705855577804,Cloud_Experiment_FR_REAL,001,30,
images/fcloud80-20_D1.8_8.tif,1.8,2,,,,,,,,,,,,,0,107,107,137,,,,,,,,,,,None,None,,None,9.16,,,,,,,,,,,,,,,,,,2019_Mar_28_1706,60.66705855577804,Cloud_Experiment_FR_REAL,001,30,
images/fcloud_D1.3_9.tif,1.3,0,,,,,,,,,,,,,0,108,108,22,,,,,,,,,,,4,space,2.94171350007,4,2.301,,,,,,,,,,,,,,,,,,2019_Mar_28_1706,60.66705855577804,Cloud_Experiment_FR_REAL,001,30,
images/fcloud65-35_D1.5_10.tif,1.5,1,,,,,,,,,,,,,0,109,109,79,,,,,,,,,,,1,space,4.52667209995,2,0.502,,,,,,,,,,,,,,,,,,2019_Mar_28_1706,60.66705855577804,Cloud_Experiment_FR_REAL,001,30,
images/fcloud80-20_D1_7.tif,1.0,2,,,,,,,,,,,,,0,110,110,104,,,,,,,,,,,1,space,7.95523560001,2,0.753,,,,,,,,,,,,,,,,,,2019_Mar_28_1706,60.66705855577804,Cloud_Experiment_FR_REAL,001,30,
images/fcloud80-20_D1.6_8.tif,1.6,2,,,,,,,,,,,,,0,111,111,129,,,,,,,,,,,1,space,2.73139829992,1,0.701,,,,,,,,,,,,,,,,,,2019_Mar_28_1706,60.66705855577804,Cloud_Experiment_FR_REAL,001,30,
images/fcloud_D1.8_9.tif,1.8,0,,,,,,,,,,,,,0,112,112,42,,,,,,,,,,,1,space,7.1486358,1,0.754,,,,,,,,,,,,,,,,,,2019_Mar_28_1706,60.66705855577804,Cloud_Experiment_FR_REAL,001,30,
images/fcloud80-20_D1.2_9.tif,1.2,2,,,,,,,,,,,,,0,113,113,114,,,,,,,,,,,2,space,2.47012469999,1,0.667,,,,,,,,,,,,,,,,,,2019_Mar_28_1706,60.66705855577804,Cloud_Experiment_FR_REAL,001,30,
images/fcloud65-35_D1.7_8.tif,1.7,1,,,,,,,,,,,,,0,114,114,85,,,,,,,,,,,1,space,2.01715279999,3,1.001,,,,,,,,,,,,,,,,,,2019_Mar_28_1706,60.66705855577804,Cloud_Experiment_FR_REAL,001,30,
images/fcloud65-35_D0.9_10.tif,0.9,1,,,,,,,,,,,,,0,115,115,55,,,,,,,,,,,2,space,6.76186219999,1,0.984,,,,,,,,,,,,,,,,,,2019_Mar_28_1706,60.66705855577804,Cloud_Experiment_FR_REAL,001,30,
images/fcloud65-35_D1.4_8.tif,1.4,1,,,,,,,,,,,,,0,116,116,73,,,,,,,,,,,1,None,,1,0.485,,,,,,,,,,,,,,,,,,2019_Mar_28_1706,60.66705855577804,Cloud_Experiment_FR_REAL,001,30,
images/fcloud65-35_D1.4_9.tif,1.4,1,,,,,,,,,,,,,0,117,117,74,,,,,,,,,,,1,space,3.51003450004,1,0.601,,,,,,,,,,,,,,,,,,2019_Mar_28_1706,60.66705855577804,Cloud_Experiment_FR_REAL,001,30,
images/fcloud80-20_D1.9_7.tif,1.9,2,,,,,,,,,,,,,0,118,118,140,,,,,,,,,,,None,None,,None,10.242,,,,,,,,,,,,,,,,,,2019_Mar_28_1706,60.66705855577804,Cloud_Experiment_FR_REAL,001,30,
images/fcloud_D1.7_9.tif,1.7,0,,,,,,,,,,,,,0,119,119,38,,,,,,,,,,,1,space,3.46935889998,3,1.3,,,,,,,,,,,,,,,,,,2019_Mar_28_1706,60.66705855577804,Cloud_Experiment_FR_REAL,001,30,
images/fcloud_D1.5_9.tif,1.5,0,,,,,,,,,,,,,0,120,120,30,,,,,,,,,,,1,space,7.37455940002,1,0.652,,,,,,,,,,,,,,,,,,2019_Mar_28_1706,60.66705855577804,Cloud_Experiment_FR_REAL,001,30,
images/fcloud80-20_D0.9_7.tif,0.9,2,,,,,,,,,,,,,0,121,121,100,,,,,,,,,,,None,None,,None,9.393,,,,,,,,,,,,,,,,,,2019_Mar_28_1706,60.66705855577804,Cloud_Experiment_FR_REAL,001,30,
images/fcloud80-20_D0.8_8.tif,0.8,2,,,,,,,,,,,,,0,122,122,97,,,,,,,,,,,1,space,5.33693729993,3,0.92,,,,,,,,,,,,,,,,,,2019_Mar_28_1706,60.66705855577804,Cloud_Experiment_FR_REAL,001,30,
images/fcloud65-35_D1.6_9.tif,1.6,1,,,,,,,,,,,,,0,123,123,82,,,,,,,,,,,2,space,4.95385139994,2,0.867,,,,,,,,,,,,,,,,,,2019_Mar_28_1706,60.66705855577804,Cloud_Experiment_FR_REAL,001,30,
images/fcloud65-35_D0.8_7.tif,0.8,1,,,,,,,,,,,,,0,124,124,48,,,,,,,,,,,1,space,6.04332439997,4,0.818,,,,,,,,,,,,,,,,,,2019_Mar_28_1706,60.66705855577804,Cloud_Experiment_FR_REAL,001,30,
images/fcloud65-35_D1.2_10.tif,1.2,1,,,,,,,,,,,,,0,125,125,67,,,,,,,,,,,1,space,7.37261390011,2,1.219,,,,,,,,,,,,,,,,,,2019_Mar_28_1706,60.66705855577804,Cloud_Experiment_FR_REAL,001,30,
images/fcloud_D0.9_8.tif,0.9,0,,,,,,,,,,,,,0,126,126,5,,,,,,,,,,,1,space,7.0756192999,1,2.917,,,,,,,,,,,,,,,,,,2019_Mar_28_1706,60.66705855577804,Cloud_Experiment_FR_REAL,001,30,
images/fcloud_D0.9_7.tif,0.9,0,,,,,,,,,,,,,0,127,127,4,,,,,,,,,,,2,space,5.60109850008,3,0.535,,,,,,,,,,,,,,,,,,2019_Mar_28_1706,60.66705855577804,Cloud_Experiment_FR_REAL,001,30,
images/fcloud80-20_D1.2_7.tif,1.2,2,,,,,,,,,,,,,0,128,128,112,,,,,,,,,,,1,space,7.83334580006,1,0.719,,,,,,,,,,,,,,,,,,2019_Mar_28_1706,60.66705855577804,Cloud_Experiment_FR_REAL,001,30,
images/fcloud65-35_D1.2_8.tif,1.2,1,,,,,,,,,,,,,0,129,129,65,,,,,,,,,,,None,None,,None,10.26,,,,,,,,,,,,,,,,,,2019_Mar_28_1706,60.66705855577804,Cloud_Experiment_FR_REAL,001,30,
images/fcloud80-20_D1.1_8.tif,1.1,2,,,,,,,,,,,,,0,130,130,109,,,,,,,,,,,2,space,2.8402639,2,1.3,,,,,,,,,,,,,,,,,,2019_Mar_28_1706,60.66705855577804,Cloud_Experiment_FR_REAL,001,30,
images/fcloud80-20_D1.9_8.tif,1.9,2,,,,,,,,,,,,,0,131,131,141,,,,,,,,,,,1,space,3.52235550003,2,0.518,,,,,,,,,,,,,,,,,,2019_Mar_28_1706,60.66705855577804,Cloud_Experiment_FR_REAL,001,30,
images/fcloud65-35_D1.7_10.tif,1.7,1,,,,,,,,,,,,,0,132,132,87,,,,,,,,,,,1,space,4.54208269995,1,0.768,,,,,,,,,,,,,,,,,,2019_Mar_28_1706,60.66705855577804,Cloud_Experiment_FR_REAL,001,30,
images/fcloud65-35_D0.9_8.tif,0.9,1,,,,,,,,,,,,,0,133,133,53,,,,,,,,,,,1,space,7.67346830002,1,2.098,,,,,,,,,,,,,,,,,,2019_Mar_28_1706,60.66705855577804,Cloud_Experiment_FR_REAL,001,30,
images/fcloud80-20_D1.5_8.tif,1.5,2,,,,,,,,,,,,,0,134,134,125,,,,,,,,,,,1,space,5.99296269997,1,0.536,,,,,,,,,,,,,,,,,,2019_Mar_28_1706,60.66705855577804,Cloud_Experiment_FR_REAL,001,30,
images/fcloud_D1.1_9.tif,1.1,0,,,,,,,,,,,,,0,135,135,14,,,,,,,,,,,2,space,6.75037760008,1,0.535,,,,,,,,,,,,,,,,,,2019_Mar_28_1706,60.66705855577804,Cloud_Experiment_FR_REAL,001,30,
images/fcloud_D1.9_10.tif,1.9,0,,,,,,,,,,,,,0,136,136,47,,,,,,,,,,,1,space,4.27792279993,3,1.752,,,,,,,,,,,,,,,,,,2019_Mar_28_1706,60.66705855577804,Cloud_Experiment_FR_REAL,001,30,
images/fcloud80-20_D1.5_10.tif,1.5,2,,,,,,,,,,,,,0,137,137,127,,,,,,,,,,,1,space,1.57401370001,1,0.819,,,,,,,,,,,,,,,,,,2019_Mar_28_1706,60.66705855577804,Cloud_Experiment_FR_REAL,001,30,
images/fcloud80-20_D1.3_7.tif,1.3,2,,,,,,,,,,,,,0,138,138,116,,,,,,,,,,,1,space,5.39513730002,2,2.118,,,,,,,,,,,,,,,,,,2019_Mar_28_1706,60.66705855577804,Cloud_Experiment_FR_REAL,001,30,
images/fcloud_D1.8_8.tif,1.8,0,,,,,,,,,,,,,0,139,139,41,,,,,,,,,,,1,space,2.29497190006,1,2.089,,,,,,,,,,,,,,,,,,2019_Mar_28_1706,60.66705855577804,Cloud_Experiment_FR_REAL,001,30,
images/fcloud65-35_D1.4_7.tif,1.4,1,,,,,,,,,,,,,0,140,140,72,,,,,,,,,,,None,None,,None,11.708,,,,,,,,,,,,,,,,,,2019_Mar_28_1706,60.66705855577804,Cloud_Experiment_FR_REAL,001,30,
images/fcloud65-35_D1.8_10.tif,1.8,1,,,,,,,,,,,,,0,141,141,91,,,,,,,,,,,None,None,,None,20.583,,,,,,,,,,,,,,,,,,2019_Mar_28_1706,60.66705855577804,Cloud_Experiment_FR_REAL,001,30,
images/fcloud_D1.7_10.tif,1.7,0,,,,,,,,,,,,,0,142,142,39,,,,,,,,,,,1,space,5.37475429999,1,0.586,,,,,,,,,,,,,,,,,,2019_Mar_28_1706,60.66705855577804,Cloud_Experiment_FR_REAL,001,30,
images/fcloud80-20_D0.8_9.tif,0.8,2,,,,,,,,,,,,,0,143,143,98,,,,,,,,,,,1,space,2.93343219999,1,1.001,,,,,,,,,,,,,,,,,,2019_Mar_28_1706,60.66705855577804,Cloud_Experiment_FR_REAL,001,30,
,,,,,,,,,,,,,,,,,,,,,,,,,3,10.083,,,,,,,,,,,,,,,,,,,,,,,,,2019_Mar_28_1706,60.66705855577804,Cloud_Experiment_FR_REAL,001,30,
,,,,,,,,,,,,,,,,,,,,,,,,,,,,,,,,,,4,,,,,,,,,,,,,,,,,2019_Mar_28_1706,60.66705855577804,Cloud_Experiment_FR_REAL,001,30,
,,,,,,,,,,,,,,,,,,,,,,,,,,,,,,,,,,,3,,,,,,,,,,,,,,,,2019_Mar_28_1706,60.66705855577804,Cloud_Experiment_FR_REAL,001,30,
,,,,,,,,,,,,,,,,,,,,,,,,,,,,,,,,,,,,2,,,,,,,,,,,,,,,2019_Mar_28_1706,60.66705855577804,Cloud_Experiment_FR_REAL,001,30,
,,,,,,,,,,,,,,,,,,,,,,,,,,,,,,,,,,,,,3,,,,,,,,,,,,,,2019_Mar_28_1706,60.66705855577804,Cloud_Experiment_FR_REAL,001,30,
,,,,,,,,,,,,,,,,,,,,,,,,,,,,,,,,,,,,,,3,,,,,,,,,,,,,2019_Mar_28_1706,60.66705855577804,Cloud_Experiment_FR_REAL,001,30,
,,,,,,,,,,,,,,,,,,,,,,,,,,,,,,,,,,,,,,,3,,,,,,,,,,,,2019_Mar_28_1706,60.66705855577804,Cloud_Experiment_FR_REAL,001,30,
,,,,,,,,,,,,,,,,,,,,,,,,,,,,,,,,,,,,,,,,4,,,,,,,,,,,2019_Mar_28_1706,60.66705855577804,Cloud_Experiment_FR_REAL,001,30,
,,,,,,,,,,,,,,,,,,,,,,,,,,,,,,,,,,,,,,,,,7,,,,,,,,,,2019_Mar_28_1706,60.66705855577804,Cloud_Experiment_FR_REAL,001,30,
,,,,,,,,,,,,,,,,,,,,,,,,,,,,,,,,,,,,,,,,,,7,,,,,,,,,2019_Mar_28_1706,60.66705855577804,Cloud_Experiment_FR_REAL,001,30,
,,,,,,,,,,,,,,,,,,,,,,,,,,,,,,,,,,,,,,,,,,,4,,,,,,,,2019_Mar_28_1706,60.66705855577804,Cloud_Experiment_FR_REAL,001,30,
,,,,,,,,,,,,,,,,,,,,,,,,,,,,,,,,,,,,,,,,,,,,,,,,,,3,2019_Mar_28_1706,60.66705855577804,Cloud_Experiment_FR_REAL,001,30,
