ImageFile,FD,Contrast,trials_4.thisRepN,trials_4.thisTrialN,trials_4.thisN,trials_4.thisIndex,trials.thisRepN,trials.thisTrialN,trials.thisN,trials.thisIndex,trials_2.thisRepN,trials_2.thisTrialN,trials_2.thisN,trials_2.thisIndex,trials_3.thisRepN,trials_3.thisTrialN,trials_3.thisN,trials_3.thisIndex,end_instructions.keys,end_instructions.rt,key_resp_4.keys,key_resp_4.rt,key_resp_6.keys,key_resp_6.rt,Fatigue.response,Fatigue.rt,key_resp_5.keys,key_resp_5.rt,n_objets.response,reaction_time.keys,vividness.response,vividness.rt,reaction_time.rt,Flow01.response,Flow02.response,Flow03.response,Flow04.response,Flow05.response,Flow06.response,Flow07.response,Flow08.response,Flow09.response,Flow10.response,key_resp_2.keys,key_resp_2.rt,key_resp_8.keys,key_resp_8.rt,key_resp_3.keys,key_resp_3.rt,Redondance_question.response,date,frameRate,expName,session,participant,
,,,,,,,,,,,,,,,,,,,space,18.2714936,,,,,,,,,,,,,,,,,,,,,,,,,,,,,,,2019_Apr_04_1555,59.91288667600263,Cloud_Experiment_FR_REAL,001,31,
,,,,,,,,,,,,,,,,,,,,,space,191.0336494,,,,,,,,,,,,,,,,,,,,,,,,,,,,,2019_Apr_04_1555,59.91288667600263,Cloud_Experiment_FR_REAL,001,31,
,,,,,,,,,,,,,,,,,,,,,,,space,18.1529034,,,,,,,,,,,,,,,,,,,,,,,,,,,2019_Apr_04_1555,59.91288667600263,Cloud_Experiment_FR_REAL,001,31,
,,,,,,,,,,,,,,,,,,,,,,,,,7,102.058,,,,,,,,,,,,,,,,,,,,,,,,,2019_Apr_04_1555,59.91288667600263,Cloud_Experiment_FR_REAL,001,31,
,,,,,,,,,,,,,,,,,,,,,,,,,,,space,8.9269818,,,,,,,,,,,,,,,,,,,,,,,2019_Apr_04_1555,59.91288667600263,Cloud_Experiment_FR_REAL,001,31,
pratique/fcloud_D1.6_28,1.6,0,0,0,0,5,,,,,,,,,,,,,,,,,,,,,,,None,None,None,350.378,,,,,,,,,,,,,,,,,,,2019_Apr_04_1555,59.91288667600263,Cloud_Experiment_FR_REAL,001,31,
pratique/fcloud65-35_D1.2_30,1.2,1,0,1,1,3,,,,,,,,,,,,,,,,,,,,,,,None,None,None,359.835,,,,,,,,,,,,,,,,,,,2019_Apr_04_1555,59.91288667600263,Cloud_Experiment_FR_REAL,001,31,
pratique/fcloud80-20_D1_30,1.0,2,0,2,2,9,,,,,,,,,,,,,,,,,,,,,,,None,None,None,368.711,,,,,,,,,,,,,,,,,,,2019_Apr_04_1555,59.91288667600263,Cloud_Experiment_FR_REAL,001,31,
pratique/fcloud80-20_D1.5_30,1.5,2,0,3,3,8,,,,,,,,,,,,,,,,,,,,,,,1,None,3,4.132,,,,,,,,,,,,,,,,,,,2019_Apr_04_1555,59.91288667600263,Cloud_Experiment_FR_REAL,001,31,
pratique/fcloud65-35_D1.6_30,1.6,1,0,4,4,2,,,,,,,,,,,,,,,,,,,,,,,None,None,None,13.523,,,,,,,,,,,,,,,,,,,2019_Apr_04_1555,59.91288667600263,Cloud_Experiment_FR_REAL,001,31,
pratique/fcloud65-35_D1.3_30,1.3,1,0,5,5,6,,,,,,,,,,,,,,,,,,,,,,,None,None,None,23.114,,,,,,,,,,,,,,,,,,,2019_Apr_04_1555,59.91288667600263,Cloud_Experiment_FR_REAL,001,31,
pratique/fcloud65-35_D1.9_29,1.9,1,0,6,6,7,,,,,,,,,,,,,,,,,,,,,,,1,space,4,1.517,5.3868339,,,,,,,,,,,,,,,,,,2019_Apr_04_1555,59.91288667600263,Cloud_Experiment_FR_REAL,001,31,
pratique/fcloud_D0.8_30,0.8,0,0,7,7,0,,,,,,,,,,,,,,,,,,,,,,,2,space,2,5.63,5.42097770004,,,,,,,,,,,,,,,,,,2019_Apr_04_1555,59.91288667600263,Cloud_Experiment_FR_REAL,001,31,
pratique/fcloud_D1.4_30,1.4,0,0,8,8,1,,,,,,,,,,,,,,,,,,,,,,,1,None,2,5.164,,,,,,,,,,,,,,,,,,,2019_Apr_04_1555,59.91288667600263,Cloud_Experiment_FR_REAL,001,31,
pratique/fcloud80-20_D1.8_30,1.8,2,0,9,9,4,,,,,,,,,,,,,,,,,,,,,,,1,None,4,2.599,,,,,,,,,,,,,,,,,,,2019_Apr_04_1555,59.91288667600263,Cloud_Experiment_FR_REAL,001,31,
,,,,,,,,,,,,,,,,,,,,,,,,,,,,,,,,,,4,,,,,,,,,,,,,,,,,2019_Apr_04_1555,59.91288667600263,Cloud_Experiment_FR_REAL,001,31,
,,,,,,,,,,,,,,,,,,,,,,,,,,,,,,,,,,,3,,,,,,,,,,,,,,,,2019_Apr_04_1555,59.91288667600263,Cloud_Experiment_FR_REAL,001,31,
,,,,,,,,,,,,,,,,,,,,,,,,,,,,,,,,,,,,5,,,,,,,,,,,,,,,2019_Apr_04_1555,59.91288667600263,Cloud_Experiment_FR_REAL,001,31,
,,,,,,,,,,,,,,,,,,,,,,,,,,,,,,,,,,,,,5,,,,,,,,,,,,,,2019_Apr_04_1555,59.91288667600263,Cloud_Experiment_FR_REAL,001,31,
,,,,,,,,,,,,,,,,,,,,,,,,,,,,,,,,,,,,,,5,,,,,,,,,,,,,2019_Apr_04_1555,59.91288667600263,Cloud_Experiment_FR_REAL,001,31,
,,,,,,,,,,,,,,,,,,,,,,,,,,,,,,,,,,,,,,,4,,,,,,,,,,,,2019_Apr_04_1555,59.91288667600263,Cloud_Experiment_FR_REAL,001,31,
,,,,,,,,,,,,,,,,,,,,,,,,,,,,,,,,,,,,,,,,3,,,,,,,,,,,2019_Apr_04_1555,59.91288667600263,Cloud_Experiment_FR_REAL,001,31,
,,,,,,,,,,,,,,,,,,,,,,,,,,,,,,,,,,,,,,,,,7,,,,,,,,,,2019_Apr_04_1555,59.91288667600263,Cloud_Experiment_FR_REAL,001,31,
,,,,,,,,,,,,,,,,,,,,,,,,,,,,,,,,,,,,,,,,,,6,,,,,,,,,2019_Apr_04_1555,59.91288667600263,Cloud_Experiment_FR_REAL,001,31,
,,,,,,,,,,,,,,,,,,,,,,,,,,,,,,,,,,,,,,,,,,,2,,,,,,,,2019_Apr_04_1555,59.91288667600263,Cloud_Experiment_FR_REAL,001,31,
,,,,,,,,,,,,,,,,,,,,,,,,,,,,,,,,,,,,,,,,,,,,space,1.28265900002,,,,,,2019_Apr_04_1555,59.91288667600263,Cloud_Experiment_FR_REAL,001,31,
images/fcloud_D1.1_1.tif,1.1,0,,,,,0,0,0,9,,,,,,,,,,,,,,,,,,,None,None,None,188.288,,,,,,,,,,,,,,,,,,,2019_Apr_04_1555,59.91288667600263,Cloud_Experiment_FR_REAL,001,31,
images/fcloud_D1.9_1.tif,1.9,0,,,,,0,1,1,33,,,,,,,,,,,,,,,,,,,None,None,None,197.012,,,,,,,,,,,,,,,,,,,2019_Apr_04_1555,59.91288667600263,Cloud_Experiment_FR_REAL,001,31,
images/fcloud80-20_D1.4_3.tif,1.4,2,,,,,0,2,2,92,,,,,,,,,,,,,,,,,,,None,None,None,205.322,,,,,,,,,,,,,,,,,,,2019_Apr_04_1555,59.91288667600263,Cloud_Experiment_FR_REAL,001,31,
images/fcloud80-20_D1.2_2.tif,1.2,2,,,,,0,3,3,85,,,,,,,,,,,,,,,,,,,None,None,None,214.015,,,,,,,,,,,,,,,,,,,2019_Apr_04_1555,59.91288667600263,Cloud_Experiment_FR_REAL,001,31,
images/fcloud_D1.4_3.tif,1.4,0,,,,,0,4,4,20,,,,,,,,,,,,,,,,,,,1,None,3,1.467,,,,,,,,,,,,,,,,,,,2019_Apr_04_1555,59.91288667600263,Cloud_Experiment_FR_REAL,001,31,
images/fcloud65-35_D1.1_3.tif,1.1,1,,,,,0,5,5,47,,,,,,,,,,,,,,,,,,,None,None,None,11.008,,,,,,,,,,,,,,,,,,,2019_Apr_04_1555,59.91288667600263,Cloud_Experiment_FR_REAL,001,31,
images/fcloud_D1.9_3.tif,1.9,0,,,,,0,6,6,35,,,,,,,,,,,,,,,,,,,None,None,None,22.768,,,,,,,,,,,,,,,,,,,2019_Apr_04_1555,59.91288667600263,Cloud_Experiment_FR_REAL,001,31,
images/fcloud_D1.2_2.tif,1.2,0,,,,,0,7,7,13,,,,,,,,,,,,,,,,,,,2,space,3,1.484,5.3235235,,,,,,,,,,,,,,,,,,2019_Apr_04_1555,59.91288667600263,Cloud_Experiment_FR_REAL,001,31,
images/fcloud_D1.3_1.tif,1.3,0,,,,,0,8,8,15,,,,,,,,,,,,,,,,,,,3,space,3,1.935,6.11918810004,,,,,,,,,,,,,,,,,,2019_Apr_04_1555,59.91288667600263,Cloud_Experiment_FR_REAL,001,31,
images/fcloud_D1.8_2.tif,1.8,0,,,,,0,9,9,31,,,,,,,,,,,,,,,,,,,None,None,None,11.474,,,,,,,,,,,,,,,,,,,2019_Apr_04_1555,59.91288667600263,Cloud_Experiment_FR_REAL,001,31,
images/fcloud65-35_D1.7_2.tif,1.7,1,,,,,0,10,10,64,,,,,,,,,,,,,,,,,,,None,None,None,20.882,,,,,,,,,,,,,,,,,,,2019_Apr_04_1555,59.91288667600263,Cloud_Experiment_FR_REAL,001,31,
images/fcloud80-20_D1.7_3.tif,1.7,2,,,,,0,11,11,101,,,,,,,,,,,,,,,,,,,1,space,2,0.985,6.34349449998,,,,,,,,,,,,,,,,,,2019_Apr_04_1555,59.91288667600263,Cloud_Experiment_FR_REAL,001,31,
images/fcloud80-20_D1.3_1.tif,1.3,2,,,,,0,12,12,87,,,,,,,,,,,,,,,,,,,None,None,None,10.559,,,,,,,,,,,,,,,,,,,2019_Apr_04_1555,59.91288667600263,Cloud_Experiment_FR_REAL,001,31,
images/fcloud80-20_D0.8_1.tif,0.8,2,,,,,0,13,13,72,,,,,,,,,,,,,,,,,,,None,None,None,18.784,,,,,,,,,,,,,,,,,,,2019_Apr_04_1555,59.91288667600263,Cloud_Experiment_FR_REAL,001,31,
images/fcloud65-35_D1.9_3.tif,1.9,1,,,,,0,14,14,71,,,,,,,,,,,,,,,,,,,2,None,2,1.583,,,,,,,,,,,,,,,,,,,2019_Apr_04_1555,59.91288667600263,Cloud_Experiment_FR_REAL,001,31,
images/fcloud80-20_D1.9_2.tif,1.9,2,,,,,0,15,15,106,,,,,,,,,,,,,,,,,,,None,None,None,11.09,,,,,,,,,,,,,,,,,,,2019_Apr_04_1555,59.91288667600263,Cloud_Experiment_FR_REAL,001,31,
images/fcloud80-20_D1.5_1.tif,1.5,2,,,,,0,16,16,93,,,,,,,,,,,,,,,,,,,None,None,None,20.248,,,,,,,,,,,,,,,,,,,2019_Apr_04_1555,59.91288667600263,Cloud_Experiment_FR_REAL,001,31,
images/fcloud80-20_D1.5_3.tif,1.5,2,,,,,0,17,17,95,,,,,,,,,,,,,,,,,,,None,None,None,29.424,,,,,,,,,,,,,,,,,,,2019_Apr_04_1555,59.91288667600263,Cloud_Experiment_FR_REAL,001,31,
images/fcloud65-35_D1.4_1.tif,1.4,1,,,,,0,18,18,54,,,,,,,,,,,,,,,,,,,2,space,3,0.968,4.13766469999,,,,,,,,,,,,,,,,,,2019_Apr_04_1555,59.91288667600263,Cloud_Experiment_FR_REAL,001,31,
images/fcloud_D1.5_2.tif,1.5,0,,,,,0,19,19,22,,,,,,,,,,,,,,,,,,,1,space,2,5.08,7.25755069999,,,,,,,,,,,,,,,,,,2019_Apr_04_1555,59.91288667600263,Cloud_Experiment_FR_REAL,001,31,
images/fcloud80-20_D1.9_1.tif,1.9,2,,,,,0,20,20,105,,,,,,,,,,,,,,,,,,,1,space,2,1.467,6.10963349999,,,,,,,,,,,,,,,,,,2019_Apr_04_1555,59.91288667600263,Cloud_Experiment_FR_REAL,001,31,
images/fcloud80-20_D1.2_1.tif,1.2,2,,,,,0,21,21,84,,,,,,,,,,,,,,,,,,,1,None,1,0.685,,,,,,,,,,,,,,,,,,,2019_Apr_04_1555,59.91288667600263,Cloud_Experiment_FR_REAL,001,31,
images/fcloud80-20_D1.7_2.tif,1.7,2,,,,,0,22,22,100,,,,,,,,,,,,,,,,,,,2,space,3,1.0,2.66635819996,,,,,,,,,,,,,,,,,,2019_Apr_04_1555,59.91288667600263,Cloud_Experiment_FR_REAL,001,31,
images/fcloud_D1.7_3.tif,1.7,0,,,,,0,23,23,29,,,,,,,,,,,,,,,,,,,1,None,1,2.816,,,,,,,,,,,,,,,,,,,2019_Apr_04_1555,59.91288667600263,Cloud_Experiment_FR_REAL,001,31,
images/fcloud65-35_D1.6_1.tif,1.6,1,,,,,0,24,24,60,,,,,,,,,,,,,,,,,,,2,space,2,0.884,3.83268619998,,,,,,,,,,,,,,,,,,2019_Apr_04_1555,59.91288667600263,Cloud_Experiment_FR_REAL,001,31,
images/fcloud80-20_D1.6_3.tif,1.6,2,,,,,0,25,25,98,,,,,,,,,,,,,,,,,,,None,None,None,11.107,,,,,,,,,,,,,,,,,,,2019_Apr_04_1555,59.91288667600263,Cloud_Experiment_FR_REAL,001,31,
images/fcloud_D1.3_2.tif,1.3,0,,,,,0,26,26,16,,,,,,,,,,,,,,,,,,,3,space,3,0.736,2.89572240005,,,,,,,,,,,,,,,,,,2019_Apr_04_1555,59.91288667600263,Cloud_Experiment_FR_REAL,001,31,
images/fcloud_D0.9_1.tif,0.9,0,,,,,0,27,27,3,,,,,,,,,,,,,,,,,,,1,space,1,0.668,2.68018530001,,,,,,,,,,,,,,,,,,2019_Apr_04_1555,59.91288667600263,Cloud_Experiment_FR_REAL,001,31,
images/fcloud65-35_D0.9_3.tif,0.9,1,,,,,0,28,28,41,,,,,,,,,,,,,,,,,,,None,None,None,9.693,,,,,,,,,,,,,,,,,,,2019_Apr_04_1555,59.91288667600263,Cloud_Experiment_FR_REAL,001,31,
images/fcloud80-20_D1.1_3.tif,1.1,2,,,,,0,29,29,83,,,,,,,,,,,,,,,,,,,1,space,2,1.768,1.73993849999,,,,,,,,,,,,,,,,,,2019_Apr_04_1555,59.91288667600263,Cloud_Experiment_FR_REAL,001,31,
images/fcloud80-20_D1.3_3.tif,1.3,2,,,,,0,30,30,89,,,,,,,,,,,,,,,,,,,None,None,None,11.091,,,,,,,,,,,,,,,,,,,2019_Apr_04_1555,59.91288667600263,Cloud_Experiment_FR_REAL,001,31,
images/fcloud_D1_2.tif,1.0,0,,,,,0,31,31,7,,,,,,,,,,,,,,,,,,,2,space,1,1.651,4.77731750003,,,,,,,,,,,,,,,,,,2019_Apr_04_1555,59.91288667600263,Cloud_Experiment_FR_REAL,001,31,
images/fcloud_D1.8_1.tif,1.8,0,,,,,0,32,32,30,,,,,,,,,,,,,,,,,,,3,space,2,1.618,3.36977719999,,,,,,,,,,,,,,,,,,2019_Apr_04_1555,59.91288667600263,Cloud_Experiment_FR_REAL,001,31,
images/fcloud_D1.7_2.tif,1.7,0,,,,,0,33,33,28,,,,,,,,,,,,,,,,,,,1,None,2,1.634,,,,,,,,,,,,,,,,,,,2019_Apr_04_1555,59.91288667600263,Cloud_Experiment_FR_REAL,001,31,
images/fcloud65-35_D1_1.tif,1.0,1,,,,,0,34,34,42,,,,,,,,,,,,,,,,,,,2,space,2,1.768,1.76441800001,,,,,,,,,,,,,,,,,,2019_Apr_04_1555,59.91288667600263,Cloud_Experiment_FR_REAL,001,31,
images/fcloud_D1.2_3.tif,1.2,0,,,,,0,35,35,14,,,,,,,,,,,,,,,,,,,1,space,2,1.017,4.5988949,,,,,,,,,,,,,,,,,,2019_Apr_04_1555,59.91288667600263,Cloud_Experiment_FR_REAL,001,31,
images/fcloud80-20_D0.9_2.tif,0.9,2,,,,,0,36,36,76,,,,,,,,,,,,,,,,,,,None,None,None,9.475,,,,,,,,,,,,,,,,,,,2019_Apr_04_1555,59.91288667600263,Cloud_Experiment_FR_REAL,001,31,
images/fcloud65-35_D1.9_2.tif,1.9,1,,,,,0,37,37,70,,,,,,,,,,,,,,,,,,,None,None,None,17.867,,,,,,,,,,,,,,,,,,,2019_Apr_04_1555,59.91288667600263,Cloud_Experiment_FR_REAL,001,31,
images/fcloud80-20_D1_1.tif,1.0,2,,,,,0,38,38,78,,,,,,,,,,,,,,,,,,,None,None,None,26.759,,,,,,,,,,,,,,,,,,,2019_Apr_04_1555,59.91288667600263,Cloud_Experiment_FR_REAL,001,31,
images/fcloud_D1.8_3.tif,1.8,0,,,,,0,39,39,32,,,,,,,,,,,,,,,,,,,2,space,3,0.884,5.35940710001,,,,,,,,,,,,,,,,,,2019_Apr_04_1555,59.91288667600263,Cloud_Experiment_FR_REAL,001,31,
images/fcloud_D1.6_2.tif,1.6,0,,,,,0,40,40,25,,,,,,,,,,,,,,,,,,,3,space,2,0.768,4.28355220001,,,,,,,,,,,,,,,,,,2019_Apr_04_1555,59.91288667600263,Cloud_Experiment_FR_REAL,001,31,
images/fcloud65-35_D1.1_1.tif,1.1,1,,,,,0,41,41,45,,,,,,,,,,,,,,,,,,,2,space,1,1.385,3.19090410002,,,,,,,,,,,,,,,,,,2019_Apr_04_1555,59.91288667600263,Cloud_Experiment_FR_REAL,001,31,
images/fcloud_D1.9_2.tif,1.9,0,,,,,0,42,42,34,,,,,,,,,,,,,,,,,,,2,space,3,2.733,2.42345050001,,,,,,,,,,,,,,,,,,2019_Apr_04_1555,59.91288667600263,Cloud_Experiment_FR_REAL,001,31,
images/fcloud65-35_D0.9_2.tif,0.9,1,,,,,0,43,43,40,,,,,,,,,,,,,,,,,,,1,space,1,0.551,2.80087449995,,,,,,,,,,,,,,,,,,2019_Apr_04_1555,59.91288667600263,Cloud_Experiment_FR_REAL,001,31,
images/fcloud65-35_D1.6_2.tif,1.6,1,,,,,0,44,44,61,,,,,,,,,,,,,,,,,,,3,space,2,1.734,2.69667100004,,,,,,,,,,,,,,,,,,2019_Apr_04_1555,59.91288667600263,Cloud_Experiment_FR_REAL,001,31,
images/fcloud65-35_D1.8_1.tif,1.8,1,,,,,0,45,45,66,,,,,,,,,,,,,,,,,,,3,space,2,1.184,2.91444980004,,,,,,,,,,,,,,,,,,2019_Apr_04_1555,59.91288667600263,Cloud_Experiment_FR_REAL,001,31,
images/fcloud65-35_D1.5_1.tif,1.5,1,,,,,0,46,46,57,,,,,,,,,,,,,,,,,,,None,None,None,10.059,,,,,,,,,,,,,,,,,,,2019_Apr_04_1555,59.91288667600263,Cloud_Experiment_FR_REAL,001,31,
images/fcloud80-20_D1_2.tif,1.0,2,,,,,0,47,47,79,,,,,,,,,,,,,,,,,,,1,space,2,0.584,2.34801359999,,,,,,,,,,,,,,,,,,2019_Apr_04_1555,59.91288667600263,Cloud_Experiment_FR_REAL,001,31,
images/fcloud65-35_D1.3_3.tif,1.3,1,,,,,0,48,48,53,,,,,,,,,,,,,,,,,,,1,space,3,4.515,1.67746829998,,,,,,,,,,,,,,,,,,2019_Apr_04_1555,59.91288667600263,Cloud_Experiment_FR_REAL,001,31,
images/fcloud65-35_D1.2_1.tif,1.2,1,,,,,0,49,49,48,,,,,,,,,,,,,,,,,,,None,None,None,13.538,,,,,,,,,,,,,,,,,,,2019_Apr_04_1555,59.91288667600263,Cloud_Experiment_FR_REAL,001,31,
images/fcloud80-20_D1.8_3.tif,1.8,2,,,,,0,50,50,104,,,,,,,,,,,,,,,,,,,4,space,2,0.951,4.41621549998,,,,,,,,,,,,,,,,,,2019_Apr_04_1555,59.91288667600263,Cloud_Experiment_FR_REAL,001,31,
images/fcloud80-20_D0.8_3.tif,0.8,2,,,,,0,51,51,74,,,,,,,,,,,,,,,,,,,2,space,2,1.317,1.40254579997,,,,,,,,,,,,,,,,,,2019_Apr_04_1555,59.91288667600263,Cloud_Experiment_FR_REAL,001,31,
images/fcloud_D1.5_3.tif,1.5,0,,,,,0,52,52,23,,,,,,,,,,,,,,,,,,,1,space,1,1.018,5.97710690001,,,,,,,,,,,,,,,,,,2019_Apr_04_1555,59.91288667600263,Cloud_Experiment_FR_REAL,001,31,
images/fcloud65-35_D1_3.tif,1.0,1,,,,,0,53,53,44,,,,,,,,,,,,,,,,,,,2,space,3,0.668,6.23644890002,,,,,,,,,,,,,,,,,,2019_Apr_04_1555,59.91288667600263,Cloud_Experiment_FR_REAL,001,31,
images/fcloud_D1.6_3.tif,1.6,0,,,,,0,54,54,26,,,,,,,,,,,,,,,,,,,2,space,2,0.768,3.35442839999,,,,,,,,,,,,,,,,,,2019_Apr_04_1555,59.91288667600263,Cloud_Experiment_FR_REAL,001,31,
images/fcloud80-20_D1.6_2.tif,1.6,2,,,,,0,55,55,97,,,,,,,,,,,,,,,,,,,2,space,3,0.685,4.37181839999,,,,,,,,,,,,,,,,,,2019_Apr_04_1555,59.91288667600263,Cloud_Experiment_FR_REAL,001,31,
images/fcloud65-35_D0.8_3.tif,0.8,1,,,,,0,56,56,38,,,,,,,,,,,,,,,,,,,1,space,3,1.2,6.51113330002,,,,,,,,,,,,,,,,,,2019_Apr_04_1555,59.91288667600263,Cloud_Experiment_FR_REAL,001,31,
images/fcloud80-20_D0.8_2.tif,0.8,2,,,,,0,57,57,73,,,,,,,,,,,,,,,,,,,2,space,1,2.184,6.9334869,,,,,,,,,,,,,,,,,,2019_Apr_04_1555,59.91288667600263,Cloud_Experiment_FR_REAL,001,31,
images/fcloud_D1.6_1.tif,1.6,0,,,,,0,58,58,24,,,,,,,,,,,,,,,,,,,3,space,2,4.015,4.65388929995,,,,,,,,,,,,,,,,,,2019_Apr_04_1555,59.91288667600263,Cloud_Experiment_FR_REAL,001,31,
images/fcloud65-35_D1.8_2.tif,1.8,1,,,,,0,59,59,67,,,,,,,,,,,,,,,,,,,1,space,3,1.7,7.79516949999,,,,,,,,,,,,,,,,,,2019_Apr_04_1555,59.91288667600263,Cloud_Experiment_FR_REAL,001,31,
images/fcloud_D1.7_1.tif,1.7,0,,,,,0,60,60,27,,,,,,,,,,,,,,,,,,,2,space,3,1.269,5.78905300004,,,,,,,,,,,,,,,,,,2019_Apr_04_1555,59.91288667600263,Cloud_Experiment_FR_REAL,001,31,
images/fcloud65-35_D1.5_3.tif,1.5,1,,,,,0,61,61,59,,,,,,,,,,,,,,,,,,,None,None,None,10.292,,,,,,,,,,,,,,,,,,,2019_Apr_04_1555,59.91288667600263,Cloud_Experiment_FR_REAL,001,31,
images/fcloud_D1.1_2.tif,1.1,0,,,,,0,62,62,10,,,,,,,,,,,,,,,,,,,1,space,2,1.101,4.69892469997,,,,,,,,,,,,,,,,,,2019_Apr_04_1555,59.91288667600263,Cloud_Experiment_FR_REAL,001,31,
images/fcloud80-20_D1.5_2.tif,1.5,2,,,,,0,63,63,94,,,,,,,,,,,,,,,,,,,2,space,3,1.284,6.32061430003,,,,,,,,,,,,,,,,,,2019_Apr_04_1555,59.91288667600263,Cloud_Experiment_FR_REAL,001,31,
images/fcloud80-20_D1.2_3.tif,1.2,2,,,,,0,64,64,86,,,,,,,,,,,,,,,,,,,1,space,2,0.684,6.51833280001,,,,,,,,,,,,,,,,,,2019_Apr_04_1555,59.91288667600263,Cloud_Experiment_FR_REAL,001,31,
images/fcloud_D0.8_1.tif,0.8,0,,,,,0,65,65,0,,,,,,,,,,,,,,,,,,,1,None,1,0.801,,,,,,,,,,,,,,,,,,,2019_Apr_04_1555,59.91288667600263,Cloud_Experiment_FR_REAL,001,31,
images/fcloud65-35_D1.9_1.tif,1.9,1,,,,,0,66,66,69,,,,,,,,,,,,,,,,,,,2,space,3,1.185,5.73178460001,,,,,,,,,,,,,,,,,,2019_Apr_04_1555,59.91288667600263,Cloud_Experiment_FR_REAL,001,31,
images/fcloud65-35_D1.1_2.tif,1.1,1,,,,,0,67,67,46,,,,,,,,,,,,,,,,,,,None,None,None,10.025,,,,,,,,,,,,,,,,,,,2019_Apr_04_1555,59.91288667600263,Cloud_Experiment_FR_REAL,001,31,
images/fcloud_D1.5_1.tif,1.5,0,,,,,0,68,68,21,,,,,,,,,,,,,,,,,,,2,None,3,0.868,,,,,,,,,,,,,,,,,,,2019_Apr_04_1555,59.91288667600263,Cloud_Experiment_FR_REAL,001,31,
images/fcloud_D1_3.tif,1.0,0,,,,,0,69,69,8,,,,,,,,,,,,,,,,,,,2,space,2,1.517,1.94807350001,,,,,,,,,,,,,,,,,,2019_Apr_04_1555,59.91288667600263,Cloud_Experiment_FR_REAL,001,31,
images/fcloud65-35_D0.9_1.tif,0.9,1,,,,,0,70,70,39,,,,,,,,,,,,,,,,,,,None,None,None,10.309,,,,,,,,,,,,,,,,,,,2019_Apr_04_1555,59.91288667600263,Cloud_Experiment_FR_REAL,001,31,
images/fcloud80-20_D1.1_1.tif,1.1,2,,,,,0,71,71,81,,,,,,,,,,,,,,,,,,,3,space,2,1.85,2.91694369999,,,,,,,,,,,,,,,,,,2019_Apr_04_1555,59.91288667600263,Cloud_Experiment_FR_REAL,001,31,
images/fcloud80-20_D1.9_3.tif,1.9,2,,,,,0,72,72,107,,,,,,,,,,,,,,,,,,,None,None,None,11.774,,,,,,,,,,,,,,,,,,,2019_Apr_04_1555,59.91288667600263,Cloud_Experiment_FR_REAL,001,31,
images/fcloud_D1_1.tif,1.0,0,,,,,0,73,73,6,,,,,,,,,,,,,,,,,,,None,None,None,20.85,,,,,,,,,,,,,,,,,,,2019_Apr_04_1555,59.91288667600263,Cloud_Experiment_FR_REAL,001,31,
images/fcloud80-20_D0.9_1.tif,0.9,2,,,,,0,74,74,75,,,,,,,,,,,,,,,,,,,None,None,None,29.425,,,,,,,,,,,,,,,,,,,2019_Apr_04_1555,59.91288667600263,Cloud_Experiment_FR_REAL,001,31,
images/fcloud80-20_D1.7_1.tif,1.7,2,,,,,0,75,75,99,,,,,,,,,,,,,,,,,,,3,space,2,2.05,3.89371160005,,,,,,,,,,,,,,,,,,2019_Apr_04_1555,59.91288667600263,Cloud_Experiment_FR_REAL,001,31,
images/fcloud65-35_D0.8_2.tif,0.8,1,,,,,0,76,76,37,,,,,,,,,,,,,,,,,,,None,None,None,10.924,,,,,,,,,,,,,,,,,,,2019_Apr_04_1555,59.91288667600263,Cloud_Experiment_FR_REAL,001,31,
images/fcloud65-35_D1.3_1.tif,1.3,1,,,,,0,77,77,51,,,,,,,,,,,,,,,,,,,2,space,1,1.334,2.04172859999,,,,,,,,,,,,,,,,,,2019_Apr_04_1555,59.91288667600263,Cloud_Experiment_FR_REAL,001,31,
images/fcloud65-35_D1.4_3.tif,1.4,1,,,,,0,78,78,56,,,,,,,,,,,,,,,,,,,None,None,None,10.326,,,,,,,,,,,,,,,,,,,2019_Apr_04_1555,59.91288667600263,Cloud_Experiment_FR_REAL,001,31,
images/fcloud_D1.3_3.tif,1.3,0,,,,,0,79,79,17,,,,,,,,,,,,,,,,,,,3,space,2,1.001,1.35165740002,,,,,,,,,,,,,,,,,,2019_Apr_04_1555,59.91288667600263,Cloud_Experiment_FR_REAL,001,31,
images/fcloud_D0.8_2.tif,0.8,0,,,,,0,80,80,1,,,,,,,,,,,,,,,,,,,3,space,3,2.633,4.38700709998,,,,,,,,,,,,,,,,,,2019_Apr_04_1555,59.91288667600263,Cloud_Experiment_FR_REAL,001,31,
images/fcloud65-35_D0.8_1.tif,0.8,1,,,,,0,81,81,36,,,,,,,,,,,,,,,,,,,None,None,None,11.925,,,,,,,,,,,,,,,,,,,2019_Apr_04_1555,59.91288667600263,Cloud_Experiment_FR_REAL,001,31,
images/fcloud65-35_D1.7_3.tif,1.7,1,,,,,0,82,82,65,,,,,,,,,,,,,,,,,,,1,space,2,2.916,2.38977960002,,,,,,,,,,,,,,,,,,2019_Apr_04_1555,59.91288667600263,Cloud_Experiment_FR_REAL,001,31,
images/fcloud80-20_D0.9_3.tif,0.9,2,,,,,0,83,83,77,,,,,,,,,,,,,,,,,,,1,space,2,0.602,3.30219710001,,,,,,,,,,,,,,,,,,2019_Apr_04_1555,59.91288667600263,Cloud_Experiment_FR_REAL,001,31,
images/fcloud_D0.9_2.tif,0.9,0,,,,,0,84,84,4,,,,,,,,,,,,,,,,,,,2,space,1,1.517,6.17574610002,,,,,,,,,,,,,,,,,,2019_Apr_04_1555,59.91288667600263,Cloud_Experiment_FR_REAL,001,31,
images/fcloud_D1.4_1.tif,1.4,0,,,,,0,85,85,18,,,,,,,,,,,,,,,,,,,3,space,2,3.782,2.04269139998,,,,,,,,,,,,,,,,,,2019_Apr_04_1555,59.91288667600263,Cloud_Experiment_FR_REAL,001,31,
images/fcloud65-35_D1.7_1.tif,1.7,1,,,,,0,86,86,63,,,,,,,,,,,,,,,,,,,4,None,2,1.668,,,,,,,,,,,,,,,,,,,2019_Apr_04_1555,59.91288667600263,Cloud_Experiment_FR_REAL,001,31,
images/fcloud65-35_D1.4_2.tif,1.4,1,,,,,0,87,87,55,,,,,,,,,,,,,,,,,,,2,space,2,2.435,1.61837859999,,,,,,,,,,,,,,,,,,2019_Apr_04_1555,59.91288667600263,Cloud_Experiment_FR_REAL,001,31,
images/fcloud80-20_D1.4_1.tif,1.4,2,,,,,0,88,88,90,,,,,,,,,,,,,,,,,,,None,None,None,11.858,,,,,,,,,,,,,,,,,,,2019_Apr_04_1555,59.91288667600263,Cloud_Experiment_FR_REAL,001,31,
images/fcloud80-20_D1.1_2.tif,1.1,2,,,,,0,89,89,82,,,,,,,,,,,,,,,,,,,None,None,None,21.116,,,,,,,,,,,,,,,,,,,2019_Apr_04_1555,59.91288667600263,Cloud_Experiment_FR_REAL,001,31,
images/fcloud65-35_D1.6_3.tif,1.6,1,,,,,0,90,90,62,,,,,,,,,,,,,,,,,,,None,None,None,29.592,,,,,,,,,,,,,,,,,,,2019_Apr_04_1555,59.91288667600263,Cloud_Experiment_FR_REAL,001,31,
images/fcloud65-35_D1.2_2.tif,1.2,1,,,,,0,91,91,49,,,,,,,,,,,,,,,,,,,3,space,2,1.517,1.6670204,,,,,,,,,,,,,,,,,,2019_Apr_04_1555,59.91288667600263,Cloud_Experiment_FR_REAL,001,31,
images/fcloud80-20_D1.6_1.tif,1.6,2,,,,,0,92,92,96,,,,,,,,,,,,,,,,,,,1,space,3,1.534,6.62163339998,,,,,,,,,,,,,,,,,,2019_Apr_04_1555,59.91288667600263,Cloud_Experiment_FR_REAL,001,31,
images/fcloud_D0.8_3.tif,0.8,0,,,,,0,93,93,2,,,,,,,,,,,,,,,,,,,2,space,2,1.301,3.13841799996,,,,,,,,,,,,,,,,,,2019_Apr_04_1555,59.91288667600263,Cloud_Experiment_FR_REAL,001,31,
images/fcloud65-35_D1.8_3.tif,1.8,1,,,,,0,94,94,68,,,,,,,,,,,,,,,,,,,None,None,None,18.652,,,,,,,,,,,,,,,,,,,2019_Apr_04_1555,59.91288667600263,Cloud_Experiment_FR_REAL,001,31,
images/fcloud80-20_D1_3.tif,1.0,2,,,,,0,95,95,80,,,,,,,,,,,,,,,,,,,1,None,2,1.319,,,,,,,,,,,,,,,,,,,2019_Apr_04_1555,59.91288667600263,Cloud_Experiment_FR_REAL,001,31,
images/fcloud80-20_D1.3_2.tif,1.3,2,,,,,0,96,96,88,,,,,,,,,,,,,,,,,,,1,space,1,0.968,7.57597100001,,,,,,,,,,,,,,,,,,2019_Apr_04_1555,59.91288667600263,Cloud_Experiment_FR_REAL,001,31,
images/fcloud_D1.2_1.tif,1.2,0,,,,,0,97,97,12,,,,,,,,,,,,,,,,,,,None,None,None,10.125,,,,,,,,,,,,,,,,,,,2019_Apr_04_1555,59.91288667600263,Cloud_Experiment_FR_REAL,001,31,
images/fcloud_D1.4_2.tif,1.4,0,,,,,0,98,98,19,,,,,,,,,,,,,,,,,,,1,space,2,1.418,3.64694830001,,,,,,,,,,,,,,,,,,2019_Apr_04_1555,59.91288667600263,Cloud_Experiment_FR_REAL,001,31,
images/fcloud80-20_D1.8_2.tif,1.8,2,,,,,0,99,99,103,,,,,,,,,,,,,,,,,,,None,None,None,14.854,,,,,,,,,,,,,,,,,,,2019_Apr_04_1555,59.91288667600263,Cloud_Experiment_FR_REAL,001,31,
images/fcloud_D1.1_3.tif,1.1,0,,,,,0,100,100,11,,,,,,,,,,,,,,,,,,,2,space,3,2.699,6.96612290002,,,,,,,,,,,,,,,,,,2019_Apr_04_1555,59.91288667600263,Cloud_Experiment_FR_REAL,001,31,
images/fcloud65-35_D1.2_3.tif,1.2,1,,,,,0,101,101,50,,,,,,,,,,,,,,,,,,,None,None,None,11.907,,,,,,,,,,,,,,,,,,,2019_Apr_04_1555,59.91288667600263,Cloud_Experiment_FR_REAL,001,31,
images/fcloud65-35_D1.3_2.tif,1.3,1,,,,,0,102,102,52,,,,,,,,,,,,,,,,,,,None,None,None,20.948,,,,,,,,,,,,,,,,,,,2019_Apr_04_1555,59.91288667600263,Cloud_Experiment_FR_REAL,001,31,
images/fcloud65-35_D1.5_2.tif,1.5,1,,,,,0,103,103,58,,,,,,,,,,,,,,,,,,,2,space,1,0.901,2.01574450004,,,,,,,,,,,,,,,,,,2019_Apr_04_1555,59.91288667600263,Cloud_Experiment_FR_REAL,001,31,
images/fcloud80-20_D1.8_1.tif,1.8,2,,,,,0,104,104,102,,,,,,,,,,,,,,,,,,,None,None,None,9.992,,,,,,,,,,,,,,,,,,,2019_Apr_04_1555,59.91288667600263,Cloud_Experiment_FR_REAL,001,31,
images/fcloud80-20_D1.4_2.tif,1.4,2,,,,,0,105,105,91,,,,,,,,,,,,,,,,,,,1,None,2,0.867,,,,,,,,,,,,,,,,,,,2019_Apr_04_1555,59.91288667600263,Cloud_Experiment_FR_REAL,001,31,
images/fcloud65-35_D1_2.tif,1.0,1,,,,,0,106,106,43,,,,,,,,,,,,,,,,,,,1,space,2,1.367,2.18650129996,,,,,,,,,,,,,,,,,,2019_Apr_04_1555,59.91288667600263,Cloud_Experiment_FR_REAL,001,31,
images/fcloud_D0.9_3.tif,0.9,0,,,,,0,107,107,5,,,,,,,,,,,,,,,,,,,None,None,None,10.542,,,,,,,,,,,,,,,,,,,2019_Apr_04_1555,59.91288667600263,Cloud_Experiment_FR_REAL,001,31,
,,,,,,,,,,,,,,,,,,,,,,,,,,,,,,,,,,,,,,,,,,,,,,space,2.64708580001,,,,2019_Apr_04_1555,59.91288667600263,Cloud_Experiment_FR_REAL,001,31,
,,,,,,,,,,,,,,,,,,,,,,,,,5,21.59,,,,,,,,,,,,,,,,,,,,,,,,,2019_Apr_04_1555,59.91288667600263,Cloud_Experiment_FR_REAL,001,31,
,,,,,,,,,,,,,,,,,,,,,,,,,,,,,,,,,,4,,,,,,,,,,,,,,,,,2019_Apr_04_1555,59.91288667600263,Cloud_Experiment_FR_REAL,001,31,
,,,,,,,,,,,,,,,,,,,,,,,,,,,,,,,,,,,5,,,,,,,,,,,,,,,,2019_Apr_04_1555,59.91288667600263,Cloud_Experiment_FR_REAL,001,31,
,,,,,,,,,,,,,,,,,,,,,,,,,,,,,,,,,,,,4,,,,,,,,,,,,,,,2019_Apr_04_1555,59.91288667600263,Cloud_Experiment_FR_REAL,001,31,
,,,,,,,,,,,,,,,,,,,,,,,,,,,,,,,,,,,,,4,,,,,,,,,,,,,,2019_Apr_04_1555,59.91288667600263,Cloud_Experiment_FR_REAL,001,31,
,,,,,,,,,,,,,,,,,,,,,,,,,,,,,,,,,,,,,,3,,,,,,,,,,,,,2019_Apr_04_1555,59.91288667600263,Cloud_Experiment_FR_REAL,001,31,
,,,,,,,,,,,,,,,,,,,,,,,,,,,,,,,,,,,,,,,5,,,,,,,,,,,,2019_Apr_04_1555,59.91288667600263,Cloud_Experiment_FR_REAL,001,31,
,,,,,,,,,,,,,,,,,,,,,,,,,,,,,,,,,,,,,,,,4,,,,,,,,,,,2019_Apr_04_1555,59.91288667600263,Cloud_Experiment_FR_REAL,001,31,
,,,,,,,,,,,,,,,,,,,,,,,,,,,,,,,,,,,,,,,,,7,,,,,,,,,,2019_Apr_04_1555,59.91288667600263,Cloud_Experiment_FR_REAL,001,31,
,,,,,,,,,,,,,,,,,,,,,,,,,,,,,,,,,,,,,,,,,,6,,,,,,,,,2019_Apr_04_1555,59.91288667600263,Cloud_Experiment_FR_REAL,001,31,
,,,,,,,,,,,,,,,,,,,,,,,,,,,,,,,,,,,,,,,,,,,1,,,,,,,,2019_Apr_04_1555,59.91288667600263,Cloud_Experiment_FR_REAL,001,31,
,,,,,,,,,,,,,,,,,,,,,,,,,,,,,,,,,,,,,,,,,,,,,,,,space,1.7156924,,2019_Apr_04_1555,59.91288667600263,Cloud_Experiment_FR_REAL,001,31,
images/fcloud_D0.9_6.tif,0.9,0,,,,,,,,,0,0,0,5,,,,,,,,,,,,,,,None,None,None,119.331,,,,,,,,,,,,,,,,,,,2019_Apr_04_1555,59.91288667600263,Cloud_Experiment_FR_REAL,001,31,
images/fcloud65-35_D1_6.tif,1.0,1,,,,,,,,,0,1,1,44,,,,,,,,,,,,,,,1,space,4,1.45,2.63940039999,,,,,,,,,,,,,,,,,,2019_Apr_04_1555,59.91288667600263,Cloud_Experiment_FR_REAL,001,31,
images/fcloud65-35_D1.8_4.tif,1.8,1,,,,,,,,,0,2,2,66,,,,,,,,,,,,,,,3,space,2,1.734,4.6546529,,,,,,,,,,,,,,,,,,2019_Apr_04_1555,59.91288667600263,Cloud_Experiment_FR_REAL,001,31,
images/fcloud80-20_D1.3_5.tif,1.3,2,,,,,,,,,0,3,3,88,,,,,,,,,,,,,,,1,None,2,1.635,,,,,,,,,,,,,,,,,,,2019_Apr_04_1555,59.91288667600263,Cloud_Experiment_FR_REAL,001,31,
images/fcloud65-35_D1.8_5.tif,1.8,1,,,,,,,,,0,4,4,67,,,,,,,,,,,,,,,None,None,None,10.442,,,,,,,,,,,,,,,,,,,2019_Apr_04_1555,59.91288667600263,Cloud_Experiment_FR_REAL,001,31,
images/fcloud_D1.8_6.tif,1.8,0,,,,,,,,,0,5,5,32,,,,,,,,,,,,,,,2,space,3,0.553,2.54854699998,,,,,,,,,,,,,,,,,,2019_Apr_04_1555,59.91288667600263,Cloud_Experiment_FR_REAL,001,31,
images/fcloud65-35_D1.8_6.tif,1.8,1,,,,,,,,,0,6,6,68,,,,,,,,,,,,,,,2,space,1,0.717,6.11019559996,,,,,,,,,,,,,,,,,,2019_Apr_04_1555,59.91288667600263,Cloud_Experiment_FR_REAL,001,31,
images/fcloud65-35_D1.9_4.tif,1.9,1,,,,,,,,,0,7,7,69,,,,,,,,,,,,,,,3,None,2,5.763,,,,,,,,,,,,,,,,,,,2019_Apr_04_1555,59.91288667600263,Cloud_Experiment_FR_REAL,001,31,
images/fcloud65-35_D1.2_4.tif,1.2,1,,,,,,,,,0,8,8,48,,,,,,,,,,,,,,,None,None,None,16.003,,,,,,,,,,,,,,,,,,,2019_Apr_04_1555,59.91288667600263,Cloud_Experiment_FR_REAL,001,31,
images/fcloud_D0.8_4.tif,0.8,0,,,,,,,,,0,9,9,0,,,,,,,,,,,,,,,None,None,None,28.027,,,,,,,,,,,,,,,,,,,2019_Apr_04_1555,59.91288667600263,Cloud_Experiment_FR_REAL,001,31,
images/fcloud_D1.7_6.tif,1.7,0,,,,,,,,,0,10,10,29,,,,,,,,,,,,,,,None,None,None,36.502,,,,,,,,,,,,,,,,,,,2019_Apr_04_1555,59.91288667600263,Cloud_Experiment_FR_REAL,001,31,
images/fcloud80-20_D1.8_5.tif,1.8,2,,,,,,,,,0,11,11,103,,,,,,,,,,,,,,,2,space,3,1.468,6.7434714,,,,,,,,,,,,,,,,,,2019_Apr_04_1555,59.91288667600263,Cloud_Experiment_FR_REAL,001,31,
images/fcloud_D1.4_6.tif,1.4,0,,,,,,,,,0,12,12,20,,,,,,,,,,,,,,,2,space,3,1.167,3.20394179999,,,,,,,,,,,,,,,,,,2019_Apr_04_1555,59.91288667600263,Cloud_Experiment_FR_REAL,001,31,
images/fcloud65-35_D1.1_4.tif,1.1,1,,,,,,,,,0,13,13,45,,,,,,,,,,,,,,,1,space,2,1.435,7.1961687,,,,,,,,,,,,,,,,,,2019_Apr_04_1555,59.91288667600263,Cloud_Experiment_FR_REAL,001,31,
images/fcloud65-35_D1.4_4.tif,1.4,1,,,,,,,,,0,14,14,54,,,,,,,,,,,,,,,None,None,None,23.414,,,,,,,,,,,,,,,,,,,2019_Apr_04_1555,59.91288667600263,Cloud_Experiment_FR_REAL,001,31,
images/fcloud_D0.8_5.tif,0.8,0,,,,,,,,,0,15,15,1,,,,,,,,,,,,,,,3,space,2,2.183,4.16956020001,,,,,,,,,,,,,,,,,,2019_Apr_04_1555,59.91288667600263,Cloud_Experiment_FR_REAL,001,31,
images/fcloud_D1.4_5.tif,1.4,0,,,,,,,,,0,16,16,19,,,,,,,,,,,,,,,2,space,3,2.235,5.75551610003,,,,,,,,,,,,,,,,,,2019_Apr_04_1555,59.91288667600263,Cloud_Experiment_FR_REAL,001,31,
images/fcloud_D0.9_5.tif,0.9,0,,,,,,,,,0,17,17,4,,,,,,,,,,,,,,,2,space,1,0.558,1.39392810001,,,,,,,,,,,,,,,,,,2019_Apr_04_1555,59.91288667600263,Cloud_Experiment_FR_REAL,001,31,
images/fcloud_D1.8_4.tif,1.8,0,,,,,,,,,0,18,18,30,,,,,,,,,,,,,,,1,space,3,0.751,6.99338530004,,,,,,,,,,,,,,,,,,2019_Apr_04_1555,59.91288667600263,Cloud_Experiment_FR_REAL,001,31,
images/fcloud80-20_D1.8_4.tif,1.8,2,,,,,,,,,0,19,19,102,,,,,,,,,,,,,,,2,None,1,1.352,,,,,,,,,,,,,,,,,,,2019_Apr_04_1555,59.91288667600263,Cloud_Experiment_FR_REAL,001,31,
images/fcloud65-35_D1.5_6.tif,1.5,1,,,,,,,,,0,20,20,59,,,,,,,,,,,,,,,1,space,2,1.018,5.45164360001,,,,,,,,,,,,,,,,,,2019_Apr_04_1555,59.91288667600263,Cloud_Experiment_FR_REAL,001,31,
images/fcloud65-35_D1.6_6.tif,1.6,1,,,,,,,,,0,21,21,62,,,,,,,,,,,,,,,2,space,2,1.817,4.92452210002,,,,,,,,,,,,,,,,,,2019_Apr_04_1555,59.91288667600263,Cloud_Experiment_FR_REAL,001,31,
images/fcloud80-20_D1.2_6.tif,1.2,2,,,,,,,,,0,22,22,86,,,,,,,,,,,,,,,1,space,2,0.951,1.85644090001,,,,,,,,,,,,,,,,,,2019_Apr_04_1555,59.91288667600263,Cloud_Experiment_FR_REAL,001,31,
images/fcloud65-35_D1.1_5.tif,1.1,1,,,,,,,,,0,23,23,46,,,,,,,,,,,,,,,None,None,None,10.391,,,,,,,,,,,,,,,,,,,2019_Apr_04_1555,59.91288667600263,Cloud_Experiment_FR_REAL,001,31,
images/fcloud80-20_D1.7_6.tif,1.7,2,,,,,,,,,0,24,24,101,,,,,,,,,,,,,,,2,space,2,5.298,1.95949849999,,,,,,,,,,,,,,,,,,2019_Apr_04_1555,59.91288667600263,Cloud_Experiment_FR_REAL,001,31,
images/fcloud80-20_D1.5_6.tif,1.5,2,,,,,,,,,0,25,25,95,,,,,,,,,,,,,,,3,space,2,5.663,2.49791180005,,,,,,,,,,,,,,,,,,2019_Apr_04_1555,59.91288667600263,Cloud_Experiment_FR_REAL,001,31,
images/fcloud80-20_D0.9_6.tif,0.9,2,,,,,,,,,0,26,26,77,,,,,,,,,,,,,,,None,None,None,14.107,,,,,,,,,,,,,,,,,,,2019_Apr_04_1555,59.91288667600263,Cloud_Experiment_FR_REAL,001,31,
images/fcloud65-35_D1.6_5.tif,1.6,1,,,,,,,,,0,27,27,61,,,,,,,,,,,,,,,1,None,3,0.935,,,,,,,,,,,,,,,,,,,2019_Apr_04_1555,59.91288667600263,Cloud_Experiment_FR_REAL,001,31,
images/fcloud65-35_D1.4_5.tif,1.4,1,,,,,,,,,0,28,28,55,,,,,,,,,,,,,,,2,space,2,4.398,3.3295929,,,,,,,,,,,,,,,,,,2019_Apr_04_1555,59.91288667600263,Cloud_Experiment_FR_REAL,001,31,
images/fcloud80-20_D0.8_5.tif,0.8,2,,,,,,,,,0,29,29,73,,,,,,,,,,,,,,,None,None,None,19.567,,,,,,,,,,,,,,,,,,,2019_Apr_04_1555,59.91288667600263,Cloud_Experiment_FR_REAL,001,31,
images/fcloud_D1.9_6.tif,1.9,0,,,,,,,,,0,30,30,35,,,,,,,,,,,,,,,3,space,2,0.802,6.19787709997,,,,,,,,,,,,,,,,,,2019_Apr_04_1555,59.91288667600263,Cloud_Experiment_FR_REAL,001,31,
images/fcloud65-35_D0.9_4.tif,0.9,1,,,,,,,,,0,31,31,39,,,,,,,,,,,,,,,None,None,None,10.209,,,,,,,,,,,,,,,,,,,2019_Apr_04_1555,59.91288667600263,Cloud_Experiment_FR_REAL,001,31,
images/fcloud_D1.3_6.tif,1.3,0,,,,,,,,,0,32,32,17,,,,,,,,,,,,,,,2,space,3,1.534,4.03033129999,,,,,,,,,,,,,,,,,,2019_Apr_04_1555,59.91288667600263,Cloud_Experiment_FR_REAL,001,31,
images/fcloud_D1.4_4.tif,1.4,0,,,,,,,,,0,33,33,18,,,,,,,,,,,,,,,None,None,None,11.591,,,,,,,,,,,,,,,,,,,2019_Apr_04_1555,59.91288667600263,Cloud_Experiment_FR_REAL,001,31,
images/fcloud_D0.8_6.tif,0.8,0,,,,,,,,,0,34,34,2,,,,,,,,,,,,,,,None,None,None,20.849,,,,,,,,,,,,,,,,,,,2019_Apr_04_1555,59.91288667600263,Cloud_Experiment_FR_REAL,001,31,
images/fcloud80-20_D1.6_6.tif,1.6,2,,,,,,,,,0,35,35,98,,,,,,,,,,,,,,,None,None,None,29.858,,,,,,,,,,,,,,,,,,,2019_Apr_04_1555,59.91288667600263,Cloud_Experiment_FR_REAL,001,31,
images/fcloud80-20_D1_5.tif,1.0,2,,,,,,,,,0,36,36,79,,,,,,,,,,,,,,,None,None,None,38.434,,,,,,,,,,,,,,,,,,,2019_Apr_04_1555,59.91288667600263,Cloud_Experiment_FR_REAL,001,31,
images/fcloud_D1.1_5.tif,1.1,0,,,,,,,,,0,37,37,10,,,,,,,,,,,,,,,1,space,2,0.669,2.06586870004,,,,,,,,,,,,,,,,,,2019_Apr_04_1555,59.91288667600263,Cloud_Experiment_FR_REAL,001,31,
images/fcloud_D1.3_4.tif,1.3,0,,,,,,,,,0,38,38,15,,,,,,,,,,,,,,,2,None,3,0.851,,,,,,,,,,,,,,,,,,,2019_Apr_04_1555,59.91288667600263,Cloud_Experiment_FR_REAL,001,31,
images/fcloud80-20_D1.1_6.tif,1.1,2,,,,,,,,,0,39,39,83,,,,,,,,,,,,,,,None,None,None,9.46,,,,,,,,,,,,,,,,,,,2019_Apr_04_1555,59.91288667600263,Cloud_Experiment_FR_REAL,001,31,
images/fcloud_D1_5.tif,1.0,0,,,,,,,,,0,40,40,7,,,,,,,,,,,,,,,None,None,None,18.568,,,,,,,,,,,,,,,,,,,2019_Apr_04_1555,59.91288667600263,Cloud_Experiment_FR_REAL,001,31,
images/fcloud65-35_D0.8_4.tif,0.8,1,,,,,,,,,0,41,41,36,,,,,,,,,,,,,,,1,space,2,1.034,1.85318179999,,,,,,,,,,,,,,,,,,2019_Apr_04_1555,59.91288667600263,Cloud_Experiment_FR_REAL,001,31,
images/fcloud_D1.5_5.tif,1.5,0,,,,,,,,,0,42,42,22,,,,,,,,,,,,,,,None,None,None,10.242,,,,,,,,,,,,,,,,,,,2019_Apr_04_1555,59.91288667600263,Cloud_Experiment_FR_REAL,001,31,
images/fcloud_D1.1_4.tif,1.1,0,,,,,,,,,0,43,43,9,,,,,,,,,,,,,,,1,None,2,0.751,,,,,,,,,,,,,,,,,,,2019_Apr_04_1555,59.91288667600263,Cloud_Experiment_FR_REAL,001,31,
images/fcloud80-20_D1.4_6.tif,1.4,2,,,,,,,,,0,44,44,92,,,,,,,,,,,,,,,2,space,3,0.851,2.07750070002,,,,,,,,,,,,,,,,,,2019_Apr_04_1555,59.91288667600263,Cloud_Experiment_FR_REAL,001,31,
images/fcloud_D1.7_5.tif,1.7,0,,,,,,,,,0,45,45,28,,,,,,,,,,,,,,,3,space,2,1.367,5.85227600002,,,,,,,,,,,,,,,,,,2019_Apr_04_1555,59.91288667600263,Cloud_Experiment_FR_REAL,001,31,
images/fcloud65-35_D1_5.tif,1.0,1,,,,,,,,,0,46,46,43,,,,,,,,,,,,,,,None,None,None,10.525,,,,,,,,,,,,,,,,,,,2019_Apr_04_1555,59.91288667600263,Cloud_Experiment_FR_REAL,001,31,
images/fcloud80-20_D1.1_5.tif,1.1,2,,,,,,,,,0,47,47,82,,,,,,,,,,,,,,,2,space,3,0.534,4.37732299999,,,,,,,,,,,,,,,,,,2019_Apr_04_1555,59.91288667600263,Cloud_Experiment_FR_REAL,001,31,
images/fcloud65-35_D1.7_4.tif,1.7,1,,,,,,,,,0,48,48,63,,,,,,,,,,,,,,,3,space,3,2.55,1.7641956,,,,,,,,,,,,,,,,,,2019_Apr_04_1555,59.91288667600263,Cloud_Experiment_FR_REAL,001,31,
images/fcloud65-35_D1.5_4.tif,1.5,1,,,,,,,,,0,49,49,57,,,,,,,,,,,,,,,3,space,2,1.186,3.01361169998,,,,,,,,,,,,,,,,,,2019_Apr_04_1555,59.91288667600263,Cloud_Experiment_FR_REAL,001,31,
images/fcloud_D1.5_4.tif,1.5,0,,,,,,,,,0,50,50,21,,,,,,,,,,,,,,,None,None,None,13.073,,,,,,,,,,,,,,,,,,,2019_Apr_04_1555,59.91288667600263,Cloud_Experiment_FR_REAL,001,31,
images/fcloud65-35_D1.6_4.tif,1.6,1,,,,,,,,,0,51,51,60,,,,,,,,,,,,,,,3,space,3,1.95,4.97368619998,,,,,,,,,,,,,,,,,,2019_Apr_04_1555,59.91288667600263,Cloud_Experiment_FR_REAL,001,31,
images/fcloud80-20_D1.4_5.tif,1.4,2,,,,,,,,,0,52,52,91,,,,,,,,,,,,,,,3,space,4,2.566,3.08851899998,,,,,,,,,,,,,,,,,,2019_Apr_04_1555,59.91288667600263,Cloud_Experiment_FR_REAL,001,31,
images/fcloud_D1.7_4.tif,1.7,0,,,,,,,,,0,53,53,27,,,,,,,,,,,,,,,2,space,2,1.251,7.12887099996,,,,,,,,,,,,,,,,,,2019_Apr_04_1555,59.91288667600263,Cloud_Experiment_FR_REAL,001,31,
images/fcloud_D1.6_6.tif,1.6,0,,,,,,,,,0,54,54,26,,,,,,,,,,,,,,,None,None,None,10.308,,,,,,,,,,,,,,,,,,,2019_Apr_04_1555,59.91288667600263,Cloud_Experiment_FR_REAL,001,31,
images/fcloud_D1.9_5.tif,1.9,0,,,,,,,,,0,55,55,34,,,,,,,,,,,,,,,1,None,2,1.419,,,,,,,,,,,,,,,,,,,2019_Apr_04_1555,59.91288667600263,Cloud_Experiment_FR_REAL,001,31,
images/fcloud80-20_D1.5_4.tif,1.5,2,,,,,,,,,0,56,56,93,,,,,,,,,,,,,,,None,None,None,23.197,,,,,,,,,,,,,,,,,,,2019_Apr_04_1555,59.91288667600263,Cloud_Experiment_FR_REAL,001,31,
images/fcloud80-20_D1.2_4.tif,1.2,2,,,,,,,,,0,57,57,84,,,,,,,,,,,,,,,1,space,2,0.501,5.46136979997,,,,,,,,,,,,,,,,,,2019_Apr_04_1555,59.91288667600263,Cloud_Experiment_FR_REAL,001,31,
images/fcloud80-20_D1_4.tif,1.0,2,,,,,,,,,0,58,58,78,,,,,,,,,,,,,,,None,None,None,9.759,,,,,,,,,,,,,,,,,,,2019_Apr_04_1555,59.91288667600263,Cloud_Experiment_FR_REAL,001,31,
images/fcloud80-20_D1.5_5.tif,1.5,2,,,,,,,,,0,59,59,94,,,,,,,,,,,,,,,2,space,2,1.035,2.96050399996,,,,,,,,,,,,,,,,,,2019_Apr_04_1555,59.91288667600263,Cloud_Experiment_FR_REAL,001,31,
images/fcloud65-35_D0.8_6.tif,0.8,1,,,,,,,,,0,60,60,38,,,,,,,,,,,,,,,1,space,2,2.534,4.13449590001,,,,,,,,,,,,,,,,,,2019_Apr_04_1555,59.91288667600263,Cloud_Experiment_FR_REAL,001,31,
images/fcloud80-20_D1.1_4.tif,1.1,2,,,,,,,,,0,61,61,81,,,,,,,,,,,,,,,1,space,1,1.001,2.64402569999,,,,,,,,,,,,,,,,,,2019_Apr_04_1555,59.91288667600263,Cloud_Experiment_FR_REAL,001,31,
images/fcloud_D1.5_6.tif,1.5,0,,,,,,,,,0,62,62,23,,,,,,,,,,,,,,,1,space,2,0.584,2.35392070003,,,,,,,,,,,,,,,,,,2019_Apr_04_1555,59.91288667600263,Cloud_Experiment_FR_REAL,001,31,
images/fcloud_D1.6_5.tif,1.6,0,,,,,,,,,0,63,63,25,,,,,,,,,,,,,,,1,space,3,5.714,6.62434500002,,,,,,,,,,,,,,,,,,2019_Apr_04_1555,59.91288667600263,Cloud_Experiment_FR_REAL,001,31,
images/fcloud80-20_D1.6_4.tif,1.6,2,,,,,,,,,0,64,64,96,,,,,,,,,,,,,,,None,None,None,18.551,,,,,,,,,,,,,,,,,,,2019_Apr_04_1555,59.91288667600263,Cloud_Experiment_FR_REAL,001,31,
images/fcloud80-20_D1.8_6.tif,1.8,2,,,,,,,,,0,65,65,104,,,,,,,,,,,,,,,2,None,3,1.3,,,,,,,,,,,,,,,,,,,2019_Apr_04_1555,59.91288667600263,Cloud_Experiment_FR_REAL,001,31,
images/fcloud80-20_D1.2_5.tif,1.2,2,,,,,,,,,0,66,66,85,,,,,,,,,,,,,,,1,space,4,1.169,7.41810910002,,,,,,,,,,,,,,,,,,2019_Apr_04_1555,59.91288667600263,Cloud_Experiment_FR_REAL,001,31,
images/fcloud65-35_D1.7_5.tif,1.7,1,,,,,,,,,0,67,67,64,,,,,,,,,,,,,,,5,space,3,2.268,1.5957524,,,,,,,,,,,,,,,,,,2019_Apr_04_1555,59.91288667600263,Cloud_Experiment_FR_REAL,001,31,
images/fcloud80-20_D1.4_4.tif,1.4,2,,,,,,,,,0,68,68,90,,,,,,,,,,,,,,,None,None,None,11.857,,,,,,,,,,,,,,,,,,,2019_Apr_04_1555,59.91288667600263,Cloud_Experiment_FR_REAL,001,31,
images/fcloud_D1.2_5.tif,1.2,0,,,,,,,,,0,69,69,13,,,,,,,,,,,,,,,1,space,2,0.668,5.29951589997,,,,,,,,,,,,,,,,,,2019_Apr_04_1555,59.91288667600263,Cloud_Experiment_FR_REAL,001,31,
images/fcloud65-35_D1.3_4.tif,1.3,1,,,,,,,,,0,70,70,51,,,,,,,,,,,,,,,None,None,None,10.109,,,,,,,,,,,,,,,,,,,2019_Apr_04_1555,59.91288667600263,Cloud_Experiment_FR_REAL,001,31,
images/fcloud80-20_D1.3_6.tif,1.3,2,,,,,,,,,0,71,71,89,,,,,,,,,,,,,,,1,None,4,2.383,,,,,,,,,,,,,,,,,,,2019_Apr_04_1555,59.91288667600263,Cloud_Experiment_FR_REAL,001,31,
images/fcloud80-20_D1.7_5.tif,1.7,2,,,,,,,,,0,72,72,100,,,,,,,,,,,,,,,3,space,4,0.951,3.05954469997,,,,,,,,,,,,,,,,,,2019_Apr_04_1555,59.91288667600263,Cloud_Experiment_FR_REAL,001,31,
images/fcloud80-20_D1_6.tif,1.0,2,,,,,,,,,0,73,73,80,,,,,,,,,,,,,,,2,space,2,2.434,2.07207150001,,,,,,,,,,,,,,,,,,2019_Apr_04_1555,59.91288667600263,Cloud_Experiment_FR_REAL,001,31,
images/fcloud65-35_D1.2_6.tif,1.2,1,,,,,,,,,0,74,74,50,,,,,,,,,,,,,,,2,space,3,2.05,4.4752551,,,,,,,,,,,,,,,,,,2019_Apr_04_1555,59.91288667600263,Cloud_Experiment_FR_REAL,001,31,
images/fcloud80-20_D1.9_4.tif,1.9,2,,,,,,,,,0,75,75,105,,,,,,,,,,,,,,,1,space,4,0.685,3.47066370002,,,,,,,,,,,,,,,,,,2019_Apr_04_1555,59.91288667600263,Cloud_Experiment_FR_REAL,001,31,
images/fcloud80-20_D0.9_4.tif,0.9,2,,,,,,,,,0,76,76,75,,,,,,,,,,,,,,,None,None,None,9.975,,,,,,,,,,,,,,,,,,,2019_Apr_04_1555,59.91288667600263,Cloud_Experiment_FR_REAL,001,31,
images/fcloud_D1_4.tif,1.0,0,,,,,,,,,0,77,77,6,,,,,,,,,,,,,,,3,space,2,4.999,3.73200179997,,,,,,,,,,,,,,,,,,2019_Apr_04_1555,59.91288667600263,Cloud_Experiment_FR_REAL,001,31,
images/fcloud_D1.8_5.tif,1.8,0,,,,,,,,,0,78,78,31,,,,,,,,,,,,,,,None,None,None,14.355,,,,,,,,,,,,,,,,,,,2019_Apr_04_1555,59.91288667600263,Cloud_Experiment_FR_REAL,001,31,
images/fcloud65-35_D1.9_6.tif,1.9,1,,,,,,,,,0,79,79,71,,,,,,,,,,,,,,,None,None,None,23.996,,,,,,,,,,,,,,,,,,,2019_Apr_04_1555,59.91288667600263,Cloud_Experiment_FR_REAL,001,31,
images/fcloud65-35_D0.9_5.tif,0.9,1,,,,,,,,,0,80,80,40,,,,,,,,,,,,,,,1,None,2,1.335,,,,,,,,,,,,,,,,,,,2019_Apr_04_1555,59.91288667600263,Cloud_Experiment_FR_REAL,001,31,
images/fcloud_D1_6.tif,1.0,0,,,,,,,,,0,81,81,8,,,,,,,,,,,,,,,1,space,2,2.787,2.60520240001,,,,,,,,,,,,,,,,,,2019_Apr_04_1555,59.91288667600263,Cloud_Experiment_FR_REAL,001,31,
images/fcloud_D1.9_4.tif,1.9,0,,,,,,,,,0,82,82,33,,,,,,,,,,,,,,,4,space,3,14.956,5.23205779999,,,,,,,,,,,,,,,,,,2019_Apr_04_1555,59.91288667600263,Cloud_Experiment_FR_REAL,001,31,
images/fcloud65-35_D1.9_5.tif,1.9,1,,,,,,,,,0,83,83,70,,,,,,,,,,,,,,,1,None,3,8.228,,,,,,,,,,,,,,,,,,,2019_Apr_04_1555,59.91288667600263,Cloud_Experiment_FR_REAL,001,31,
images/fcloud65-35_D0.9_6.tif,0.9,1,,,,,,,,,0,84,84,41,,,,,,,,,,,,,,,1,None,2,1.118,,,,,,,,,,,,,,,,,,,2019_Apr_04_1555,59.91288667600263,Cloud_Experiment_FR_REAL,001,31,
images/fcloud_D1.1_6.tif,1.1,0,,,,,,,,,0,85,85,11,,,,,,,,,,,,,,,None,None,None,10.442,,,,,,,,,,,,,,,,,,,2019_Apr_04_1555,59.91288667600263,Cloud_Experiment_FR_REAL,001,31,
images/fcloud65-35_D1_4.tif,1.0,1,,,,,,,,,0,86,86,42,,,,,,,,,,,,,,,None,None,None,19.45,,,,,,,,,,,,,,,,,,,2019_Apr_04_1555,59.91288667600263,Cloud_Experiment_FR_REAL,001,31,
images/fcloud65-35_D1.7_6.tif,1.7,1,,,,,,,,,0,87,87,65,,,,,,,,,,,,,,,None,None,None,28.442,,,,,,,,,,,,,,,,,,,2019_Apr_04_1555,59.91288667600263,Cloud_Experiment_FR_REAL,001,31,
images/fcloud_D1.2_4.tif,1.2,0,,,,,,,,,0,88,88,12,,,,,,,,,,,,,,,1,None,1,4.431,,,,,,,,,,,,,,,,,,,2019_Apr_04_1555,59.91288667600263,Cloud_Experiment_FR_REAL,001,31,
images/fcloud65-35_D1.3_5.tif,1.3,1,,,,,,,,,0,89,89,52,,,,,,,,,,,,,,,None,None,None,13.572,,,,,,,,,,,,,,,,,,,2019_Apr_04_1555,59.91288667600263,Cloud_Experiment_FR_REAL,001,31,
images/fcloud65-35_D1.3_6.tif,1.3,1,,,,,,,,,0,90,90,53,,,,,,,,,,,,,,,None,None,None,22.465,,,,,,,,,,,,,,,,,,,2019_Apr_04_1555,59.91288667600263,Cloud_Experiment_FR_REAL,001,31,
images/fcloud65-35_D1.1_6.tif,1.1,1,,,,,,,,,0,91,91,47,,,,,,,,,,,,,,,2,space,3,5.33,6.26793819998,,,,,,,,,,,,,,,,,,2019_Apr_04_1555,59.91288667600263,Cloud_Experiment_FR_REAL,001,31,
images/fcloud80-20_D1.6_5.tif,1.6,2,,,,,,,,,0,92,92,97,,,,,,,,,,,,,,,2,None,3,0.586,,,,,,,,,,,,,,,,,,,2019_Apr_04_1555,59.91288667600263,Cloud_Experiment_FR_REAL,001,31,
images/fcloud80-20_D0.8_6.tif,0.8,2,,,,,,,,,0,93,93,74,,,,,,,,,,,,,,,None,None,None,9.892,,,,,,,,,,,,,,,,,,,2019_Apr_04_1555,59.91288667600263,Cloud_Experiment_FR_REAL,001,31,
images/fcloud_D1.6_4.tif,1.6,0,,,,,,,,,0,94,94,24,,,,,,,,,,,,,,,None,None,None,18.252,,,,,,,,,,,,,,,,,,,2019_Apr_04_1555,59.91288667600263,Cloud_Experiment_FR_REAL,001,31,
images/fcloud65-35_D1.4_6.tif,1.4,1,,,,,,,,,0,95,95,56,,,,,,,,,,,,,,,None,None,None,26.662,,,,,,,,,,,,,,,,,,,2019_Apr_04_1555,59.91288667600263,Cloud_Experiment_FR_REAL,001,31,
images/fcloud65-35_D1.2_5.tif,1.2,1,,,,,,,,,0,96,96,49,,,,,,,,,,,,,,,None,None,None,36.569,,,,,,,,,,,,,,,,,,,2019_Apr_04_1555,59.91288667600263,Cloud_Experiment_FR_REAL,001,31,
images/fcloud_D1.3_5.tif,1.3,0,,,,,,,,,0,97,97,16,,,,,,,,,,,,,,,3,space,2,0.735,1.91946559999,,,,,,,,,,,,,,,,,,2019_Apr_04_1555,59.91288667600263,Cloud_Experiment_FR_REAL,001,31,
images/fcloud65-35_D0.8_5.tif,0.8,1,,,,,,,,,0,98,98,37,,,,,,,,,,,,,,,1,space,2,0.751,2.88576769998,,,,,,,,,,,,,,,,,,2019_Apr_04_1555,59.91288667600263,Cloud_Experiment_FR_REAL,001,31,
images/fcloud80-20_D0.9_5.tif,0.9,2,,,,,,,,,0,99,99,76,,,,,,,,,,,,,,,2,space,2,1.667,3.55764959997,,,,,,,,,,,,,,,,,,2019_Apr_04_1555,59.91288667600263,Cloud_Experiment_FR_REAL,001,31,
images/fcloud80-20_D1.3_4.tif,1.3,2,,,,,,,,,0,100,100,87,,,,,,,,,,,,,,,2,space,2,0.934,5.83400149998,,,,,,,,,,,,,,,,,,2019_Apr_04_1555,59.91288667600263,Cloud_Experiment_FR_REAL,001,31,
images/fcloud_D0.9_4.tif,0.9,0,,,,,,,,,0,101,101,3,,,,,,,,,,,,,,,1,space,1,0.801,5.14881759998,,,,,,,,,,,,,,,,,,2019_Apr_04_1555,59.91288667600263,Cloud_Experiment_FR_REAL,001,31,
images/fcloud80-20_D1.7_4.tif,1.7,2,,,,,,,,,0,102,102,99,,,,,,,,,,,,,,,5,space,3,1.933,1.73275199998,,,,,,,,,,,,,,,,,,2019_Apr_04_1555,59.91288667600263,Cloud_Experiment_FR_REAL,001,31,
images/fcloud65-35_D1.5_5.tif,1.5,1,,,,,,,,,0,103,103,58,,,,,,,,,,,,,,,2,None,1,2.049,,,,,,,,,,,,,,,,,,,2019_Apr_04_1555,59.91288667600263,Cloud_Experiment_FR_REAL,001,31,
images/fcloud80-20_D0.8_4.tif,0.8,2,,,,,,,,,0,104,104,72,,,,,,,,,,,,,,,None,None,None,11.324,,,,,,,,,,,,,,,,,,,2019_Apr_04_1555,59.91288667600263,Cloud_Experiment_FR_REAL,001,31,
images/fcloud80-20_D1.9_5.tif,1.9,2,,,,,,,,,0,105,105,106,,,,,,,,,,,,,,,2,None,3,2.25,,,,,,,,,,,,,,,,,,,2019_Apr_04_1555,59.91288667600263,Cloud_Experiment_FR_REAL,001,31,
images/fcloud80-20_D1.9_6.tif,1.9,2,,,,,,,,,0,106,106,107,,,,,,,,,,,,,,,3,space,4,0.751,5.88920830004,,,,,,,,,,,,,,,,,,2019_Apr_04_1555,59.91288667600263,Cloud_Experiment_FR_REAL,001,31,
images/fcloud_D1.2_6.tif,1.2,0,,,,,,,,,0,107,107,14,,,,,,,,,,,,,,,2,None,1,1.034,,,,,,,,,,,,,,,,,,,2019_Apr_04_1555,59.91288667600263,Cloud_Experiment_FR_REAL,001,31,
,,,,,,,,,,,,,,,,,,,,,,,,,,,,,,,,,,,,,,,,,,,,,,space,3.08198630001,,,,2019_Apr_04_1555,59.91288667600263,Cloud_Experiment_FR_REAL,001,31,
,,,,,,,,,,,,,,,,,,,,,,,,,4,11.423,,,,,,,,,,,,,,,,,,,,,,,,,2019_Apr_04_1555,59.91288667600263,Cloud_Experiment_FR_REAL,001,31,
,,,,,,,,,,,,,,,,,,,,,,,,,,,,,,,,,,6,,,,,,,,,,,,,,,,,2019_Apr_04_1555,59.91288667600263,Cloud_Experiment_FR_REAL,001,31,
,,,,,,,,,,,,,,,,,,,,,,,,,,,,,,,,,,,4,,,,,,,,,,,,,,,,2019_Apr_04_1555,59.91288667600263,Cloud_Experiment_FR_REAL,001,31,
,,,,,,,,,,,,,,,,,,,,,,,,,,,,,,,,,,,,4,,,,,,,,,,,,,,,2019_Apr_04_1555,59.91288667600263,Cloud_Experiment_FR_REAL,001,31,
,,,,,,,,,,,,,,,,,,,,,,,,,,,,,,,,,,,,,3,,,,,,,,,,,,,,2019_Apr_04_1555,59.91288667600263,Cloud_Experiment_FR_REAL,001,31,
,,,,,,,,,,,,,,,,,,,,,,,,,,,,,,,,,,,,,,3,,,,,,,,,,,,,2019_Apr_04_1555,59.91288667600263,Cloud_Experiment_FR_REAL,001,31,
,,,,,,,,,,,,,,,,,,,,,,,,,,,,,,,,,,,,,,,3,,,,,,,,,,,,2019_Apr_04_1555,59.91288667600263,Cloud_Experiment_FR_REAL,001,31,
,,,,,,,,,,,,,,,,,,,,,,,,,,,,,,,,,,,,,,,,3,,,,,,,,,,,2019_Apr_04_1555,59.91288667600263,Cloud_Experiment_FR_REAL,001,31,
,,,,,,,,,,,,,,,,,,,,,,,,,,,,,,,,,,,,,,,,,6,,,,,,,,,,2019_Apr_04_1555,59.91288667600263,Cloud_Experiment_FR_REAL,001,31,
,,,,,,,,,,,,,,,,,,,,,,,,,,,,,,,,,,,,,,,,,,6,,,,,,,,,2019_Apr_04_1555,59.91288667600263,Cloud_Experiment_FR_REAL,001,31,
,,,,,,,,,,,,,,,,,,,,,,,,,,,,,,,,,,,,,,,,,,,1,,,,,,,,2019_Apr_04_1555,59.91288667600263,Cloud_Experiment_FR_REAL,001,31,
,,,,,,,,,,,,,,,,,,,,,,,,,,,,,,,,,,,,,,,,,,,,,,,,space,2.31385209999,,2019_Apr_04_1555,59.91288667600263,Cloud_Experiment_FR_REAL,001,31,
images/fcloud65-35_D0.8_8.tif,0.8,1,,,,,,,,,,,,,0,0,0,49,,,,,,,,,,,None,None,None,425.197,,,,,,,,,,,,,,,,,,,2019_Apr_04_1555,59.91288667600263,Cloud_Experiment_FR_REAL,001,31,
images/fcloud65-35_D1.8_8.tif,1.8,1,,,,,,,,,,,,,0,1,1,89,,,,,,,,,,,3,space,4,0.834,5.7348872,,,,,,,,,,,,,,,,,,2019_Apr_04_1555,59.91288667600263,Cloud_Experiment_FR_REAL,001,31,
images/fcloud80-20_D0.9_9.tif,0.9,2,,,,,,,,,,,,,0,2,2,102,,,,,,,,,,,1,space,2,1.85,1.69272009999,,,,,,,,,,,,,,,,,,2019_Apr_04_1555,59.91288667600263,Cloud_Experiment_FR_REAL,001,31,
images/fcloud_D1.4_9.tif,1.4,0,,,,,,,,,,,,,0,3,3,26,,,,,,,,,,,1,None,2,1.9,,,,,,,,,,,,,,,,,,,2019_Apr_04_1555,59.91288667600263,Cloud_Experiment_FR_REAL,001,31,
images/fcloud65-35_D1.5_8.tif,1.5,1,,,,,,,,,,,,,0,4,4,77,,,,,,,,,,,None,None,None,11.84,,,,,,,,,,,,,,,,,,,2019_Apr_04_1555,59.91288667600263,Cloud_Experiment_FR_REAL,001,31,
images/fcloud80-20_D1_7.tif,1.0,2,,,,,,,,,,,,,0,5,5,104,,,,,,,,,,,None,None,None,20.732,,,,,,,,,,,,,,,,,,,2019_Apr_04_1555,59.91288667600263,Cloud_Experiment_FR_REAL,001,31,
images/fcloud_D1.3_10.tif,1.3,0,,,,,,,,,,,,,0,6,6,23,,,,,,,,,,,None,None,None,29.492,,,,,,,,,,,,,,,,,,,2019_Apr_04_1555,59.91288667600263,Cloud_Experiment_FR_REAL,001,31,
images/fcloud65-35_D1.4_9.tif,1.4,1,,,,,,,,,,,,,0,7,7,74,,,,,,,,,,,None,None,None,38.034,,,,,,,,,,,,,,,,,,,2019_Apr_04_1555,59.91288667600263,Cloud_Experiment_FR_REAL,001,31,
images/fcloud80-20_D1.2_7.tif,1.2,2,,,,,,,,,,,,,0,8,8,112,,,,,,,,,,,1,space,2,0.785,5.54408220004,,,,,,,,,,,,,,,,,,2019_Apr_04_1555,59.91288667600263,Cloud_Experiment_FR_REAL,001,31,
images/fcloud_D1.9_9.tif,1.9,0,,,,,,,,,,,,,0,9,9,46,,,,,,,,,,,None,None,None,10.093,,,,,,,,,,,,,,,,,,,2019_Apr_04_1555,59.91288667600263,Cloud_Experiment_FR_REAL,001,31,
images/fcloud65-35_D1.2_10.tif,1.2,1,,,,,,,,,,,,,0,10,10,67,,,,,,,,,,,1,space,2,1.301,4.64862260001,,,,,,,,,,,,,,,,,,2019_Apr_04_1555,59.91288667600263,Cloud_Experiment_FR_REAL,001,31,
images/fcloud80-20_D0.8_8.tif,0.8,2,,,,,,,,,,,,,0,11,11,97,,,,,,,,,,,None,None,None,12.191,,,,,,,,,,,,,,,,,,,2019_Apr_04_1555,59.91288667600263,Cloud_Experiment_FR_REAL,001,31,
images/fcloud65-35_D1.4_7.tif,1.4,1,,,,,,,,,,,,,0,12,12,72,,,,,,,,,,,2,space,4,1.568,6.27927900001,,,,,,,,,,,,,,,,,,2019_Apr_04_1555,59.91288667600263,Cloud_Experiment_FR_REAL,001,31,
images/fcloud65-35_D1.9_9.tif,1.9,1,,,,,,,,,,,,,0,13,13,94,,,,,,,,,,,3,None,3,2.65,,,,,,,,,,,,,,,,,,,2019_Apr_04_1555,59.91288667600263,Cloud_Experiment_FR_REAL,001,31,
images/fcloud_D0.8_8.tif,0.8,0,,,,,,,,,,,,,0,14,14,1,,,,,,,,,,,1,space,2,1.483,5.73314319999,,,,,,,,,,,,,,,,,,2019_Apr_04_1555,59.91288667600263,Cloud_Experiment_FR_REAL,001,31,
images/fcloud80-20_D1.8_8.tif,1.8,2,,,,,,,,,,,,,0,15,15,137,,,,,,,,,,,2,space,4,0.984,4.82487690001,,,,,,,,,,,,,,,,,,2019_Apr_04_1555,59.91288667600263,Cloud_Experiment_FR_REAL,001,31,
images/fcloud_D1.6_9.tif,1.6,0,,,,,,,,,,,,,0,16,16,34,,,,,,,,,,,None,None,None,11.457,,,,,,,,,,,,,,,,,,,2019_Apr_04_1555,59.91288667600263,Cloud_Experiment_FR_REAL,001,31,
images/fcloud_D1.3_7.tif,1.3,0,,,,,,,,,,,,,0,17,17,20,,,,,,,,,,,None,None,None,20.017,,,,,,,,,,,,,,,,,,,2019_Apr_04_1555,59.91288667600263,Cloud_Experiment_FR_REAL,001,31,
images/fcloud65-35_D1_9.tif,1.0,1,,,,,,,,,,,,,0,18,18,58,,,,,,,,,,,None,None,None,28.51,,,,,,,,,,,,,,,,,,,2019_Apr_04_1555,59.91288667600263,Cloud_Experiment_FR_REAL,001,31,
images/fcloud_D1.8_9.tif,1.8,0,,,,,,,,,,,,,0,19,19,42,,,,,,,,,,,None,None,None,37.018,,,,,,,,,,,,,,,,,,,2019_Apr_04_1555,59.91288667600263,Cloud_Experiment_FR_REAL,001,31,
images/fcloud_D0.9_7.tif,0.9,0,,,,,,,,,,,,,0,20,20,4,,,,,,,,,,,None,None,None,49.458,,,,,,,,,,,,,,,,,,,2019_Apr_04_1555,59.91288667600263,Cloud_Experiment_FR_REAL,001,31,
images/fcloud65-35_D1_10.tif,1.0,1,,,,,,,,,,,,,0,21,21,59,,,,,,,,,,,2,space,3,1.333,3.42775440001,,,,,,,,,,,,,,,,,,2019_Apr_04_1555,59.91288667600263,Cloud_Experiment_FR_REAL,001,31,
images/fcloud80-20_D1.5_7.tif,1.5,2,,,,,,,,,,,,,0,22,22,124,,,,,,,,,,,None,None,None,10.459,,,,,,,,,,,,,,,,,,,2019_Apr_04_1555,59.91288667600263,Cloud_Experiment_FR_REAL,001,31,
images/fcloud_D1.5_9.tif,1.5,0,,,,,,,,,,,,,0,23,23,30,,,,,,,,,,,1,None,2,0.901,,,,,,,,,,,,,,,,,,,2019_Apr_04_1555,59.91288667600263,Cloud_Experiment_FR_REAL,001,31,
images/fcloud_D1.7_7.tif,1.7,0,,,,,,,,,,,,,0,24,24,36,,,,,,,,,,,1,None,1,0.784,,,,,,,,,,,,,,,,,,,2019_Apr_04_1555,59.91288667600263,Cloud_Experiment_FR_REAL,001,31,
images/fcloud80-20_D1.6_10.tif,1.6,2,,,,,,,,,,,,,0,25,25,131,,,,,,,,,,,None,None,None,10.625,,,,,,,,,,,,,,,,,,,2019_Apr_04_1555,59.91288667600263,Cloud_Experiment_FR_REAL,001,31,
images/fcloud65-35_D1.5_7.tif,1.5,1,,,,,,,,,,,,,0,26,26,76,,,,,,,,,,,None,None,None,19.534,,,,,,,,,,,,,,,,,,,2019_Apr_04_1555,59.91288667600263,Cloud_Experiment_FR_REAL,001,31,
images/fcloud65-35_D1.7_8.tif,1.7,1,,,,,,,,,,,,,0,27,27,85,,,,,,,,,,,1,space,2,1.301,3.40849619999,,,,,,,,,,,,,,,,,,2019_Apr_04_1555,59.91288667600263,Cloud_Experiment_FR_REAL,001,31,
images/fcloud65-35_D1.5_9.tif,1.5,1,,,,,,,,,,,,,0,28,28,78,,,,,,,,,,,1,None,1,7.612,,,,,,,,,,,,,,,,,,,2019_Apr_04_1555,59.91288667600263,Cloud_Experiment_FR_REAL,001,31,
images/fcloud_D1.1_8.tif,1.1,0,,,,,,,,,,,,,0,29,29,13,,,,,,,,,,,None,None,None,17.934,,,,,,,,,,,,,,,,,,,2019_Apr_04_1555,59.91288667600263,Cloud_Experiment_FR_REAL,001,31,
images/fcloud80-20_D1.8_7.tif,1.8,2,,,,,,,,,,,,,0,30,30,136,,,,,,,,,,,1,space,3,1.384,5.81784870004,,,,,,,,,,,,,,,,,,2019_Apr_04_1555,59.91288667600263,Cloud_Experiment_FR_REAL,001,31,
images/fcloud_D1.6_8.tif,1.6,0,,,,,,,,,,,,,0,31,31,33,,,,,,,,,,,1,space,2,2.499,4.9803084,,,,,,,,,,,,,,,,,,2019_Apr_04_1555,59.91288667600263,Cloud_Experiment_FR_REAL,001,31,
images/fcloud65-35_D1.6_7.tif,1.6,1,,,,,,,,,,,,,0,32,32,80,,,,,,,,,,,1,None,2,3.916,,,,,,,,,,,,,,,,,,,2019_Apr_04_1555,59.91288667600263,Cloud_Experiment_FR_REAL,001,31,
images/fcloud80-20_D0.9_10.tif,0.9,2,,,,,,,,,,,,,0,33,33,103,,,,,,,,,,,None,None,None,13.073,,,,,,,,,,,,,,,,,,,2019_Apr_04_1555,59.91288667600263,Cloud_Experiment_FR_REAL,001,31,
images/fcloud80-20_D1.9_7.tif,1.9,2,,,,,,,,,,,,,0,34,34,140,,,,,,,,,,,2,space,3,0.568,4.84375399997,,,,,,,,,,,,,,,,,,2019_Apr_04_1555,59.91288667600263,Cloud_Experiment_FR_REAL,001,31,
images/fcloud80-20_D1.1_8.tif,1.1,2,,,,,,,,,,,,,0,35,35,109,,,,,,,,,,,2,space,1,0.834,3.90294980002,,,,,,,,,,,,,,,,,,2019_Apr_04_1555,59.91288667600263,Cloud_Experiment_FR_REAL,001,31,
images/fcloud65-35_D1.8_9.tif,1.8,1,,,,,,,,,,,,,0,36,36,90,,,,,,,,,,,3,None,1,0.518,,,,,,,,,,,,,,,,,,,2019_Apr_04_1555,59.91288667600263,Cloud_Experiment_FR_REAL,001,31,
images/fcloud65-35_D1.3_9.tif,1.3,1,,,,,,,,,,,,,0,37,37,70,,,,,,,,,,,1,space,2,1.917,4.44278829999,,,,,,,,,,,,,,,,,,2019_Apr_04_1555,59.91288667600263,Cloud_Experiment_FR_REAL,001,31,
images/fcloud65-35_D0.9_10.tif,0.9,1,,,,,,,,,,,,,0,38,38,55,,,,,,,,,,,1,space,3,1.0,1.67121120001,,,,,,,,,,,,,,,,,,2019_Apr_04_1555,59.91288667600263,Cloud_Experiment_FR_REAL,001,31,
images/fcloud65-35_D1.9_10.tif,1.9,1,,,,,,,,,,,,,0,39,39,95,,,,,,,,,,,2,space,4,1.067,7.14783450001,,,,,,,,,,,,,,,,,,2019_Apr_04_1555,59.91288667600263,Cloud_Experiment_FR_REAL,001,31,
images/fcloud65-35_D1.2_8.tif,1.2,1,,,,,,,,,,,,,0,40,40,65,,,,,,,,,,,None,None,None,9.925,,,,,,,,,,,,,,,,,,,2019_Apr_04_1555,59.91288667600263,Cloud_Experiment_FR_REAL,001,31,
images/fcloud_D1.1_9.tif,1.1,0,,,,,,,,,,,,,0,41,41,14,,,,,,,,,,,None,None,None,18.401,,,,,,,,,,,,,,,,,,,2019_Apr_04_1555,59.91288667600263,Cloud_Experiment_FR_REAL,001,31,
images/fcloud_D1.3_8.tif,1.3,0,,,,,,,,,,,,,0,42,42,21,,,,,,,,,,,None,None,None,26.977,,,,,,,,,,,,,,,,,,,2019_Apr_04_1555,59.91288667600263,Cloud_Experiment_FR_REAL,001,31,
images/fcloud_D1_9.tif,1.0,0,,,,,,,,,,,,,0,43,43,10,,,,,,,,,,,None,None,None,35.687,,,,,,,,,,,,,,,,,,,2019_Apr_04_1555,59.91288667600263,Cloud_Experiment_FR_REAL,001,31,
images/fcloud_D1.3_9.tif,1.3,0,,,,,,,,,,,,,0,44,44,22,,,,,,,,,,,None,None,None,44.279,,,,,,,,,,,,,,,,,,,2019_Apr_04_1555,59.91288667600263,Cloud_Experiment_FR_REAL,001,31,
images/fcloud_D1.9_8.tif,1.9,0,,,,,,,,,,,,,0,45,45,45,,,,,,,,,,,2,space,2,1.734,5.22395780002,,,,,,,,,,,,,,,,,,2019_Apr_04_1555,59.91288667600263,Cloud_Experiment_FR_REAL,001,31,
images/fcloud_D1.4_10.tif,1.4,0,,,,,,,,,,,,,0,46,46,27,,,,,,,,,,,2,space,2,0.552,3.45030749997,,,,,,,,,,,,,,,,,,2019_Apr_04_1555,59.91288667600263,Cloud_Experiment_FR_REAL,001,31,
images/fcloud_D1_8.tif,1.0,0,,,,,,,,,,,,,0,47,47,9,,,,,,,,,,,2,space,1,0.635,6.40426549996,,,,,,,,,,,,,,,,,,2019_Apr_04_1555,59.91288667600263,Cloud_Experiment_FR_REAL,001,31,
images/fcloud_D1.9_10.tif,1.9,0,,,,,,,,,,,,,0,48,48,47,,,,,,,,,,,None,None,None,9.975,,,,,,,,,,,,,,,,,,,2019_Apr_04_1555,59.91288667600263,Cloud_Experiment_FR_REAL,001,31,
images/fcloud_D1_7.tif,1.0,0,,,,,,,,,,,,,0,49,49,8,,,,,,,,,,,1,space,1,0.518,1.64900809998,,,,,,,,,,,,,,,,,,2019_Apr_04_1555,59.91288667600263,Cloud_Experiment_FR_REAL,001,31,
images/fcloud65-35_D0.8_9.tif,0.8,1,,,,,,,,,,,,,0,50,50,50,,,,,,,,,,,None,None,None,10.508,,,,,,,,,,,,,,,,,,,2019_Apr_04_1555,59.91288667600263,Cloud_Experiment_FR_REAL,001,31,
images/fcloud_D1.9_7.tif,1.9,0,,,,,,,,,,,,,0,51,51,44,,,,,,,,,,,2,space,3,1.084,2.69840629998,,,,,,,,,,,,,,,,,,2019_Apr_04_1555,59.91288667600263,Cloud_Experiment_FR_REAL,001,31,
images/fcloud80-20_D1.4_10.tif,1.4,2,,,,,,,,,,,,,0,52,52,123,,,,,,,,,,,1,space,1,0.585,3.44881219999,,,,,,,,,,,,,,,,,,2019_Apr_04_1555,59.91288667600263,Cloud_Experiment_FR_REAL,001,31,
images/fcloud65-35_D1.7_7.tif,1.7,1,,,,,,,,,,,,,0,53,53,84,,,,,,,,,,,3,space,4,0.767,6.01559329999,,,,,,,,,,,,,,,,,,2019_Apr_04_1555,59.91288667600263,Cloud_Experiment_FR_REAL,001,31,
images/fcloud80-20_D1.7_7.tif,1.7,2,,,,,,,,,,,,,0,54,54,132,,,,,,,,,,,None,None,None,11.158,,,,,,,,,,,,,,,,,,,2019_Apr_04_1555,59.91288667600263,Cloud_Experiment_FR_REAL,001,31,
images/fcloud65-35_D1.6_8.tif,1.6,1,,,,,,,,,,,,,0,55,55,81,,,,,,,,,,,1,space,2,0.785,6.99187319999,,,,,,,,,,,,,,,,,,2019_Apr_04_1555,59.91288667600263,Cloud_Experiment_FR_REAL,001,31,
images/fcloud80-20_D0.8_10.tif,0.8,2,,,,,,,,,,,,,0,56,56,99,,,,,,,,,,,1,None,2,1.05,,,,,,,,,,,,,,,,,,,2019_Apr_04_1555,59.91288667600263,Cloud_Experiment_FR_REAL,001,31,
images/fcloud65-35_D0.9_9.tif,0.9,1,,,,,,,,,,,,,0,57,57,54,,,,,,,,,,,1,space,2,2.068,6.71252230002,,,,,,,,,,,,,,,,,,2019_Apr_04_1555,59.91288667600263,Cloud_Experiment_FR_REAL,001,31,
images/fcloud65-35_D0.8_7.tif,0.8,1,,,,,,,,,,,,,0,58,58,48,,,,,,,,,,,2,space,3,1.467,4.66602480004,,,,,,,,,,,,,,,,,,2019_Apr_04_1555,59.91288667600263,Cloud_Experiment_FR_REAL,001,31,
images/fcloud65-35_D1.6_9.tif,1.6,1,,,,,,,,,,,,,0,59,59,82,,,,,,,,,,,3,None,2,0.901,,,,,,,,,,,,,,,,,,,2019_Apr_04_1555,59.91288667600263,Cloud_Experiment_FR_REAL,001,31,
images/fcloud65-35_D1.3_8.tif,1.3,1,,,,,,,,,,,,,0,60,60,69,,,,,,,,,,,3,space,2,0.652,3.36834049999,,,,,,,,,,,,,,,,,,2019_Apr_04_1555,59.91288667600263,Cloud_Experiment_FR_REAL,001,31,
images/fcloud80-20_D1.2_9.tif,1.2,2,,,,,,,,,,,,,0,61,61,114,,,,,,,,,,,None,None,None,9.661,,,,,,,,,,,,,,,,,,,2019_Apr_04_1555,59.91288667600263,Cloud_Experiment_FR_REAL,001,31,
images/fcloud65-35_D1.1_8.tif,1.1,1,,,,,,,,,,,,,0,62,62,61,,,,,,,,,,,1,space,3,0.835,6.62811269995,,,,,,,,,,,,,,,,,,2019_Apr_04_1555,59.91288667600263,Cloud_Experiment_FR_REAL,001,31,
images/fcloud65-35_D1.8_10.tif,1.8,1,,,,,,,,,,,,,0,63,63,91,,,,,,,,,,,2,space,2,5.28,7.27957869996,,,,,,,,,,,,,,,,,,2019_Apr_04_1555,59.91288667600263,Cloud_Experiment_FR_REAL,001,31,
images/fcloud80-20_D1.2_8.tif,1.2,2,,,,,,,,,,,,,0,64,64,113,,,,,,,,,,,None,None,None,14.738,,,,,,,,,,,,,,,,,,,2019_Apr_04_1555,59.91288667600263,Cloud_Experiment_FR_REAL,001,31,
images/fcloud_D0.9_10.tif,0.9,0,,,,,,,,,,,,,0,65,65,7,,,,,,,,,,,3,space,2,0.535,4.09526889998,,,,,,,,,,,,,,,,,,2019_Apr_04_1555,59.91288667600263,Cloud_Experiment_FR_REAL,001,31,
images/fcloud65-35_D1.5_10.tif,1.5,1,,,,,,,,,,,,,0,66,66,79,,,,,,,,,,,2,space,4,1.118,6.34827840002,,,,,,,,,,,,,,,,,,2019_Apr_04_1555,59.91288667600263,Cloud_Experiment_FR_REAL,001,31,
images/fcloud65-35_D1.7_9.tif,1.7,1,,,,,,,,,,,,,0,67,67,86,,,,,,,,,,,3,None,2,0.752,,,,,,,,,,,,,,,,,,,2019_Apr_04_1555,59.91288667600263,Cloud_Experiment_FR_REAL,001,31,
images/fcloud65-35_D1.9_8.tif,1.9,1,,,,,,,,,,,,,0,68,68,93,,,,,,,,,,,3,None,1,0.486,,,,,,,,,,,,,,,,,,,2019_Apr_04_1555,59.91288667600263,Cloud_Experiment_FR_REAL,001,31,
images/fcloud80-20_D1.3_9.tif,1.3,2,,,,,,,,,,,,,0,69,69,118,,,,,,,,,,,None,None,None,9.609,,,,,,,,,,,,,,,,,,,2019_Apr_04_1555,59.91288667600263,Cloud_Experiment_FR_REAL,001,31,
images/fcloud65-35_D0.8_10.tif,0.8,1,,,,,,,,,,,,,0,70,70,51,,,,,,,,,,,1,space,1,0.436,5.89730299998,,,,,,,,,,,,,,,,,,2019_Apr_04_1555,59.91288667600263,Cloud_Experiment_FR_REAL,001,31,
images/fcloud80-20_D1.7_10.tif,1.7,2,,,,,,,,,,,,,0,71,71,135,,,,,,,,,,,None,None,None,9.476,,,,,,,,,,,,,,,,,,,2019_Apr_04_1555,59.91288667600263,Cloud_Experiment_FR_REAL,001,31,
images/fcloud80-20_D1.9_8.tif,1.9,2,,,,,,,,,,,,,0,72,72,141,,,,,,,,,,,None,None,None,18.301,,,,,,,,,,,,,,,,,,,2019_Apr_04_1555,59.91288667600263,Cloud_Experiment_FR_REAL,001,31,
images/fcloud_D1.2_7.tif,1.2,0,,,,,,,,,,,,,0,73,73,16,,,,,,,,,,,1,None,3,0.718,,,,,,,,,,,,,,,,,,,2019_Apr_04_1555,59.91288667600263,Cloud_Experiment_FR_REAL,001,31,
images/fcloud65-35_D1.9_7.tif,1.9,1,,,,,,,,,,,,,0,74,74,92,,,,,,,,,,,2,space,3,3.399,4.0274586,,,,,,,,,,,,,,,,,,2019_Apr_04_1555,59.91288667600263,Cloud_Experiment_FR_REAL,001,31,
images/fcloud65-35_D1.4_10.tif,1.4,1,,,,,,,,,,,,,0,75,75,75,,,,,,,,,,,None,None,None,12.723,,,,,,,,,,,,,,,,,,,2019_Apr_04_1555,59.91288667600263,Cloud_Experiment_FR_REAL,001,31,
images/fcloud_D0.8_7.tif,0.8,0,,,,,,,,,,,,,0,76,76,0,,,,,,,,,,,None,None,None,21.782,,,,,,,,,,,,,,,,,,,2019_Apr_04_1555,59.91288667600263,Cloud_Experiment_FR_REAL,001,31,
images/fcloud80-20_D1.3_10.tif,1.3,2,,,,,,,,,,,,,0,77,77,119,,,,,,,,,,,None,None,None,30.574,,,,,,,,,,,,,,,,,,,2019_Apr_04_1555,59.91288667600263,Cloud_Experiment_FR_REAL,001,31,
images/fcloud80-20_D1.9_9.tif,1.9,2,,,,,,,,,,,,,0,78,78,142,,,,,,,,,,,None,None,None,39.983,,,,,,,,,,,,,,,,,,,2019_Apr_04_1555,59.91288667600263,Cloud_Experiment_FR_REAL,001,31,
images/fcloud_D1.7_10.tif,1.7,0,,,,,,,,,,,,,0,79,79,39,,,,,,,,,,,None,None,None,49.058,,,,,,,,,,,,,,,,,,,2019_Apr_04_1555,59.91288667600263,Cloud_Experiment_FR_REAL,001,31,
images/fcloud80-20_D1.4_8.tif,1.4,2,,,,,,,,,,,,,0,80,80,121,,,,,,,,,,,None,None,None,None,,,,,,,,,,,,,,,,,,,2019_Apr_04_1555,59.91288667600263,Cloud_Experiment_FR_REAL,001,31,
images/fcloud65-35_D1.2_7.tif,1.2,1,,,,,,,,,,,,,0,81,81,64,,,,,,,,,,,1,space,3,1.6,7.30955940002,,,,,,,,,,,,,,,,,,2019_Apr_04_1555,59.91288667600263,Cloud_Experiment_FR_REAL,001,31,
images/fcloud_D1.1_10.tif,1.1,0,,,,,,,,,,,,,0,82,82,15,,,,,,,,,,,2,space,1,0.651,5.91284030001,,,,,,,,,,,,,,,,,,2019_Apr_04_1555,59.91288667600263,Cloud_Experiment_FR_REAL,001,31,
images/fcloud65-35_D1.1_10.tif,1.1,1,,,,,,,,,,,,,0,83,83,63,,,,,,,,,,,None,None,None,9.426,,,,,,,,,,,,,,,,,,,2019_Apr_04_1555,59.91288667600263,Cloud_Experiment_FR_REAL,001,31,
images/fcloud_D1.2_10.tif,1.2,0,,,,,,,,,,,,,0,84,84,19,,,,,,,,,,,None,None,None,18.251,,,,,,,,,,,,,,,,,,,2019_Apr_04_1555,59.91288667600263,Cloud_Experiment_FR_REAL,001,31,
images/fcloud65-35_D1.8_7.tif,1.8,1,,,,,,,,,,,,,0,85,85,88,,,,,,,,,,,None,None,None,26.861,,,,,,,,,,,,,,,,,,,2019_Apr_04_1555,59.91288667600263,Cloud_Experiment_FR_REAL,001,31,
images/fcloud80-20_D1.1_9.tif,1.1,2,,,,,,,,,,,,,0,86,86,110,,,,,,,,,,,None,None,None,35.907,,,,,,,,,,,,,,,,,,,2019_Apr_04_1555,59.91288667600263,Cloud_Experiment_FR_REAL,001,31,
images/fcloud65-35_D1.4_8.tif,1.4,1,,,,,,,,,,,,,0,87,87,73,,,,,,,,,,,1,space,4,1.068,6.43897209998,,,,,,,,,,,,,,,,,,2019_Apr_04_1555,59.91288667600263,Cloud_Experiment_FR_REAL,001,31,
images/fcloud80-20_D1.8_9.tif,1.8,2,,,,,,,,,,,,,0,88,88,138,,,,,,,,,,,1,space,3,0.951,5.35324530001,,,,,,,,,,,,,,,,,,2019_Apr_04_1555,59.91288667600263,Cloud_Experiment_FR_REAL,001,31,
images/fcloud_D1.2_8.tif,1.2,0,,,,,,,,,,,,,0,89,89,17,,,,,,,,,,,2,space,3,0.667,3.60618489998,,,,,,,,,,,,,,,,,,2019_Apr_04_1555,59.91288667600263,Cloud_Experiment_FR_REAL,001,31,
images/fcloud_D1.5_8.tif,1.5,0,,,,,,,,,,,,,0,90,90,29,,,,,,,,,,,None,None,None,9.676,,,,,,,,,,,,,,,,,,,2019_Apr_04_1555,59.91288667600263,Cloud_Experiment_FR_REAL,001,31,
images/fcloud65-35_D1.3_10.tif,1.3,1,,,,,,,,,,,,,0,91,91,71,,,,,,,,,,,1,space,4,1.451,6.897589,,,,,,,,,,,,,,,,,,2019_Apr_04_1555,59.91288667600263,Cloud_Experiment_FR_REAL,001,31,
images/fcloud_D1.6_7.tif,1.6,0,,,,,,,,,,,,,0,92,92,32,,,,,,,,,,,3,space,2,0.834,3.58630010003,,,,,,,,,,,,,,,,,,2019_Apr_04_1555,59.91288667600263,Cloud_Experiment_FR_REAL,001,31,
images/fcloud80-20_D1_9.tif,1.0,2,,,,,,,,,,,,,0,93,93,106,,,,,,,,,,,2,space,2,4.415,2.95627719996,,,,,,,,,,,,,,,,,,2019_Apr_04_1555,59.91288667600263,Cloud_Experiment_FR_REAL,001,31,
images/fcloud65-35_D1.1_7.tif,1.1,1,,,,,,,,,,,,,0,94,94,60,,,,,,,,,,,None,None,None,15.971,,,,,,,,,,,,,,,,,,,2019_Apr_04_1555,59.91288667600263,Cloud_Experiment_FR_REAL,001,31,
images/fcloud80-20_D1.6_8.tif,1.6,2,,,,,,,,,,,,,0,95,95,129,,,,,,,,,,,2,space,4,0.768,4.4325691,,,,,,,,,,,,,,,,,,2019_Apr_04_1555,59.91288667600263,Cloud_Experiment_FR_REAL,001,31,
images/fcloud80-20_D0.8_7.tif,0.8,2,,,,,,,,,,,,,0,96,96,96,,,,,,,,,,,None,None,None,9.959,,,,,,,,,,,,,,,,,,,2019_Apr_04_1555,59.91288667600263,Cloud_Experiment_FR_REAL,001,31,
images/fcloud_D1.4_7.tif,1.4,0,,,,,,,,,,,,,0,97,97,24,,,,,,,,,,,1,space,2,3.75,5.42433870002,,,,,,,,,,,,,,,,,,2019_Apr_04_1555,59.91288667600263,Cloud_Experiment_FR_REAL,001,31,
images/fcloud80-20_D1.2_10.tif,1.2,2,,,,,,,,,,,,,0,98,98,115,,,,,,,,,,,1,space,3,1.101,2.02839799999,,,,,,,,,,,,,,,,,,2019_Apr_04_1555,59.91288667600263,Cloud_Experiment_FR_REAL,001,31,
images/fcloud65-35_D1_8.tif,1.0,1,,,,,,,,,,,,,0,99,99,57,,,,,,,,,,,2,space,3,0.885,3.82098419999,,,,,,,,,,,,,,,,,,2019_Apr_04_1555,59.91288667600263,Cloud_Experiment_FR_REAL,001,31,
images/fcloud_D1_10.tif,1.0,0,,,,,,,,,,,,,0,100,100,11,,,,,,,,,,,1,space,1,1.067,3.14986959996,,,,,,,,,,,,,,,,,,2019_Apr_04_1555,59.91288667600263,Cloud_Experiment_FR_REAL,001,31,
images/fcloud80-20_D1.3_7.tif,1.3,2,,,,,,,,,,,,,0,101,101,116,,,,,,,,,,,None,None,None,12.024,,,,,,,,,,,,,,,,,,,2019_Apr_04_1555,59.91288667600263,Cloud_Experiment_FR_REAL,001,31,
images/fcloud65-35_D1.1_9.tif,1.1,1,,,,,,,,,,,,,0,102,102,62,,,,,,,,,,,1,space,1,1.351,4.2109142,,,,,,,,,,,,,,,,,,2019_Apr_04_1555,59.91288667600263,Cloud_Experiment_FR_REAL,001,31,
images/fcloud80-20_D0.9_7.tif,0.9,2,,,,,,,,,,,,,0,103,103,100,,,,,,,,,,,None,None,None,11.741,,,,,,,,,,,,,,,,,,,2019_Apr_04_1555,59.91288667600263,Cloud_Experiment_FR_REAL,001,31,
images/fcloud80-20_D1.8_10.tif,1.8,2,,,,,,,,,,,,,0,104,104,139,,,,,,,,,,,1,space,3,0.968,6.90629919997,,,,,,,,,,,,,,,,,,2019_Apr_04_1555,59.91288667600263,Cloud_Experiment_FR_REAL,001,31,
images/fcloud_D1.7_8.tif,1.7,0,,,,,,,,,,,,,0,105,105,37,,,,,,,,,,,None,None,None,15.454,,,,,,,,,,,,,,,,,,,2019_Apr_04_1555,59.91288667600263,Cloud_Experiment_FR_REAL,001,31,
images/fcloud_D1.8_7.tif,1.8,0,,,,,,,,,,,,,0,106,106,40,,,,,,,,,,,1,space,2,3.1,6.65055830003,,,,,,,,,,,,,,,,,,2019_Apr_04_1555,59.91288667600263,Cloud_Experiment_FR_REAL,001,31,
images/fcloud_D1.5_10.tif,1.5,0,,,,,,,,,,,,,0,107,107,31,,,,,,,,,,,3,space,2,0.619,2.4394876,,,,,,,,,,,,,,,,,,2019_Apr_04_1555,59.91288667600263,Cloud_Experiment_FR_REAL,001,31,
images/fcloud_D1.8_8.tif,1.8,0,,,,,,,,,,,,,0,108,108,41,,,,,,,,,,,2,space,1,0.867,6.11633600004,,,,,,,,,,,,,,,,,,2019_Apr_04_1555,59.91288667600263,Cloud_Experiment_FR_REAL,001,31,
images/fcloud65-35_D1.6_10.tif,1.6,1,,,,,,,,,,,,,0,109,109,83,,,,,,,,,,,2,space,3,1.117,7.25647369999,,,,,,,,,,,,,,,,,,2019_Apr_04_1555,59.91288667600263,Cloud_Experiment_FR_REAL,001,31,
images/fcloud80-20_D1_10.tif,1.0,2,,,,,,,,,,,,,0,110,110,107,,,,,,,,,,,1,None,2,1.416,,,,,,,,,,,,,,,,,,,2019_Apr_04_1555,59.91288667600263,Cloud_Experiment_FR_REAL,001,31,
images/fcloud65-35_D1.2_9.tif,1.2,1,,,,,,,,,,,,,0,111,111,66,,,,,,,,,,,None,None,None,11.391,,,,,,,,,,,,,,,,,,,2019_Apr_04_1555,59.91288667600263,Cloud_Experiment_FR_REAL,001,31,
images/fcloud_D0.8_10.tif,0.8,0,,,,,,,,,,,,,0,112,112,3,,,,,,,,,,,2,space,2,3.15,2.49044769997,,,,,,,,,,,,,,,,,,2019_Apr_04_1555,59.91288667600263,Cloud_Experiment_FR_REAL,001,31,
images/fcloud80-20_D1.5_8.tif,1.5,2,,,,,,,,,,,,,0,113,113,125,,,,,,,,,,,None,None,None,12.34,,,,,,,,,,,,,,,,,,,2019_Apr_04_1555,59.91288667600263,Cloud_Experiment_FR_REAL,001,31,
images/fcloud_D1.1_7.tif,1.1,0,,,,,,,,,,,,,0,114,114,12,,,,,,,,,,,None,None,None,21.583,,,,,,,,,,,,,,,,,,,2019_Apr_04_1555,59.91288667600263,Cloud_Experiment_FR_REAL,001,31,
images/fcloud80-20_D1.9_10.tif,1.9,2,,,,,,,,,,,,,0,115,115,143,,,,,,,,,,,3,space,1,0.636,3.19450380001,,,,,,,,,,,,,,,,,,2019_Apr_04_1555,59.91288667600263,Cloud_Experiment_FR_REAL,001,31,
images/fcloud80-20_D1.1_7.tif,1.1,2,,,,,,,,,,,,,0,116,116,108,,,,,,,,,,,None,None,None,9.81,,,,,,,,,,,,,,,,,,,2019_Apr_04_1555,59.91288667600263,Cloud_Experiment_FR_REAL,001,31,
images/fcloud_D0.8_9.tif,0.8,0,,,,,,,,,,,,,0,117,117,2,,,,,,,,,,,None,None,None,18.651,,,,,,,,,,,,,,,,,,,2019_Apr_04_1555,59.91288667600263,Cloud_Experiment_FR_REAL,001,31,
images/fcloud80-20_D1.5_10.tif,1.5,2,,,,,,,,,,,,,0,118,118,127,,,,,,,,,,,1,space,1,0.417,7.2382502,,,,,,,,,,,,,,,,,,2019_Apr_04_1555,59.91288667600263,Cloud_Experiment_FR_REAL,001,31,
images/fcloud80-20_D0.9_8.tif,0.9,2,,,,,,,,,,,,,0,119,119,101,,,,,,,,,,,None,None,None,9.559,,,,,,,,,,,,,,,,,,,2019_Apr_04_1555,59.91288667600263,Cloud_Experiment_FR_REAL,001,31,
images/fcloud65-35_D1_7.tif,1.0,1,,,,,,,,,,,,,0,120,120,56,,,,,,,,,,,None,None,None,18.434,,,,,,,,,,,,,,,,,,,2019_Apr_04_1555,59.91288667600263,Cloud_Experiment_FR_REAL,001,31,
images/fcloud80-20_D1.6_9.tif,1.6,2,,,,,,,,,,,,,0,121,121,130,,,,,,,,,,,None,None,None,27.027,,,,,,,,,,,,,,,,,,,2019_Apr_04_1555,59.91288667600263,Cloud_Experiment_FR_REAL,001,31,
images/fcloud_D1.5_7.tif,1.5,0,,,,,,,,,,,,,0,122,122,28,,,,,,,,,,,None,None,None,35.586,,,,,,,,,,,,,,,,,,,2019_Apr_04_1555,59.91288667600263,Cloud_Experiment_FR_REAL,001,31,
images/fcloud65-35_D1.3_7.tif,1.3,1,,,,,,,,,,,,,0,123,123,68,,,,,,,,,,,None,None,None,44.412,,,,,,,,,,,,,,,,,,,2019_Apr_04_1555,59.91288667600263,Cloud_Experiment_FR_REAL,001,31,
images/fcloud_D1.6_10.tif,1.6,0,,,,,,,,,,,,,0,124,124,35,,,,,,,,,,,None,None,None,52.805,,,,,,,,,,,,,,,,,,,2019_Apr_04_1555,59.91288667600263,Cloud_Experiment_FR_REAL,001,31,
images/fcloud_D1.4_8.tif,1.4,0,,,,,,,,,,,,,0,125,125,25,,,,,,,,,,,2,space,2,0.701,5.0414933,,,,,,,,,,,,,,,,,,2019_Apr_04_1555,59.91288667600263,Cloud_Experiment_FR_REAL,001,31,
images/fcloud80-20_D1.3_8.tif,1.3,2,,,,,,,,,,,,,0,126,126,117,,,,,,,,,,,None,None,None,11.491,,,,,,,,,,,,,,,,,,,2019_Apr_04_1555,59.91288667600263,Cloud_Experiment_FR_REAL,001,31,
images/fcloud80-20_D1.5_9.tif,1.5,2,,,,,,,,,,,,,0,127,127,126,,,,,,,,,,,None,None,None,23.38,,,,,,,,,,,,,,,,,,,2019_Apr_04_1555,59.91288667600263,Cloud_Experiment_FR_REAL,001,31,
images/fcloud_D1.2_9.tif,1.2,0,,,,,,,,,,,,,0,128,128,18,,,,,,,,,,,2,space,3,0.436,4.42371599999,,,,,,,,,,,,,,,,,,2019_Apr_04_1555,59.91288667600263,Cloud_Experiment_FR_REAL,001,31,
images/fcloud80-20_D1.7_9.tif,1.7,2,,,,,,,,,,,,,0,129,129,134,,,,,,,,,,,3,None,2,0.918,,,,,,,,,,,,,,,,,,,2019_Apr_04_1555,59.91288667600263,Cloud_Experiment_FR_REAL,001,31,
images/fcloud80-20_D1.7_8.tif,1.7,2,,,,,,,,,,,,,0,130,130,133,,,,,,,,,,,3,None,2,1.251,,,,,,,,,,,,,,,,,,,2019_Apr_04_1555,59.91288667600263,Cloud_Experiment_FR_REAL,001,31,
images/fcloud_D0.9_8.tif,0.9,0,,,,,,,,,,,,,0,131,131,5,,,,,,,,,,,None,None,None,10.708,,,,,,,,,,,,,,,,,,,2019_Apr_04_1555,59.91288667600263,Cloud_Experiment_FR_REAL,001,31,
images/fcloud80-20_D1_8.tif,1.0,2,,,,,,,,,,,,,0,132,132,105,,,,,,,,,,,None,None,None,19.467,,,,,,,,,,,,,,,,,,,2019_Apr_04_1555,59.91288667600263,Cloud_Experiment_FR_REAL,001,31,
images/fcloud65-35_D0.9_7.tif,0.9,1,,,,,,,,,,,,,0,133,133,52,,,,,,,,,,,2,space,3,1.27,3.95056249999,,,,,,,,,,,,,,,,,,2019_Apr_04_1555,59.91288667600263,Cloud_Experiment_FR_REAL,001,31,
images/fcloud80-20_D1.4_7.tif,1.4,2,,,,,,,,,,,,,0,134,134,120,,,,,,,,,,,3,space,4,0.501,1.51437249995,,,,,,,,,,,,,,,,,,2019_Apr_04_1555,59.91288667600263,Cloud_Experiment_FR_REAL,001,31,
images/fcloud80-20_D0.8_9.tif,0.8,2,,,,,,,,,,,,,0,135,135,98,,,,,,,,,,,None,None,None,9.477,,,,,,,,,,,,,,,,,,,2019_Apr_04_1555,59.91288667600263,Cloud_Experiment_FR_REAL,001,31,
images/fcloud_D1.8_10.tif,1.8,0,,,,,,,,,,,,,0,136,136,43,,,,,,,,,,,None,None,None,18.885,,,,,,,,,,,,,,,,,,,2019_Apr_04_1555,59.91288667600263,Cloud_Experiment_FR_REAL,001,31,
images/fcloud80-20_D1.4_9.tif,1.4,2,,,,,,,,,,,,,0,137,137,122,,,,,,,,,,,2,None,1,0.585,,,,,,,,,,,,,,,,,,,2019_Apr_04_1555,59.91288667600263,Cloud_Experiment_FR_REAL,001,31,
images/fcloud65-35_D0.9_8.tif,0.9,1,,,,,,,,,,,,,0,138,138,53,,,,,,,,,,,None,None,None,10.342,,,,,,,,,,,,,,,,,,,2019_Apr_04_1555,59.91288667600263,Cloud_Experiment_FR_REAL,001,31,
images/fcloud80-20_D1.1_10.tif,1.1,2,,,,,,,,,,,,,0,139,139,111,,,,,,,,,,,None,None,None,19.268,,,,,,,,,,,,,,,,,,,2019_Apr_04_1555,59.91288667600263,Cloud_Experiment_FR_REAL,001,31,
images/fcloud_D1.7_9.tif,1.7,0,,,,,,,,,,,,,0,140,140,38,,,,,,,,,,,None,None,None,27.926,,,,,,,,,,,,,,,,,,,2019_Apr_04_1555,59.91288667600263,Cloud_Experiment_FR_REAL,001,31,
images/fcloud_D0.9_9.tif,0.9,0,,,,,,,,,,,,,0,141,141,6,,,,,,,,,,,3,space,2,2.167,2.69437700004,,,,,,,,,,,,,,,,,,2019_Apr_04_1555,59.91288667600263,Cloud_Experiment_FR_REAL,001,31,
images/fcloud65-35_D1.7_10.tif,1.7,1,,,,,,,,,,,,,0,142,142,87,,,,,,,,,,,1,None,2,0.752,,,,,,,,,,,,,,,,,,,2019_Apr_04_1555,59.91288667600263,Cloud_Experiment_FR_REAL,001,31,
images/fcloud80-20_D1.6_7.tif,1.6,2,,,,,,,,,,,,,0,143,143,128,,,,,,,,,,,None,None,None,10.107,,,,,,,,,,,,,,,,,,,2019_Apr_04_1555,59.91288667600263,Cloud_Experiment_FR_REAL,001,31,
,,,,,,,,,,,,,,,,,,,,,,,,,3,10.586,,,,,,,,,,,,,,,,,,,,,,,,,2019_Apr_04_1555,59.91288667600263,Cloud_Experiment_FR_REAL,001,31,
,,,,,,,,,,,,,,,,,,,,,,,,,,,,,,,,,,6,,,,,,,,,,,,,,,,,2019_Apr_04_1555,59.91288667600263,Cloud_Experiment_FR_REAL,001,31,
,,,,,,,,,,,,,,,,,,,,,,,,,,,,,,,,,,,6,,,,,,,,,,,,,,,,2019_Apr_04_1555,59.91288667600263,Cloud_Experiment_FR_REAL,001,31,
,,,,,,,,,,,,,,,,,,,,,,,,,,,,,,,,,,,,5,,,,,,,,,,,,,,,2019_Apr_04_1555,59.91288667600263,Cloud_Experiment_FR_REAL,001,31,
,,,,,,,,,,,,,,,,,,,,,,,,,,,,,,,,,,,,,3,,,,,,,,,,,,,,2019_Apr_04_1555,59.91288667600263,Cloud_Experiment_FR_REAL,001,31,
,,,,,,,,,,,,,,,,,,,,,,,,,,,,,,,,,,,,,,3,,,,,,,,,,,,,2019_Apr_04_1555,59.91288667600263,Cloud_Experiment_FR_REAL,001,31,
,,,,,,,,,,,,,,,,,,,,,,,,,,,,,,,,,,,,,,,2,,,,,,,,,,,,2019_Apr_04_1555,59.91288667600263,Cloud_Experiment_FR_REAL,001,31,
,,,,,,,,,,,,,,,,,,,,,,,,,,,,,,,,,,,,,,,,3,,,,,,,,,,,2019_Apr_04_1555,59.91288667600263,Cloud_Experiment_FR_REAL,001,31,
,,,,,,,,,,,,,,,,,,,,,,,,,,,,,,,,,,,,,,,,,7,,,,,,,,,,2019_Apr_04_1555,59.91288667600263,Cloud_Experiment_FR_REAL,001,31,
,,,,,,,,,,,,,,,,,,,,,,,,,,,,,,,,,,,,,,,,,,5,,,,,,,,,2019_Apr_04_1555,59.91288667600263,Cloud_Experiment_FR_REAL,001,31,
,,,,,,,,,,,,,,,,,,,,,,,,,,,,,,,,,,,,,,,,,,,6,,,,,,,,2019_Apr_04_1555,59.91288667600263,Cloud_Experiment_FR_REAL,001,31,
,,,,,,,,,,,,,,,,,,,,,,,,,,,,,,,,,,,,,,,,,,,,,,,,,,3,2019_Apr_04_1555,59.91288667600263,Cloud_Experiment_FR_REAL,001,31,
