ImageFile,FD,Contrast,trials_4.thisRepN,trials_4.thisTrialN,trials_4.thisN,trials_4.thisIndex,trials.thisRepN,trials.thisTrialN,trials.thisN,trials.thisIndex,trials_2.thisRepN,trials_2.thisTrialN,trials_2.thisN,trials_2.thisIndex,trials_3.thisRepN,trials_3.thisTrialN,trials_3.thisN,trials_3.thisIndex,end_instructions.keys,end_instructions.rt,key_resp_4.keys,key_resp_4.rt,key_resp_6.keys,key_resp_6.rt,Fatigue.response,Fatigue.rt,key_resp_5.keys,key_resp_5.rt,n_objets.response,reaction_time.keys,reaction_time.rt,vividness.response,vividness.rt,Flow01.response,Flow02.response,Flow03.response,Flow04.response,Flow05.response,Flow06.response,Flow07.response,Flow08.response,Flow09.response,Flow10.response,key_resp_2.keys,key_resp_2.rt,key_resp_8.keys,key_resp_8.rt,key_resp_3.keys,key_resp_3.rt,Redondance_question.response,date,frameRate,expName,session,participant,
,,,,,,,,,,,,,,,,,,,space,6.6632751,,,,,,,,,,,,,,,,,,,,,,,,,,,,,,,2019_Apr_10_1549,60.29682923439816,Cloud_Experiment_FR_REAL,001,32,
,,,,,,,,,,,,,,,,,,,,,space,28.4416521,,,,,,,,,,,,,,,,,,,,,,,,,,,,,2019_Apr_10_1549,60.29682923439816,Cloud_Experiment_FR_REAL,001,32,
,,,,,,,,,,,,,,,,,,,,,,,space,11.7426874,,,,,,,,,,,,,,,,,,,,,,,,,,,2019_Apr_10_1549,60.29682923439816,Cloud_Experiment_FR_REAL,001,32,
,,,,,,,,,,,,,,,,,,,,,,,,,4,43.074,,,,,,,,,,,,,,,,,,,,,,,,,2019_Apr_10_1549,60.29682923439816,Cloud_Experiment_FR_REAL,001,32,
,,,,,,,,,,,,,,,,,,,,,,,,,,,space,4.1483098,,,,,,,,,,,,,,,,,,,,,,,2019_Apr_10_1549,60.29682923439816,Cloud_Experiment_FR_REAL,001,32,
pratique/fcloud80-20_D1.5_30,1.5,2,0,0,0,8,,,,,,,,,,,,,,,,,,,,,,,1,space,0.00851869999315,1,23.149,,,,,,,,,,,,,,,,,,2019_Apr_10_1549,60.29682923439816,Cloud_Experiment_FR_REAL,001,32,
pratique/fcloud_D1.6_28,1.6,0,0,1,1,5,,,,,,,,,,,,,,,,,,,,,,,4,None,,4,3.184,,,,,,,,,,,,,,,,,,2019_Apr_10_1549,60.29682923439816,Cloud_Experiment_FR_REAL,001,32,
pratique/fcloud65-35_D1.6_30,1.6,1,0,2,2,2,,,,,,,,,,,,,,,,,,,,,,,2,None,,4,5.231,,,,,,,,,,,,,,,,,,2019_Apr_10_1549,60.29682923439816,Cloud_Experiment_FR_REAL,001,32,
pratique/fcloud_D0.8_30,0.8,0,0,3,3,0,,,,,,,,,,,,,,,,,,,,,,,None,None,,None,15.738,,,,,,,,,,,,,,,,,,2019_Apr_10_1549,60.29682923439816,Cloud_Experiment_FR_REAL,001,32,
pratique/fcloud65-35_D1.9_29,1.9,1,0,4,4,7,,,,,,,,,,,,,,,,,,,,,,,2,space,4.8268676,3,1.585,,,,,,,,,,,,,,,,,,2019_Apr_10_1549,60.29682923439816,Cloud_Experiment_FR_REAL,001,32,
pratique/fcloud65-35_D1.2_30,1.2,1,0,5,5,3,,,,,,,,,,,,,,,,,,,,,,,None,None,,None,12.458,,,,,,,,,,,,,,,,,,2019_Apr_10_1549,60.29682923439816,Cloud_Experiment_FR_REAL,001,32,
pratique/fcloud65-35_D1.3_30,1.3,1,0,6,6,6,,,,,,,,,,,,,,,,,,,,,,,None,None,,None,23.681,,,,,,,,,,,,,,,,,,2019_Apr_10_1549,60.29682923439816,Cloud_Experiment_FR_REAL,001,32,
pratique/fcloud80-20_D1_30,1.0,2,0,7,7,9,,,,,,,,,,,,,,,,,,,,,,,1,space,6.01674949999,2,2.333,,,,,,,,,,,,,,,,,,2019_Apr_10_1549,60.29682923439816,Cloud_Experiment_FR_REAL,001,32,
pratique/fcloud_D1.4_30,1.4,0,0,8,8,1,,,,,,,,,,,,,,,,,,,,,,,1,None,,1,2.101,,,,,,,,,,,,,,,,,,2019_Apr_10_1549,60.29682923439816,Cloud_Experiment_FR_REAL,001,32,
pratique/fcloud80-20_D1.8_30,1.8,2,0,9,9,4,,,,,,,,,,,,,,,,,,,,,,,1,None,,1,2.235,,,,,,,,,,,,,,,,,,2019_Apr_10_1549,60.29682923439816,Cloud_Experiment_FR_REAL,001,32,
,,,,,,,,,,,,,,,,,,,,,,,,,,,,,,,,,,4,,,,,,,,,,,,,,,,,2019_Apr_10_1549,60.29682923439816,Cloud_Experiment_FR_REAL,001,32,
,,,,,,,,,,,,,,,,,,,,,,,,,,,,,,,,,,,3,,,,,,,,,,,,,,,,2019_Apr_10_1549,60.29682923439816,Cloud_Experiment_FR_REAL,001,32,
,,,,,,,,,,,,,,,,,,,,,,,,,,,,,,,,,,,,5,,,,,,,,,,,,,,,2019_Apr_10_1549,60.29682923439816,Cloud_Experiment_FR_REAL,001,32,
,,,,,,,,,,,,,,,,,,,,,,,,,,,,,,,,,,,,,4,,,,,,,,,,,,,,2019_Apr_10_1549,60.29682923439816,Cloud_Experiment_FR_REAL,001,32,
,,,,,,,,,,,,,,,,,,,,,,,,,,,,,,,,,,,,,,3,,,,,,,,,,,,,2019_Apr_10_1549,60.29682923439816,Cloud_Experiment_FR_REAL,001,32,
,,,,,,,,,,,,,,,,,,,,,,,,,,,,,,,,,,,,,,,4,,,,,,,,,,,,2019_Apr_10_1549,60.29682923439816,Cloud_Experiment_FR_REAL,001,32,
,,,,,,,,,,,,,,,,,,,,,,,,,,,,,,,,,,,,,,,,4,,,,,,,,,,,2019_Apr_10_1549,60.29682923439816,Cloud_Experiment_FR_REAL,001,32,
,,,,,,,,,,,,,,,,,,,,,,,,,,,,,,,,,,,,,,,,,5,,,,,,,,,,2019_Apr_10_1549,60.29682923439816,Cloud_Experiment_FR_REAL,001,32,
,,,,,,,,,,,,,,,,,,,,,,,,,,,,,,,,,,,,,,,,,,6,,,,,,,,,2019_Apr_10_1549,60.29682923439816,Cloud_Experiment_FR_REAL,001,32,
,,,,,,,,,,,,,,,,,,,,,,,,,,,,,,,,,,,,,,,,,,,3,,,,,,,,2019_Apr_10_1549,60.29682923439816,Cloud_Experiment_FR_REAL,001,32,
,,,,,,,,,,,,,,,,,,,,,,,,,,,,,,,,,,,,,,,,,,,,space,1.3341299,,,,,,2019_Apr_10_1549,60.29682923439816,Cloud_Experiment_FR_REAL,001,32,
images/fcloud65-35_D0.9_3.tif,0.9,1,,,,,0,0,0,41,,,,,,,,,,,,,,,,,,,1,space,5.0271754,2,2.333,,,,,,,,,,,,,,,,,,2019_Apr_10_1549,60.29682923439816,Cloud_Experiment_FR_REAL,001,32,
images/fcloud65-35_D1.6_3.tif,1.6,1,,,,,0,1,1,62,,,,,,,,,,,,,,,,,,,3,space,2.43377810001,3,3.534,,,,,,,,,,,,,,,,,,2019_Apr_10_1549,60.29682923439816,Cloud_Experiment_FR_REAL,001,32,
images/fcloud_D1.2_2.tif,1.2,0,,,,,0,2,2,13,,,,,,,,,,,,,,,,,,,None,None,,None,14.038,,,,,,,,,,,,,,,,,,2019_Apr_10_1549,60.29682923439816,Cloud_Experiment_FR_REAL,001,32,
images/fcloud65-35_D1.4_2.tif,1.4,1,,,,,0,3,3,55,,,,,,,,,,,,,,,,,,,1,None,,1,1.117,,,,,,,,,,,,,,,,,,2019_Apr_10_1549,60.29682923439816,Cloud_Experiment_FR_REAL,001,32,
images/fcloud_D1.4_1.tif,1.4,0,,,,,0,4,4,18,,,,,,,,,,,,,,,,,,,1,space,4.80776109999,2,1.9,,,,,,,,,,,,,,,,,,2019_Apr_10_1549,60.29682923439816,Cloud_Experiment_FR_REAL,001,32,
images/fcloud_D1.8_2.tif,1.8,0,,,,,0,5,5,31,,,,,,,,,,,,,,,,,,,2,space,2.6916184,1,1.967,,,,,,,,,,,,,,,,,,2019_Apr_10_1549,60.29682923439816,Cloud_Experiment_FR_REAL,001,32,
images/fcloud80-20_D0.9_2.tif,0.9,2,,,,,0,6,6,76,,,,,,,,,,,,,,,,,,,None,None,,1,3.699,,,,,,,,,,,,,,,,,,2019_Apr_10_1549,60.29682923439816,Cloud_Experiment_FR_REAL,001,32,
images/fcloud80-20_D0.8_2.tif,0.8,2,,,,,0,7,7,73,,,,,,,,,,,,,,,,,,,1,space,4.4804076,2,1.268,,,,,,,,,,,,,,,,,,2019_Apr_10_1549,60.29682923439816,Cloud_Experiment_FR_REAL,001,32,
images/fcloud_D0.9_3.tif,0.9,0,,,,,0,8,8,5,,,,,,,,,,,,,,,,,,,1,space,3.7952109,4,1.852,,,,,,,,,,,,,,,,,,2019_Apr_10_1549,60.29682923439816,Cloud_Experiment_FR_REAL,001,32,
images/fcloud80-20_D1.8_1.tif,1.8,2,,,,,0,9,9,102,,,,,,,,,,,,,,,,,,,2,space,5.0180439,3,1.268,,,,,,,,,,,,,,,,,,2019_Apr_10_1549,60.29682923439816,Cloud_Experiment_FR_REAL,001,32,
images/fcloud65-35_D1.5_2.tif,1.5,1,,,,,0,10,10,58,,,,,,,,,,,,,,,,,,,None,None,,None,11.875,,,,,,,,,,,,,,,,,,2019_Apr_10_1549,60.29682923439816,Cloud_Experiment_FR_REAL,001,32,
images/fcloud80-20_D1.7_1.tif,1.7,2,,,,,0,11,11,99,,,,,,,,,,,,,,,,,,,2,space,3.26020800001,3,1.234,,,,,,,,,,,,,,,,,,2019_Apr_10_1549,60.29682923439816,Cloud_Experiment_FR_REAL,001,32,
images/fcloud80-20_D1.5_1.tif,1.5,2,,,,,0,12,12,93,,,,,,,,,,,,,,,,,,,None,None,,None,11.543,,,,,,,,,,,,,,,,,,2019_Apr_10_1549,60.29682923439816,Cloud_Experiment_FR_REAL,001,32,
images/fcloud65-35_D1.6_1.tif,1.6,1,,,,,0,13,13,60,,,,,,,,,,,,,,,,,,,2,space,3.8471004,2,1.285,,,,,,,,,,,,,,,,,,2019_Apr_10_1549,60.29682923439816,Cloud_Experiment_FR_REAL,001,32,
images/fcloud65-35_D1.4_1.tif,1.4,1,,,,,0,14,14,54,,,,,,,,,,,,,,,,,,,1,None,,1,3.233,,,,,,,,,,,,,,,,,,2019_Apr_10_1549,60.29682923439816,Cloud_Experiment_FR_REAL,001,32,
images/fcloud65-35_D1.3_3.tif,1.3,1,,,,,0,15,15,53,,,,,,,,,,,,,,,,,,,None,None,,None,11.84,,,,,,,,,,,,,,,,,,2019_Apr_10_1549,60.29682923439816,Cloud_Experiment_FR_REAL,001,32,
images/fcloud80-20_D1.4_3.tif,1.4,2,,,,,0,16,16,92,,,,,,,,,,,,,,,,,,,1,space,3.50405459999,3,1.219,,,,,,,,,,,,,,,,,,2019_Apr_10_1549,60.29682923439816,Cloud_Experiment_FR_REAL,001,32,
images/fcloud80-20_D1.9_3.tif,1.9,2,,,,,0,17,17,107,,,,,,,,,,,,,,,,,,,1,None,,1,0.922,,,,,,,,,,,,,,,,,,2019_Apr_10_1549,60.29682923439816,Cloud_Experiment_FR_REAL,001,32,
images/fcloud80-20_D0.9_1.tif,0.9,2,,,,,0,18,18,75,,,,,,,,,,,,,,,,,,,1,space,5.4562479,2,1.816,,,,,,,,,,,,,,,,,,2019_Apr_10_1549,60.29682923439816,Cloud_Experiment_FR_REAL,001,32,
images/fcloud65-35_D0.9_2.tif,0.9,1,,,,,0,19,19,40,,,,,,,,,,,,,,,,,,,1,space,3.3979075,4,1.351,,,,,,,,,,,,,,,,,,2019_Apr_10_1549,60.29682923439816,Cloud_Experiment_FR_REAL,001,32,
images/fcloud_D1.8_3.tif,1.8,0,,,,,0,20,20,32,,,,,,,,,,,,,,,,,,,2,space,5.20660789999,1,1.967,,,,,,,,,,,,,,,,,,2019_Apr_10_1549,60.29682923439816,Cloud_Experiment_FR_REAL,001,32,
images/fcloud80-20_D1.1_3.tif,1.1,2,,,,,0,21,21,83,,,,,,,,,,,,,,,,,,,None,None,,None,11.742,,,,,,,,,,,,,,,,,,2019_Apr_10_1549,60.29682923439816,Cloud_Experiment_FR_REAL,001,32,
images/fcloud80-20_D1.1_1.tif,1.1,2,,,,,0,22,22,81,,,,,,,,,,,,,,,,,,,None,None,,None,21.384,,,,,,,,,,,,,,,,,,2019_Apr_10_1549,60.29682923439816,Cloud_Experiment_FR_REAL,001,32,
images/fcloud65-35_D1_2.tif,1.0,1,,,,,0,23,23,43,,,,,,,,,,,,,,,,,,,2,space,4.440028,2,1.217,,,,,,,,,,,,,,,,,,2019_Apr_10_1549,60.29682923439816,Cloud_Experiment_FR_REAL,001,32,
images/fcloud65-35_D0.8_1.tif,0.8,1,,,,,0,24,24,36,,,,,,,,,,,,,,,,,,,1,space,2.09836260001,2,1.202,,,,,,,,,,,,,,,,,,2019_Apr_10_1549,60.29682923439816,Cloud_Experiment_FR_REAL,001,32,
images/fcloud65-35_D1.1_1.tif,1.1,1,,,,,0,25,25,45,,,,,,,,,,,,,,,,,,,2,space,2.13332800001,3,1.367,,,,,,,,,,,,,,,,,,2019_Apr_10_1549,60.29682923439816,Cloud_Experiment_FR_REAL,001,32,
images/fcloud_D1.7_3.tif,1.7,0,,,,,0,26,26,29,,,,,,,,,,,,,,,,,,,1,space,4.2267024,4,1.519,,,,,,,,,,,,,,,,,,2019_Apr_10_1549,60.29682923439816,Cloud_Experiment_FR_REAL,001,32,
images/fcloud_D1.5_1.tif,1.5,0,,,,,0,27,27,21,,,,,,,,,,,,,,,,,,,None,None,,None,11.008,,,,,,,,,,,,,,,,,,2019_Apr_10_1549,60.29682923439816,Cloud_Experiment_FR_REAL,001,32,
images/fcloud80-20_D1.8_2.tif,1.8,2,,,,,0,28,28,103,,,,,,,,,,,,,,,,,,,1,space,4.85593600001,1,0.835,,,,,,,,,,,,,,,,,,2019_Apr_10_1549,60.29682923439816,Cloud_Experiment_FR_REAL,001,32,
images/fcloud_D1.2_3.tif,1.2,0,,,,,0,29,29,14,,,,,,,,,,,,,,,,,,,2,space,5.7425748,3,0.819,,,,,,,,,,,,,,,,,,2019_Apr_10_1549,60.29682923439816,Cloud_Experiment_FR_REAL,001,32,
images/fcloud80-20_D1.3_1.tif,1.3,2,,,,,0,30,30,87,,,,,,,,,,,,,,,,,,,1,space,6.50188910001,1,0.819,,,,,,,,,,,,,,,,,,2019_Apr_10_1549,60.29682923439816,Cloud_Experiment_FR_REAL,001,32,
images/fcloud80-20_D1_1.tif,1.0,2,,,,,0,31,31,78,,,,,,,,,,,,,,,,,,,1,space,6.8301011,1,0.986,,,,,,,,,,,,,,,,,,2019_Apr_10_1549,60.29682923439816,Cloud_Experiment_FR_REAL,001,32,
images/fcloud80-20_D1.6_2.tif,1.6,2,,,,,0,32,32,97,,,,,,,,,,,,,,,,,,,1,None,,1,0.652,,,,,,,,,,,,,,,,,,2019_Apr_10_1549,60.29682923439816,Cloud_Experiment_FR_REAL,001,32,
images/fcloud_D1.9_2.tif,1.9,0,,,,,0,33,33,34,,,,,,,,,,,,,,,,,,,3,space,2.84435109999,2,1.068,,,,,,,,,,,,,,,,,,2019_Apr_10_1549,60.29682923439816,Cloud_Experiment_FR_REAL,001,32,
images/fcloud80-20_D1.5_3.tif,1.5,2,,,,,0,34,34,95,,,,,,,,,,,,,,,,,,,1,space,2.7271719,2,1.9,,,,,,,,,,,,,,,,,,2019_Apr_10_1549,60.29682923439816,Cloud_Experiment_FR_REAL,001,32,
images/fcloud80-20_D1.2_1.tif,1.2,2,,,,,0,35,35,84,,,,,,,,,,,,,,,,,,,1,space,7.3075636,1,0.603,,,,,,,,,,,,,,,,,,2019_Apr_10_1549,60.29682923439816,Cloud_Experiment_FR_REAL,001,32,
images/fcloud65-35_D1_1.tif,1.0,1,,,,,0,36,36,42,,,,,,,,,,,,,,,,,,,2,space,4.6398263,4,1.035,,,,,,,,,,,,,,,,,,2019_Apr_10_1549,60.29682923439816,Cloud_Experiment_FR_REAL,001,32,
images/fcloud80-20_D1.7_2.tif,1.7,2,,,,,0,37,37,100,,,,,,,,,,,,,,,,,,,3,space,1.5693815,3,2.15,,,,,,,,,,,,,,,,,,2019_Apr_10_1549,60.29682923439816,Cloud_Experiment_FR_REAL,001,32,
images/fcloud80-20_D0.8_3.tif,0.8,2,,,,,0,38,38,74,,,,,,,,,,,,,,,,,,,None,None,,None,11.859,,,,,,,,,,,,,,,,,,2019_Apr_10_1549,60.29682923439816,Cloud_Experiment_FR_REAL,001,32,
images/fcloud_D1_3.tif,1.0,0,,,,,0,39,39,8,,,,,,,,,,,,,,,,,,,2,space,2.9213087,5,2.034,,,,,,,,,,,,,,,,,,2019_Apr_10_1549,60.29682923439816,Cloud_Experiment_FR_REAL,001,32,
images/fcloud65-35_D1.1_3.tif,1.1,1,,,,,0,40,40,47,,,,,,,,,,,,,,,,,,,1,space,5.2351604,1,0.586,,,,,,,,,,,,,,,,,,2019_Apr_10_1549,60.29682923439816,Cloud_Experiment_FR_REAL,001,32,
images/fcloud65-35_D1.9_3.tif,1.9,1,,,,,0,41,41,71,,,,,,,,,,,,,,,,,,,2,space,4.44124450001,2,1.203,,,,,,,,,,,,,,,,,,2019_Apr_10_1549,60.29682923439816,Cloud_Experiment_FR_REAL,001,32,
images/fcloud65-35_D1_3.tif,1.0,1,,,,,0,42,42,44,,,,,,,,,,,,,,,,,,,1,None,,1,0.486,,,,,,,,,,,,,,,,,,2019_Apr_10_1549,60.29682923439816,Cloud_Experiment_FR_REAL,001,32,
images/fcloud80-20_D1.7_3.tif,1.7,2,,,,,0,43,43,101,,,,,,,,,,,,,,,,,,,1,space,7.0405608,4,0.903,,,,,,,,,,,,,,,,,,2019_Apr_10_1549,60.29682923439816,Cloud_Experiment_FR_REAL,001,32,
images/fcloud80-20_D1.6_1.tif,1.6,2,,,,,0,44,44,96,,,,,,,,,,,,,,,,,,,None,None,,None,10.692,,,,,,,,,,,,,,,,,,2019_Apr_10_1549,60.29682923439816,Cloud_Experiment_FR_REAL,001,32,
images/fcloud80-20_D0.9_3.tif,0.9,2,,,,,0,45,45,77,,,,,,,,,,,,,,,,,,,1,space,5.9967506,2,0.852,,,,,,,,,,,,,,,,,,2019_Apr_10_1549,60.29682923439816,Cloud_Experiment_FR_REAL,001,32,
images/fcloud_D1.1_1.tif,1.1,0,,,,,0,46,46,9,,,,,,,,,,,,,,,,,,,2,space,4.5126611,3,2.0,,,,,,,,,,,,,,,,,,2019_Apr_10_1549,60.29682923439816,Cloud_Experiment_FR_REAL,001,32,
images/fcloud80-20_D1.3_3.tif,1.3,2,,,,,0,47,47,89,,,,,,,,,,,,,,,,,,,1,None,,1,0.519,,,,,,,,,,,,,,,,,,2019_Apr_10_1549,60.29682923439816,Cloud_Experiment_FR_REAL,001,32,
images/fcloud_D1.6_1.tif,1.6,0,,,,,0,48,48,24,,,,,,,,,,,,,,,,,,,1,None,,1,0.569,,,,,,,,,,,,,,,,,,2019_Apr_10_1549,60.29682923439816,Cloud_Experiment_FR_REAL,001,32,
images/fcloud65-35_D1.7_2.tif,1.7,1,,,,,0,49,49,64,,,,,,,,,,,,,,,,,,,2,space,3.0495101,2,1.134,,,,,,,,,,,,,,,,,,2019_Apr_10_1549,60.29682923439816,Cloud_Experiment_FR_REAL,001,32,
images/fcloud_D1_2.tif,1.0,0,,,,,0,50,50,7,,,,,,,,,,,,,,,,,,,2,space,3.9449971,4,2.849,,,,,,,,,,,,,,,,,,2019_Apr_10_1549,60.29682923439816,Cloud_Experiment_FR_REAL,001,32,
images/fcloud65-35_D1.2_3.tif,1.2,1,,,,,0,51,51,50,,,,,,,,,,,,,,,,,,,None,None,,None,12.425,,,,,,,,,,,,,,,,,,2019_Apr_10_1549,60.29682923439816,Cloud_Experiment_FR_REAL,001,32,
images/fcloud80-20_D1.2_3.tif,1.2,2,,,,,0,52,52,86,,,,,,,,,,,,,,,,,,,None,None,,None,21.266,,,,,,,,,,,,,,,,,,2019_Apr_10_1549,60.29682923439816,Cloud_Experiment_FR_REAL,001,32,
images/fcloud_D1.1_2.tif,1.1,0,,,,,0,53,53,10,,,,,,,,,,,,,,,,,,,3,space,7.5818625,3,3.417,,,,,,,,,,,,,,,,,,2019_Apr_10_1549,60.29682923439816,Cloud_Experiment_FR_REAL,001,32,
images/fcloud65-35_D1.9_2.tif,1.9,1,,,,,0,54,54,70,,,,,,,,,,,,,,,,,,,None,None,,None,None,,,,,,,,,,,,,,,,,,2019_Apr_10_1549,60.29682923439816,Cloud_Experiment_FR_REAL,001,32,
images/fcloud_D1.7_2.tif,1.7,0,,,,,0,55,55,28,,,,,,,,,,,,,,,,,,,1,space,6.59409319999,2,1.818,,,,,,,,,,,,,,,,,,2019_Apr_10_1549,60.29682923439816,Cloud_Experiment_FR_REAL,001,32,
images/fcloud80-20_D1.9_2.tif,1.9,2,,,,,0,56,56,106,,,,,,,,,,,,,,,,,,,None,None,,None,11.193,,,,,,,,,,,,,,,,,,2019_Apr_10_1549,60.29682923439816,Cloud_Experiment_FR_REAL,001,32,
images/fcloud_D1.3_2.tif,1.3,0,,,,,0,57,57,16,,,,,,,,,,,,,,,,,,,1,space,3.02845310001,4,1.102,,,,,,,,,,,,,,,,,,2019_Apr_10_1549,60.29682923439816,Cloud_Experiment_FR_REAL,001,32,
images/fcloud65-35_D0.8_3.tif,0.8,1,,,,,0,58,58,38,,,,,,,,,,,,,,,,,,,1,space,5.08562299999,3,1.401,,,,,,,,,,,,,,,,,,2019_Apr_10_1549,60.29682923439816,Cloud_Experiment_FR_REAL,001,32,
images/fcloud80-20_D1.6_3.tif,1.6,2,,,,,0,59,59,98,,,,,,,,,,,,,,,,,,,1,space,2.4880848,5,1.185,,,,,,,,,,,,,,,,,,2019_Apr_10_1549,60.29682923439816,Cloud_Experiment_FR_REAL,001,32,
images/fcloud80-20_D1.1_2.tif,1.1,2,,,,,0,60,60,82,,,,,,,,,,,,,,,,,,,None,None,,None,9.611,,,,,,,,,,,,,,,,,,2019_Apr_10_1549,60.29682923439816,Cloud_Experiment_FR_REAL,001,32,
images/fcloud_D1.6_2.tif,1.6,0,,,,,0,61,61,25,,,,,,,,,,,,,,,,,,,None,None,,None,19.418,,,,,,,,,,,,,,,,,,2019_Apr_10_1549,60.29682923439816,Cloud_Experiment_FR_REAL,001,32,
images/fcloud65-35_D1.6_2.tif,1.6,1,,,,,0,62,62,61,,,,,,,,,,,,,,,,,,,None,None,,None,28.509,,,,,,,,,,,,,,,,,,2019_Apr_10_1549,60.29682923439816,Cloud_Experiment_FR_REAL,001,32,
images/fcloud65-35_D1.5_3.tif,1.5,1,,,,,0,63,63,59,,,,,,,,,,,,,,,,,,,None,None,,None,37.253,,,,,,,,,,,,,,,,,,2019_Apr_10_1549,60.29682923439816,Cloud_Experiment_FR_REAL,001,32,
images/fcloud80-20_D1.9_1.tif,1.9,2,,,,,0,64,64,105,,,,,,,,,,,,,,,,,,,1,space,3.0199445,1,1.901,,,,,,,,,,,,,,,,,,2019_Apr_10_1549,60.29682923439816,Cloud_Experiment_FR_REAL,001,32,
images/fcloud80-20_D1.4_2.tif,1.4,2,,,,,0,65,65,91,,,,,,,,,,,,,,,,,,,1,space,2.34654850001,3,5.016,,,,,,,,,,,,,,,,,,2019_Apr_10_1549,60.29682923439816,Cloud_Experiment_FR_REAL,001,32,
images/fcloud_D1.3_3.tif,1.3,0,,,,,0,66,66,17,,,,,,,,,,,,,,,,,,,2,space,1.62624089999,4,1.801,,,,,,,,,,,,,,,,,,2019_Apr_10_1549,60.29682923439816,Cloud_Experiment_FR_REAL,001,32,
images/fcloud_D1.6_3.tif,1.6,0,,,,,0,67,67,26,,,,,,,,,,,,,,,,,,,None,None,,None,10.957,,,,,,,,,,,,,,,,,,2019_Apr_10_1549,60.29682923439816,Cloud_Experiment_FR_REAL,001,32,
images/fcloud65-35_D1.7_1.tif,1.7,1,,,,,0,68,68,63,,,,,,,,,,,,,,,,,,,None,None,,None,19.768,,,,,,,,,,,,,,,,,,2019_Apr_10_1549,60.29682923439816,Cloud_Experiment_FR_REAL,001,32,
images/fcloud_D0.9_1.tif,0.9,0,,,,,0,69,69,3,,,,,,,,,,,,,,,,,,,3,space,3.3855496,5,1.452,,,,,,,,,,,,,,,,,,2019_Apr_10_1549,60.29682923439816,Cloud_Experiment_FR_REAL,001,32,
images/fcloud_D0.8_2.tif,0.8,0,,,,,0,70,70,1,,,,,,,,,,,,,,,,,,,2,space,4.4827543,4,1.452,,,,,,,,,,,,,,,,,,2019_Apr_10_1549,60.29682923439816,Cloud_Experiment_FR_REAL,001,32,
images/fcloud_D1.9_1.tif,1.9,0,,,,,0,71,71,33,,,,,,,,,,,,,,,,,,,1,space,6.43937810001,5,1.485,,,,,,,,,,,,,,,,,,2019_Apr_10_1549,60.29682923439816,Cloud_Experiment_FR_REAL,001,32,
images/fcloud80-20_D0.8_1.tif,0.8,2,,,,,0,72,72,72,,,,,,,,,,,,,,,,,,,1,space,6.6586269,3,1.285,,,,,,,,,,,,,,,,,,2019_Apr_10_1549,60.29682923439816,Cloud_Experiment_FR_REAL,001,32,
images/fcloud_D1.3_1.tif,1.3,0,,,,,0,73,73,15,,,,,,,,,,,,,,,,,,,2,space,3.0695636,3,1.085,,,,,,,,,,,,,,,,,,2019_Apr_10_1549,60.29682923439816,Cloud_Experiment_FR_REAL,001,32,
images/fcloud65-35_D1.3_2.tif,1.3,1,,,,,0,74,74,52,,,,,,,,,,,,,,,,,,,1,space,7.24484819999,2,1.236,,,,,,,,,,,,,,,,,,2019_Apr_10_1549,60.29682923439816,Cloud_Experiment_FR_REAL,001,32,
images/fcloud65-35_D1.8_2.tif,1.8,1,,,,,0,75,75,67,,,,,,,,,,,,,,,,,,,2,space,4.10939170001,2,1.317,,,,,,,,,,,,,,,,,,2019_Apr_10_1549,60.29682923439816,Cloud_Experiment_FR_REAL,001,32,
images/fcloud65-35_D0.8_2.tif,0.8,1,,,,,0,76,76,37,,,,,,,,,,,,,,,,,,,1,space,4.19495809999,2,1.5,,,,,,,,,,,,,,,,,,2019_Apr_10_1549,60.29682923439816,Cloud_Experiment_FR_REAL,001,32,
images/fcloud_D1.1_3.tif,1.1,0,,,,,0,77,77,11,,,,,,,,,,,,,,,,,,,None,None,,None,12.589,,,,,,,,,,,,,,,,,,2019_Apr_10_1549,60.29682923439816,Cloud_Experiment_FR_REAL,001,32,
images/fcloud_D1.5_2.tif,1.5,0,,,,,0,78,78,22,,,,,,,,,,,,,,,,,,,1,None,,1,1.202,,,,,,,,,,,,,,,,,,2019_Apr_10_1549,60.29682923439816,Cloud_Experiment_FR_REAL,001,32,
images/fcloud65-35_D1.1_2.tif,1.1,1,,,,,0,79,79,46,,,,,,,,,,,,,,,,,,,1,None,,1,4.784,,,,,,,,,,,,,,,,,,2019_Apr_10_1549,60.29682923439816,Cloud_Experiment_FR_REAL,001,32,
images/fcloud65-35_D1.4_3.tif,1.4,1,,,,,0,80,80,56,,,,,,,,,,,,,,,,,,,2,space,4.3158313,3,1.802,,,,,,,,,,,,,,,,,,2019_Apr_10_1549,60.29682923439816,Cloud_Experiment_FR_REAL,001,32,
images/fcloud80-20_D1.5_2.tif,1.5,2,,,,,0,81,81,94,,,,,,,,,,,,,,,,,,,1,space,7.15122839999,3,1.119,,,,,,,,,,,,,,,,,,2019_Apr_10_1549,60.29682923439816,Cloud_Experiment_FR_REAL,001,32,
images/fcloud_D1.8_1.tif,1.8,0,,,,,0,82,82,30,,,,,,,,,,,,,,,,,,,2,space,7.278085,2,2.351,,,,,,,,,,,,,,,,,,2019_Apr_10_1549,60.29682923439816,Cloud_Experiment_FR_REAL,001,32,
images/fcloud65-35_D1.7_3.tif,1.7,1,,,,,0,83,83,65,,,,,,,,,,,,,,,,,,,None,None,,None,11.825,,,,,,,,,,,,,,,,,,2019_Apr_10_1549,60.29682923439816,Cloud_Experiment_FR_REAL,001,32,
images/fcloud65-35_D1.5_1.tif,1.5,1,,,,,0,84,84,57,,,,,,,,,,,,,,,,,,,1,space,6.070811,3,1.151,,,,,,,,,,,,,,,,,,2019_Apr_10_1549,60.29682923439816,Cloud_Experiment_FR_REAL,001,32,
images/fcloud80-20_D1.3_2.tif,1.3,2,,,,,0,85,85,88,,,,,,,,,,,,,,,,,,,3,space,2.87183040001,3,1.019,,,,,,,,,,,,,,,,,,2019_Apr_10_1549,60.29682923439816,Cloud_Experiment_FR_REAL,001,32,
images/fcloud80-20_D1.4_1.tif,1.4,2,,,,,0,86,86,90,,,,,,,,,,,,,,,,,,,None,None,,None,12.474,,,,,,,,,,,,,,,,,,2019_Apr_10_1549,60.29682923439816,Cloud_Experiment_FR_REAL,001,32,
images/fcloud80-20_D1_3.tif,1.0,2,,,,,0,87,87,80,,,,,,,,,,,,,,,,,,,None,None,,None,22.366,,,,,,,,,,,,,,,,,,2019_Apr_10_1549,60.29682923439816,Cloud_Experiment_FR_REAL,001,32,
images/fcloud65-35_D0.9_1.tif,0.9,1,,,,,0,88,88,39,,,,,,,,,,,,,,,,,,,3,space,1.8488773,4,5.065,,,,,,,,,,,,,,,,,,2019_Apr_10_1549,60.29682923439816,Cloud_Experiment_FR_REAL,001,32,
images/fcloud65-35_D1.8_3.tif,1.8,1,,,,,0,89,89,68,,,,,,,,,,,,,,,,,,,3,space,4.34424010001,3,1.452,,,,,,,,,,,,,,,,,,2019_Apr_10_1549,60.29682923439816,Cloud_Experiment_FR_REAL,001,32,
images/fcloud65-35_D1.3_1.tif,1.3,1,,,,,0,90,90,51,,,,,,,,,,,,,,,,,,,None,None,,None,11.907,,,,,,,,,,,,,,,,,,2019_Apr_10_1549,60.29682923439816,Cloud_Experiment_FR_REAL,001,32,
images/fcloud80-20_D1.8_3.tif,1.8,2,,,,,0,91,91,104,,,,,,,,,,,,,,,,,,,1,space,3.13077820001,1,4.416,,,,,,,,,,,,,,,,,,2019_Apr_10_1549,60.29682923439816,Cloud_Experiment_FR_REAL,001,32,
images/fcloud_D1.7_1.tif,1.7,0,,,,,0,92,92,27,,,,,,,,,,,,,,,,,,,2,space,5.29132430001,3,1.368,,,,,,,,,,,,,,,,,,2019_Apr_10_1549,60.29682923439816,Cloud_Experiment_FR_REAL,001,32,
images/fcloud_D1.4_3.tif,1.4,0,,,,,0,93,93,20,,,,,,,,,,,,,,,,,,,2,space,3.833874,3,1.934,,,,,,,,,,,,,,,,,,2019_Apr_10_1549,60.29682923439816,Cloud_Experiment_FR_REAL,001,32,
images/fcloud_D1_1.tif,1.0,0,,,,,0,94,94,6,,,,,,,,,,,,,,,,,,,3,space,5.49345180001,3,3.003,,,,,,,,,,,,,,,,,,2019_Apr_10_1549,60.29682923439816,Cloud_Experiment_FR_REAL,001,32,
images/fcloud65-35_D1.2_1.tif,1.2,1,,,,,0,95,95,48,,,,,,,,,,,,,,,,,,,None,None,,None,12.107,,,,,,,,,,,,,,,,,,2019_Apr_10_1549,60.29682923439816,Cloud_Experiment_FR_REAL,001,32,
images/fcloud80-20_D1_2.tif,1.0,2,,,,,0,96,96,79,,,,,,,,,,,,,,,,,,,3,space,5.8772225,3,1.667,,,,,,,,,,,,,,,,,,2019_Apr_10_1549,60.29682923439816,Cloud_Experiment_FR_REAL,001,32,
images/fcloud_D0.8_3.tif,0.8,0,,,,,0,97,97,2,,,,,,,,,,,,,,,,,,,2,space,4.0716469,3,1.268,,,,,,,,,,,,,,,,,,2019_Apr_10_1549,60.29682923439816,Cloud_Experiment_FR_REAL,001,32,
images/fcloud_D0.8_1.tif,0.8,0,,,,,0,98,98,0,,,,,,,,,,,,,,,,,,,2,space,3.1591258,2,1.834,,,,,,,,,,,,,,,,,,2019_Apr_10_1549,60.29682923439816,Cloud_Experiment_FR_REAL,001,32,
images/fcloud65-35_D1.8_1.tif,1.8,1,,,,,0,99,99,66,,,,,,,,,,,,,,,,,,,1,None,,4,1.752,,,,,,,,,,,,,,,,,,2019_Apr_10_1549,60.29682923439816,Cloud_Experiment_FR_REAL,001,32,
images/fcloud_D1.5_3.tif,1.5,0,,,,,0,100,100,23,,,,,,,,,,,,,,,,,,,2,space,6.9301419,1,1.235,,,,,,,,,,,,,,,,,,2019_Apr_10_1549,60.29682923439816,Cloud_Experiment_FR_REAL,001,32,
images/fcloud65-35_D1.2_2.tif,1.2,1,,,,,0,101,101,49,,,,,,,,,,,,,,,,,,,3,space,2.3412487,3,1.434,,,,,,,,,,,,,,,,,,2019_Apr_10_1549,60.29682923439816,Cloud_Experiment_FR_REAL,001,32,
images/fcloud80-20_D1.2_2.tif,1.2,2,,,,,0,102,102,85,,,,,,,,,,,,,,,,,,,None,None,,None,10.992,,,,,,,,,,,,,,,,,,2019_Apr_10_1549,60.29682923439816,Cloud_Experiment_FR_REAL,001,32,
images/fcloud_D1.2_1.tif,1.2,0,,,,,0,103,103,12,,,,,,,,,,,,,,,,,,,None,None,,None,20.349,,,,,,,,,,,,,,,,,,2019_Apr_10_1549,60.29682923439816,Cloud_Experiment_FR_REAL,001,32,
images/fcloud_D0.9_2.tif,0.9,0,,,,,0,104,104,4,,,,,,,,,,,,,,,,,,,3,space,2.4669633,5,1.484,,,,,,,,,,,,,,,,,,2019_Apr_10_1549,60.29682923439816,Cloud_Experiment_FR_REAL,001,32,
images/fcloud_D1.4_2.tif,1.4,0,,,,,0,105,105,19,,,,,,,,,,,,,,,,,,,1,space,6.133982,3,1.65,,,,,,,,,,,,,,,,,,2019_Apr_10_1549,60.29682923439816,Cloud_Experiment_FR_REAL,001,32,
images/fcloud_D1.9_3.tif,1.9,0,,,,,0,106,106,35,,,,,,,,,,,,,,,,,,,3,space,4.7556486,3,1.868,,,,,,,,,,,,,,,,,,2019_Apr_10_1549,60.29682923439816,Cloud_Experiment_FR_REAL,001,32,
images/fcloud65-35_D1.9_1.tif,1.9,1,,,,,0,107,107,69,,,,,,,,,,,,,,,,,,,1,space,6.0518843,2,1.167,,,,,,,,,,,,,,,,,,2019_Apr_10_1549,60.29682923439816,Cloud_Experiment_FR_REAL,001,32,
,,,,,,,,,,,,,,,,,,,,,,,,,,,,,,,,,,,,,,,,,,,,,,space,2.2670741,,,,2019_Apr_10_1549,60.29682923439816,Cloud_Experiment_FR_REAL,001,32,
,,,,,,,,,,,,,,,,,,,,,,,,,3,8.47,,,,,,,,,,,,,,,,,,,,,,,,,2019_Apr_10_1549,60.29682923439816,Cloud_Experiment_FR_REAL,001,32,
,,,,,,,,,,,,,,,,,,,,,,,,,,,,,,,,,,2,,,,,,,,,,,,,,,,,2019_Apr_10_1549,60.29682923439816,Cloud_Experiment_FR_REAL,001,32,
,,,,,,,,,,,,,,,,,,,,,,,,,,,,,,,,,,,3,,,,,,,,,,,,,,,,2019_Apr_10_1549,60.29682923439816,Cloud_Experiment_FR_REAL,001,32,
,,,,,,,,,,,,,,,,,,,,,,,,,,,,,,,,,,,,1,,,,,,,,,,,,,,,2019_Apr_10_1549,60.29682923439816,Cloud_Experiment_FR_REAL,001,32,
,,,,,,,,,,,,,,,,,,,,,,,,,,,,,,,,,,,,,4,,,,,,,,,,,,,,2019_Apr_10_1549,60.29682923439816,Cloud_Experiment_FR_REAL,001,32,
,,,,,,,,,,,,,,,,,,,,,,,,,,,,,,,,,,,,,,4,,,,,,,,,,,,,2019_Apr_10_1549,60.29682923439816,Cloud_Experiment_FR_REAL,001,32,
,,,,,,,,,,,,,,,,,,,,,,,,,,,,,,,,,,,,,,,2,,,,,,,,,,,,2019_Apr_10_1549,60.29682923439816,Cloud_Experiment_FR_REAL,001,32,
,,,,,,,,,,,,,,,,,,,,,,,,,,,,,,,,,,,,,,,,3,,,,,,,,,,,2019_Apr_10_1549,60.29682923439816,Cloud_Experiment_FR_REAL,001,32,
,,,,,,,,,,,,,,,,,,,,,,,,,,,,,,,,,,,,,,,,,7,,,,,,,,,,2019_Apr_10_1549,60.29682923439816,Cloud_Experiment_FR_REAL,001,32,
,,,,,,,,,,,,,,,,,,,,,,,,,,,,,,,,,,,,,,,,,,6,,,,,,,,,2019_Apr_10_1549,60.29682923439816,Cloud_Experiment_FR_REAL,001,32,
,,,,,,,,,,,,,,,,,,,,,,,,,,,,,,,,,,,,,,,,,,,2,,,,,,,,2019_Apr_10_1549,60.29682923439816,Cloud_Experiment_FR_REAL,001,32,
,,,,,,,,,,,,,,,,,,,,,,,,,,,,,,,,,,,,,,,,,,,,,,,,space,1.018543,,2019_Apr_10_1549,60.29682923439816,Cloud_Experiment_FR_REAL,001,32,
images/fcloud_D1.1_5.tif,1.1,0,,,,,,,,,0,0,0,10,,,,,,,,,,,,,,,1,space,5.48594470001,1,1.034,,,,,,,,,,,,,,,,,,2019_Apr_10_1549,60.29682923439816,Cloud_Experiment_FR_REAL,001,32,
images/fcloud65-35_D1.2_4.tif,1.2,1,,,,,,,,,0,1,1,48,,,,,,,,,,,,,,,None,None,,None,9.844,,,,,,,,,,,,,,,,,,2019_Apr_10_1549,60.29682923439816,Cloud_Experiment_FR_REAL,001,32,
images/fcloud_D0.8_4.tif,0.8,0,,,,,,,,,0,2,2,0,,,,,,,,,,,,,,,3,space,5.9969378,4,0.904,,,,,,,,,,,,,,,,,,2019_Apr_10_1549,60.29682923439816,Cloud_Experiment_FR_REAL,001,32,
images/fcloud65-35_D1.4_5.tif,1.4,1,,,,,,,,,0,3,3,55,,,,,,,,,,,,,,,3,space,3.91036780001,3,1.501,,,,,,,,,,,,,,,,,,2019_Apr_10_1549,60.29682923439816,Cloud_Experiment_FR_REAL,001,32,
images/fcloud_D1.4_4.tif,1.4,0,,,,,,,,,0,4,4,18,,,,,,,,,,,,,,,None,None,,None,11.191,,,,,,,,,,,,,,,,,,2019_Apr_10_1549,60.29682923439816,Cloud_Experiment_FR_REAL,001,32,
images/fcloud_D1_4.tif,1.0,0,,,,,,,,,0,5,5,6,,,,,,,,,,,,,,,2,space,5.4282143,1,1.435,,,,,,,,,,,,,,,,,,2019_Apr_10_1549,60.29682923439816,Cloud_Experiment_FR_REAL,001,32,
images/fcloud65-35_D1.1_4.tif,1.1,1,,,,,,,,,0,6,6,45,,,,,,,,,,,,,,,1,space,5.79300239999,5,1.052,,,,,,,,,,,,,,,,,,2019_Apr_10_1549,60.29682923439816,Cloud_Experiment_FR_REAL,001,32,
images/fcloud_D0.8_6.tif,0.8,0,,,,,,,,,0,7,7,2,,,,,,,,,,,,,,,2,space,5.6478417,5,0.752,,,,,,,,,,,,,,,,,,2019_Apr_10_1549,60.29682923439816,Cloud_Experiment_FR_REAL,001,32,
images/fcloud80-20_D1.6_4.tif,1.6,2,,,,,,,,,0,8,8,96,,,,,,,,,,,,,,,None,None,,None,9.396,,,,,,,,,,,,,,,,,,2019_Apr_10_1549,60.29682923439816,Cloud_Experiment_FR_REAL,001,32,
images/fcloud80-20_D0.8_5.tif,0.8,2,,,,,,,,,0,9,9,73,,,,,,,,,,,,,,,1,None,,2,0.819,,,,,,,,,,,,,,,,,,2019_Apr_10_1549,60.29682923439816,Cloud_Experiment_FR_REAL,001,32,
images/fcloud65-35_D1.6_6.tif,1.6,1,,,,,,,,,0,10,10,62,,,,,,,,,,,,,,,2,space,4.18558580001,2,0.918,,,,,,,,,,,,,,,,,,2019_Apr_10_1549,60.29682923439816,Cloud_Experiment_FR_REAL,001,32,
images/fcloud_D1.5_4.tif,1.5,0,,,,,,,,,0,11,11,21,,,,,,,,,,,,,,,2,space,3.03601279999,2,2.118,,,,,,,,,,,,,,,,,,2019_Apr_10_1549,60.29682923439816,Cloud_Experiment_FR_REAL,001,32,
images/fcloud_D1.2_6.tif,1.2,0,,,,,,,,,0,12,12,14,,,,,,,,,,,,,,,1,space,6.7208824,2,0.751,,,,,,,,,,,,,,,,,,2019_Apr_10_1549,60.29682923439816,Cloud_Experiment_FR_REAL,001,32,
images/fcloud_D1.5_6.tif,1.5,0,,,,,,,,,0,13,13,23,,,,,,,,,,,,,,,1,None,,2,0.836,,,,,,,,,,,,,,,,,,2019_Apr_10_1549,60.29682923439816,Cloud_Experiment_FR_REAL,001,32,
images/fcloud65-35_D1.5_4.tif,1.5,1,,,,,,,,,0,14,14,57,,,,,,,,,,,,,,,2,space,4.5437353,2,2.701,,,,,,,,,,,,,,,,,,2019_Apr_10_1549,60.29682923439816,Cloud_Experiment_FR_REAL,001,32,
images/fcloud65-35_D1.9_6.tif,1.9,1,,,,,,,,,0,15,15,71,,,,,,,,,,,,,,,None,None,,None,13.771,,,,,,,,,,,,,,,,,,2019_Apr_10_1549,60.29682923439816,Cloud_Experiment_FR_REAL,001,32,
images/fcloud65-35_D1_6.tif,1.0,1,,,,,,,,,0,16,16,44,,,,,,,,,,,,,,,None,None,,None,22.965,,,,,,,,,,,,,,,,,,2019_Apr_10_1549,60.29682923439816,Cloud_Experiment_FR_REAL,001,32,
images/fcloud80-20_D1.1_4.tif,1.1,2,,,,,,,,,0,17,17,81,,,,,,,,,,,,,,,1,space,5.7284912,3,1.184,,,,,,,,,,,,,,,,,,2019_Apr_10_1549,60.29682923439816,Cloud_Experiment_FR_REAL,001,32,
images/fcloud80-20_D1.1_5.tif,1.1,2,,,,,,,,,0,18,18,82,,,,,,,,,,,,,,,1,None,,2,0.768,,,,,,,,,,,,,,,,,,2019_Apr_10_1549,60.29682923439816,Cloud_Experiment_FR_REAL,001,32,
images/fcloud_D0.9_5.tif,0.9,0,,,,,,,,,0,19,19,4,,,,,,,,,,,,,,,3,space,2.4258399,4,0.985,,,,,,,,,,,,,,,,,,2019_Apr_10_1549,60.29682923439816,Cloud_Experiment_FR_REAL,001,32,
images/fcloud80-20_D1.2_5.tif,1.2,2,,,,,,,,,0,20,20,85,,,,,,,,,,,,,,,1,space,4.57063330001,3,1.235,,,,,,,,,,,,,,,,,,2019_Apr_10_1549,60.29682923439816,Cloud_Experiment_FR_REAL,001,32,
images/fcloud_D0.9_6.tif,0.9,0,,,,,,,,,0,21,21,5,,,,,,,,,,,,,,,2,space,3.06946419999,2,1.318,,,,,,,,,,,,,,,,,,2019_Apr_10_1549,60.29682923439816,Cloud_Experiment_FR_REAL,001,32,
images/fcloud80-20_D1.4_4.tif,1.4,2,,,,,,,,,0,22,22,90,,,,,,,,,,,,,,,None,None,,None,10.593,,,,,,,,,,,,,,,,,,2019_Apr_10_1549,60.29682923439816,Cloud_Experiment_FR_REAL,001,32,
images/fcloud65-35_D0.8_5.tif,0.8,1,,,,,,,,,0,23,23,37,,,,,,,,,,,,,,,1,space,3.3607095,3,1.135,,,,,,,,,,,,,,,,,,2019_Apr_10_1549,60.29682923439816,Cloud_Experiment_FR_REAL,001,32,
images/fcloud65-35_D1.3_6.tif,1.3,1,,,,,,,,,0,24,24,53,,,,,,,,,,,,,,,1,space,7.50389549999,2,1.618,,,,,,,,,,,,,,,,,,2019_Apr_10_1549,60.29682923439816,Cloud_Experiment_FR_REAL,001,32,
images/fcloud65-35_D1.6_4.tif,1.6,1,,,,,,,,,0,25,25,60,,,,,,,,,,,,,,,2,space,2.7344857,4,1.301,,,,,,,,,,,,,,,,,,2019_Apr_10_1549,60.29682923439816,Cloud_Experiment_FR_REAL,001,32,
images/fcloud65-35_D1.7_5.tif,1.7,1,,,,,,,,,0,26,26,64,,,,,,,,,,,,,,,2,space,5.4190814,3,1.401,,,,,,,,,,,,,,,,,,2019_Apr_10_1549,60.29682923439816,Cloud_Experiment_FR_REAL,001,32,
images/fcloud65-35_D1.8_6.tif,1.8,1,,,,,,,,,0,27,27,68,,,,,,,,,,,,,,,2,space,4.26007209999,3,0.919,,,,,,,,,,,,,,,,,,2019_Apr_10_1549,60.29682923439816,Cloud_Experiment_FR_REAL,001,32,
images/fcloud80-20_D1.9_5.tif,1.9,2,,,,,,,,,0,28,28,106,,,,,,,,,,,,,,,1,None,,2,1.252,,,,,,,,,,,,,,,,,,2019_Apr_10_1549,60.29682923439816,Cloud_Experiment_FR_REAL,001,32,
images/fcloud65-35_D1.2_5.tif,1.2,1,,,,,,,,,0,29,29,49,,,,,,,,,,,,,,,None,None,,None,10.543,,,,,,,,,,,,,,,,,,2019_Apr_10_1549,60.29682923439816,Cloud_Experiment_FR_REAL,001,32,
images/fcloud65-35_D1_4.tif,1.0,1,,,,,,,,,0,30,30,42,,,,,,,,,,,,,,,1,None,,1,0.586,,,,,,,,,,,,,,,,,,2019_Apr_10_1549,60.29682923439816,Cloud_Experiment_FR_REAL,001,32,
images/fcloud65-35_D1.3_4.tif,1.3,1,,,,,,,,,0,31,31,51,,,,,,,,,,,,,,,1,space,5.7941267,1,0.584,,,,,,,,,,,,,,,,,,2019_Apr_10_1549,60.29682923439816,Cloud_Experiment_FR_REAL,001,32,
images/fcloud65-35_D1.5_5.tif,1.5,1,,,,,,,,,0,32,32,58,,,,,,,,,,,,,,,2,space,2.9210862,3,0.718,,,,,,,,,,,,,,,,,,2019_Apr_10_1549,60.29682923439816,Cloud_Experiment_FR_REAL,001,32,
images/fcloud80-20_D1.3_6.tif,1.3,2,,,,,,,,,0,33,33,89,,,,,,,,,,,,,,,None,None,,None,9.991,,,,,,,,,,,,,,,,,,2019_Apr_10_1549,60.29682923439816,Cloud_Experiment_FR_REAL,001,32,
images/fcloud65-35_D1.3_5.tif,1.3,1,,,,,,,,,0,34,34,52,,,,,,,,,,,,,,,1,space,5.39380819999,2,1.053,,,,,,,,,,,,,,,,,,2019_Apr_10_1549,60.29682923439816,Cloud_Experiment_FR_REAL,001,32,
images/fcloud80-20_D1_4.tif,1.0,2,,,,,,,,,0,35,35,78,,,,,,,,,,,,,,,None,None,,None,9.459,,,,,,,,,,,,,,,,,,2019_Apr_10_1549,60.29682923439816,Cloud_Experiment_FR_REAL,001,32,
images/fcloud80-20_D1.1_6.tif,1.1,2,,,,,,,,,0,36,36,83,,,,,,,,,,,,,,,1,space,3.8612551,4,1.302,,,,,,,,,,,,,,,,,,2019_Apr_10_1549,60.29682923439816,Cloud_Experiment_FR_REAL,001,32,
images/fcloud_D1.1_6.tif,1.1,0,,,,,,,,,0,37,37,11,,,,,,,,,,,,,,,3,space,2.680974,5,1.452,,,,,,,,,,,,,,,,,,2019_Apr_10_1549,60.29682923439816,Cloud_Experiment_FR_REAL,001,32,
images/fcloud80-20_D1.7_4.tif,1.7,2,,,,,,,,,0,38,38,99,,,,,,,,,,,,,,,2,None,,1,1.537,,,,,,,,,,,,,,,,,,2019_Apr_10_1549,60.29682923439816,Cloud_Experiment_FR_REAL,001,32,
images/fcloud_D1.9_4.tif,1.9,0,,,,,,,,,0,39,39,33,,,,,,,,,,,,,,,2,None,,1,0.919,,,,,,,,,,,,,,,,,,2019_Apr_10_1549,60.29682923439816,Cloud_Experiment_FR_REAL,001,32,
images/fcloud_D1.3_5.tif,1.3,0,,,,,,,,,0,40,40,16,,,,,,,,,,,,,,,3,space,3.4612491,3,1.151,,,,,,,,,,,,,,,,,,2019_Apr_10_1549,60.29682923439816,Cloud_Experiment_FR_REAL,001,32,
images/fcloud_D1.7_4.tif,1.7,0,,,,,,,,,0,41,41,27,,,,,,,,,,,,,,,None,None,,None,9.561,,,,,,,,,,,,,,,,,,2019_Apr_10_1549,60.29682923439816,Cloud_Experiment_FR_REAL,001,32,
images/fcloud_D1_6.tif,1.0,0,,,,,,,,,0,42,42,8,,,,,,,,,,,,,,,4,space,4.42194619999,4,1.336,,,,,,,,,,,,,,,,,,2019_Apr_10_1549,60.29682923439816,Cloud_Experiment_FR_REAL,001,32,
images/fcloud65-35_D1.1_6.tif,1.1,1,,,,,,,,,0,43,43,47,,,,,,,,,,,,,,,2,space,2.29029999999,2,1.484,,,,,,,,,,,,,,,,,,2019_Apr_10_1549,60.29682923439816,Cloud_Experiment_FR_REAL,001,32,
images/fcloud80-20_D0.9_5.tif,0.9,2,,,,,,,,,0,44,44,76,,,,,,,,,,,,,,,None,None,,None,10.627,,,,,,,,,,,,,,,,,,2019_Apr_10_1549,60.29682923439816,Cloud_Experiment_FR_REAL,001,32,
images/fcloud80-20_D1.8_4.tif,1.8,2,,,,,,,,,0,45,45,102,,,,,,,,,,,,,,,1,space,4.9055051,4,1.102,,,,,,,,,,,,,,,,,,2019_Apr_10_1549,60.29682923439816,Cloud_Experiment_FR_REAL,001,32,
images/fcloud80-20_D1.2_6.tif,1.2,2,,,,,,,,,0,46,46,86,,,,,,,,,,,,,,,4,space,3.77414740001,1,1.153,,,,,,,,,,,,,,,,,,2019_Apr_10_1549,60.29682923439816,Cloud_Experiment_FR_REAL,001,32,
images/fcloud65-35_D1.7_4.tif,1.7,1,,,,,,,,,0,47,47,63,,,,,,,,,,,,,,,2,None,,4,1.869,,,,,,,,,,,,,,,,,,2019_Apr_10_1549,60.29682923439816,Cloud_Experiment_FR_REAL,001,32,
images/fcloud80-20_D1_6.tif,1.0,2,,,,,,,,,0,48,48,80,,,,,,,,,,,,,,,None,None,,None,11.675,,,,,,,,,,,,,,,,,,2019_Apr_10_1549,60.29682923439816,Cloud_Experiment_FR_REAL,001,32,
images/fcloud_D1.6_6.tif,1.6,0,,,,,,,,,0,49,49,26,,,,,,,,,,,,,,,1,space,7.0754203,2,1.135,,,,,,,,,,,,,,,,,,2019_Apr_10_1549,60.29682923439816,Cloud_Experiment_FR_REAL,001,32,
images/fcloud80-20_D1.9_4.tif,1.9,2,,,,,,,,,0,50,50,105,,,,,,,,,,,,,,,1,space,7.0218322,3,0.886,,,,,,,,,,,,,,,,,,2019_Apr_10_1549,60.29682923439816,Cloud_Experiment_FR_REAL,001,32,
images/fcloud_D1.3_4.tif,1.3,0,,,,,,,,,0,51,51,15,,,,,,,,,,,,,,,None,None,,None,10.192,,,,,,,,,,,,,,,,,,2019_Apr_10_1549,60.29682923439816,Cloud_Experiment_FR_REAL,001,32,
images/fcloud80-20_D1.4_5.tif,1.4,2,,,,,,,,,0,52,52,91,,,,,,,,,,,,,,,None,None,,None,20.016,,,,,,,,,,,,,,,,,,2019_Apr_10_1549,60.29682923439816,Cloud_Experiment_FR_REAL,001,32,
images/fcloud80-20_D0.9_4.tif,0.9,2,,,,,,,,,0,53,53,75,,,,,,,,,,,,,,,None,None,,None,29.044,,,,,,,,,,,,,,,,,,2019_Apr_10_1549,60.29682923439816,Cloud_Experiment_FR_REAL,001,32,
images/fcloud80-20_D0.8_4.tif,0.8,2,,,,,,,,,0,54,54,72,,,,,,,,,,,,,,,None,None,,None,37.969,,,,,,,,,,,,,,,,,,2019_Apr_10_1549,60.29682923439816,Cloud_Experiment_FR_REAL,001,32,
images/fcloud_D1.6_5.tif,1.6,0,,,,,,,,,0,55,55,25,,,,,,,,,,,,,,,3,space,3.20736659999,3,0.951,,,,,,,,,,,,,,,,,,2019_Apr_10_1549,60.29682923439816,Cloud_Experiment_FR_REAL,001,32,
images/fcloud65-35_D1.7_6.tif,1.7,1,,,,,,,,,0,56,56,65,,,,,,,,,,,,,,,None,None,,None,9.446,,,,,,,,,,,,,,,,,,2019_Apr_10_1549,60.29682923439816,Cloud_Experiment_FR_REAL,001,32,
images/fcloud_D1.4_5.tif,1.4,0,,,,,,,,,0,57,57,19,,,,,,,,,,,,,,,None,None,,None,18.702,,,,,,,,,,,,,,,,,,2019_Apr_10_1549,60.29682923439816,Cloud_Experiment_FR_REAL,001,32,
images/fcloud_D1.2_4.tif,1.2,0,,,,,,,,,0,58,58,12,,,,,,,,,,,,,,,2,space,6.14682719999,3,0.769,,,,,,,,,,,,,,,,,,2019_Apr_10_1549,60.29682923439816,Cloud_Experiment_FR_REAL,001,32,
images/fcloud_D1.3_6.tif,1.3,0,,,,,,,,,0,59,59,17,,,,,,,,,,,,,,,3,space,4.064463,3,1.353,,,,,,,,,,,,,,,,,,2019_Apr_10_1549,60.29682923439816,Cloud_Experiment_FR_REAL,001,32,
images/fcloud_D1.2_5.tif,1.2,0,,,,,,,,,0,60,60,13,,,,,,,,,,,,,,,None,None,,None,11.041,,,,,,,,,,,,,,,,,,2019_Apr_10_1549,60.29682923439816,Cloud_Experiment_FR_REAL,001,32,
images/fcloud_D1.8_4.tif,1.8,0,,,,,,,,,0,61,61,30,,,,,,,,,,,,,,,1,None,,2,0.885,,,,,,,,,,,,,,,,,,2019_Apr_10_1549,60.29682923439816,Cloud_Experiment_FR_REAL,001,32,
images/fcloud80-20_D1.3_4.tif,1.3,2,,,,,,,,,0,62,62,87,,,,,,,,,,,,,,,None,None,,None,9.244,,,,,,,,,,,,,,,,,,2019_Apr_10_1549,60.29682923439816,Cloud_Experiment_FR_REAL,001,32,
images/fcloud65-35_D1_5.tif,1.0,1,,,,,,,,,0,63,63,43,,,,,,,,,,,,,,,2,space,3.44897150001,4,0.736,,,,,,,,,,,,,,,,,,2019_Apr_10_1549,60.29682923439816,Cloud_Experiment_FR_REAL,001,32,
images/fcloud65-35_D1.9_5.tif,1.9,1,,,,,,,,,0,64,64,70,,,,,,,,,,,,,,,1,space,5.60517910001,4,1.07,,,,,,,,,,,,,,,,,,2019_Apr_10_1549,60.29682923439816,Cloud_Experiment_FR_REAL,001,32,
images/fcloud_D1.1_4.tif,1.1,0,,,,,,,,,0,65,65,9,,,,,,,,,,,,,,,3,space,4.27148349999,3,0.586,,,,,,,,,,,,,,,,,,2019_Apr_10_1549,60.29682923439816,Cloud_Experiment_FR_REAL,001,32,
images/fcloud80-20_D1.5_4.tif,1.5,2,,,,,,,,,0,66,66,93,,,,,,,,,,,,,,,None,None,,None,10.542,,,,,,,,,,,,,,,,,,2019_Apr_10_1549,60.29682923439816,Cloud_Experiment_FR_REAL,001,32,
images/fcloud65-35_D1.1_5.tif,1.1,1,,,,,,,,,0,67,67,46,,,,,,,,,,,,,,,1,space,5.04214770001,1,2.717,,,,,,,,,,,,,,,,,,2019_Apr_10_1549,60.29682923439816,Cloud_Experiment_FR_REAL,001,32,
images/fcloud_D1.4_6.tif,1.4,0,,,,,,,,,0,68,68,20,,,,,,,,,,,,,,,2,space,6.6094114,3,0.553,,,,,,,,,,,,,,,,,,2019_Apr_10_1549,60.29682923439816,Cloud_Experiment_FR_REAL,001,32,
images/fcloud80-20_D1.8_5.tif,1.8,2,,,,,,,,,0,69,69,103,,,,,,,,,,,,,,,None,None,,None,9.958,,,,,,,,,,,,,,,,,,2019_Apr_10_1549,60.29682923439816,Cloud_Experiment_FR_REAL,001,32,
images/fcloud80-20_D1.9_6.tif,1.9,2,,,,,,,,,0,70,70,107,,,,,,,,,,,,,,,2,None,,1,0.601,,,,,,,,,,,,,,,,,,2019_Apr_10_1549,60.29682923439816,Cloud_Experiment_FR_REAL,001,32,
images/fcloud80-20_D1.5_6.tif,1.5,2,,,,,,,,,0,71,71,95,,,,,,,,,,,,,,,1,space,6.6780036,2,2.284,,,,,,,,,,,,,,,,,,2019_Apr_10_1549,60.29682923439816,Cloud_Experiment_FR_REAL,001,32,
images/fcloud65-35_D1.8_5.tif,1.8,1,,,,,,,,,0,72,72,67,,,,,,,,,,,,,,,None,None,,None,11.792,,,,,,,,,,,,,,,,,,2019_Apr_10_1549,60.29682923439816,Cloud_Experiment_FR_REAL,001,32,
images/fcloud65-35_D0.8_6.tif,0.8,1,,,,,,,,,0,73,73,38,,,,,,,,,,,,,,,None,None,,None,20.251,,,,,,,,,,,,,,,,,,2019_Apr_10_1549,60.29682923439816,Cloud_Experiment_FR_REAL,001,32,
images/fcloud65-35_D0.9_4.tif,0.9,1,,,,,,,,,0,74,74,39,,,,,,,,,,,,,,,1,space,4.26995059999,2,1.118,,,,,,,,,,,,,,,,,,2019_Apr_10_1549,60.29682923439816,Cloud_Experiment_FR_REAL,001,32,
images/fcloud80-20_D1.6_6.tif,1.6,2,,,,,,,,,0,75,75,98,,,,,,,,,,,,,,,2,space,4.53430900001,2,0.751,,,,,,,,,,,,,,,,,,2019_Apr_10_1549,60.29682923439816,Cloud_Experiment_FR_REAL,001,32,
images/fcloud65-35_D0.9_6.tif,0.9,1,,,,,,,,,0,76,76,41,,,,,,,,,,,,,,,1,None,,1,1.352,,,,,,,,,,,,,,,,,,2019_Apr_10_1549,60.29682923439816,Cloud_Experiment_FR_REAL,001,32,
images/fcloud_D0.8_5.tif,0.8,0,,,,,,,,,0,77,77,1,,,,,,,,,,,,,,,None,None,,None,10.809,,,,,,,,,,,,,,,,,,2019_Apr_10_1549,60.29682923439816,Cloud_Experiment_FR_REAL,001,32,
images/fcloud80-20_D0.8_6.tif,0.8,2,,,,,,,,,0,78,78,74,,,,,,,,,,,,,,,None,None,,None,20.002,,,,,,,,,,,,,,,,,,2019_Apr_10_1549,60.29682923439816,Cloud_Experiment_FR_REAL,001,32,
images/fcloud_D1.8_5.tif,1.8,0,,,,,,,,,0,79,79,31,,,,,,,,,,,,,,,1,None,,1,0.552,,,,,,,,,,,,,,,,,,2019_Apr_10_1549,60.29682923439816,Cloud_Experiment_FR_REAL,001,32,
images/fcloud65-35_D1.4_4.tif,1.4,1,,,,,,,,,0,80,80,54,,,,,,,,,,,,,,,None,None,,None,10.327,,,,,,,,,,,,,,,,,,2019_Apr_10_1549,60.29682923439816,Cloud_Experiment_FR_REAL,001,32,
images/fcloud_D1.7_5.tif,1.7,0,,,,,,,,,0,81,81,28,,,,,,,,,,,,,,,1,space,7.4667973,2,0.553,,,,,,,,,,,,,,,,,,2019_Apr_10_1549,60.29682923439816,Cloud_Experiment_FR_REAL,001,32,
images/fcloud80-20_D1.6_5.tif,1.6,2,,,,,,,,,0,82,82,97,,,,,,,,,,,,,,,1,space,6.1755995,3,0.584,,,,,,,,,,,,,,,,,,2019_Apr_10_1549,60.29682923439816,Cloud_Experiment_FR_REAL,001,32,
images/fcloud_D1.9_5.tif,1.9,0,,,,,,,,,0,83,83,34,,,,,,,,,,,,,,,1,None,,2,1.585,,,,,,,,,,,,,,,,,,2019_Apr_10_1549,60.29682923439816,Cloud_Experiment_FR_REAL,001,32,
images/fcloud_D1.5_5.tif,1.5,0,,,,,,,,,0,84,84,22,,,,,,,,,,,,,,,1,space,4.5548945,3,1.485,,,,,,,,,,,,,,,,,,2019_Apr_10_1549,60.29682923439816,Cloud_Experiment_FR_REAL,001,32,
images/fcloud80-20_D1.7_6.tif,1.7,2,,,,,,,,,0,85,85,101,,,,,,,,,,,,,,,1,space,6.9204871,3,1.336,,,,,,,,,,,,,,,,,,2019_Apr_10_1549,60.29682923439816,Cloud_Experiment_FR_REAL,001,32,
images/fcloud65-35_D1.5_6.tif,1.5,1,,,,,,,,,0,86,86,59,,,,,,,,,,,,,,,None,None,,None,10.959,,,,,,,,,,,,,,,,,,2019_Apr_10_1549,60.29682923439816,Cloud_Experiment_FR_REAL,001,32,
images/fcloud80-20_D0.9_6.tif,0.9,2,,,,,,,,,0,87,87,77,,,,,,,,,,,,,,,1,space,3.78934219999,1,1.868,,,,,,,,,,,,,,,,,,2019_Apr_10_1549,60.29682923439816,Cloud_Experiment_FR_REAL,001,32,
images/fcloud80-20_D1_5.tif,1.0,2,,,,,,,,,0,88,88,79,,,,,,,,,,,,,,,1,space,7.1154426,2,0.52,,,,,,,,,,,,,,,,,,2019_Apr_10_1549,60.29682923439816,Cloud_Experiment_FR_REAL,001,32,
images/fcloud65-35_D1.6_5.tif,1.6,1,,,,,,,,,0,89,89,61,,,,,,,,,,,,,,,None,None,,None,10.076,,,,,,,,,,,,,,,,,,2019_Apr_10_1549,60.29682923439816,Cloud_Experiment_FR_REAL,001,32,
images/fcloud80-20_D1.8_6.tif,1.8,2,,,,,,,,,0,90,90,104,,,,,,,,,,,,,,,None,None,,None,19.403,,,,,,,,,,,,,,,,,,2019_Apr_10_1549,60.29682923439816,Cloud_Experiment_FR_REAL,001,32,
images/fcloud65-35_D1.8_4.tif,1.8,1,,,,,,,,,0,91,91,66,,,,,,,,,,,,,,,1,space,3.4865918,2,0.502,,,,,,,,,,,,,,,,,,2019_Apr_10_1549,60.29682923439816,Cloud_Experiment_FR_REAL,001,32,
images/fcloud80-20_D1.3_5.tif,1.3,2,,,,,,,,,0,92,92,88,,,,,,,,,,,,,,,None,None,,None,9.877,,,,,,,,,,,,,,,,,,2019_Apr_10_1549,60.29682923439816,Cloud_Experiment_FR_REAL,001,32,
images/fcloud80-20_D1.5_5.tif,1.5,2,,,,,,,,,0,93,93,94,,,,,,,,,,,,,,,1,None,,1,0.419,,,,,,,,,,,,,,,,,,2019_Apr_10_1549,60.29682923439816,Cloud_Experiment_FR_REAL,001,32,
images/fcloud_D1.8_6.tif,1.8,0,,,,,,,,,0,94,94,32,,,,,,,,,,,,,,,1,space,1.29877550001,1,1.085,,,,,,,,,,,,,,,,,,2019_Apr_10_1549,60.29682923439816,Cloud_Experiment_FR_REAL,001,32,
images/fcloud80-20_D1.7_5.tif,1.7,2,,,,,,,,,0,95,95,100,,,,,,,,,,,,,,,None,None,,None,9.943,,,,,,,,,,,,,,,,,,2019_Apr_10_1549,60.29682923439816,Cloud_Experiment_FR_REAL,001,32,
images/fcloud_D1_5.tif,1.0,0,,,,,,,,,0,96,96,7,,,,,,,,,,,,,,,1,space,7.24512060001,2,1.052,,,,,,,,,,,,,,,,,,2019_Apr_10_1549,60.29682923439816,Cloud_Experiment_FR_REAL,001,32,
images/fcloud_D1.9_6.tif,1.9,0,,,,,,,,,0,97,97,35,,,,,,,,,,,,,,,None,None,,None,10.958,,,,,,,,,,,,,,,,,,2019_Apr_10_1549,60.29682923439816,Cloud_Experiment_FR_REAL,001,32,
images/fcloud65-35_D0.9_5.tif,0.9,1,,,,,,,,,0,98,98,40,,,,,,,,,,,,,,,2,None,,2,0.886,,,,,,,,,,,,,,,,,,2019_Apr_10_1549,60.29682923439816,Cloud_Experiment_FR_REAL,001,32,
images/fcloud65-35_D0.8_4.tif,0.8,1,,,,,,,,,0,99,99,36,,,,,,,,,,,,,,,None,None,,None,9.446,,,,,,,,,,,,,,,,,,2019_Apr_10_1549,60.29682923439816,Cloud_Experiment_FR_REAL,001,32,
images/fcloud_D1.6_4.tif,1.6,0,,,,,,,,,0,100,100,24,,,,,,,,,,,,,,,None,None,,None,17.953,,,,,,,,,,,,,,,,,,2019_Apr_10_1549,60.29682923439816,Cloud_Experiment_FR_REAL,001,32,
images/fcloud80-20_D1.4_6.tif,1.4,2,,,,,,,,,0,101,101,92,,,,,,,,,,,,,,,1,None,,1,0.569,,,,,,,,,,,,,,,,,,2019_Apr_10_1549,60.29682923439816,Cloud_Experiment_FR_REAL,001,32,
images/fcloud65-35_D1.9_4.tif,1.9,1,,,,,,,,,0,102,102,69,,,,,,,,,,,,,,,2,space,5.408717,2,1.551,,,,,,,,,,,,,,,,,,2019_Apr_10_1549,60.29682923439816,Cloud_Experiment_FR_REAL,001,32,
images/fcloud65-35_D1.4_6.tif,1.4,1,,,,,,,,,0,103,103,56,,,,,,,,,,,,,,,1,space,3.5629032,2,0.619,,,,,,,,,,,,,,,,,,2019_Apr_10_1549,60.29682923439816,Cloud_Experiment_FR_REAL,001,32,
images/fcloud_D1.7_6.tif,1.7,0,,,,,,,,,0,104,104,29,,,,,,,,,,,,,,,None,None,,None,9.926,,,,,,,,,,,,,,,,,,2019_Apr_10_1549,60.29682923439816,Cloud_Experiment_FR_REAL,001,32,
images/fcloud_D0.9_4.tif,0.9,0,,,,,,,,,0,105,105,3,,,,,,,,,,,,,,,None,None,,None,18.584,,,,,,,,,,,,,,,,,,2019_Apr_10_1549,60.29682923439816,Cloud_Experiment_FR_REAL,001,32,
images/fcloud80-20_D1.2_4.tif,1.2,2,,,,,,,,,0,106,106,84,,,,,,,,,,,,,,,2,space,4.9783148,1,1.451,,,,,,,,,,,,,,,,,,2019_Apr_10_1549,60.29682923439816,Cloud_Experiment_FR_REAL,001,32,
images/fcloud65-35_D1.2_6.tif,1.2,1,,,,,,,,,0,107,107,50,,,,,,,,,,,,,,,2,None,,1,1.418,,,,,,,,,,,,,,,,,,2019_Apr_10_1549,60.29682923439816,Cloud_Experiment_FR_REAL,001,32,
,,,,,,,,,,,,,,,,,,,,,,,,,,,,,,,,,,,,,,,,,,,,,,space,5.73175719999,,,,2019_Apr_10_1549,60.29682923439816,Cloud_Experiment_FR_REAL,001,32,
,,,,,,,,,,,,,,,,,,,,,,,,,2,4.564,,,,,,,,,,,,,,,,,,,,,,,,,2019_Apr_10_1549,60.29682923439816,Cloud_Experiment_FR_REAL,001,32,
,,,,,,,,,,,,,,,,,,,,,,,,,,,,,,,,,,1,,,,,,,,,,,,,,,,,2019_Apr_10_1549,60.29682923439816,Cloud_Experiment_FR_REAL,001,32,
,,,,,,,,,,,,,,,,,,,,,,,,,,,,,,,,,,,1,,,,,,,,,,,,,,,,2019_Apr_10_1549,60.29682923439816,Cloud_Experiment_FR_REAL,001,32,
,,,,,,,,,,,,,,,,,,,,,,,,,,,,,,,,,,,,1,,,,,,,,,,,,,,,2019_Apr_10_1549,60.29682923439816,Cloud_Experiment_FR_REAL,001,32,
,,,,,,,,,,,,,,,,,,,,,,,,,,,,,,,,,,,,,3,,,,,,,,,,,,,,2019_Apr_10_1549,60.29682923439816,Cloud_Experiment_FR_REAL,001,32,
,,,,,,,,,,,,,,,,,,,,,,,,,,,,,,,,,,,,,,4,,,,,,,,,,,,,2019_Apr_10_1549,60.29682923439816,Cloud_Experiment_FR_REAL,001,32,
,,,,,,,,,,,,,,,,,,,,,,,,,,,,,,,,,,,,,,,1,,,,,,,,,,,,2019_Apr_10_1549,60.29682923439816,Cloud_Experiment_FR_REAL,001,32,
,,,,,,,,,,,,,,,,,,,,,,,,,,,,,,,,,,,,,,,,4,,,,,,,,,,,2019_Apr_10_1549,60.29682923439816,Cloud_Experiment_FR_REAL,001,32,
,,,,,,,,,,,,,,,,,,,,,,,,,,,,,,,,,,,,,,,,,7,,,,,,,,,,2019_Apr_10_1549,60.29682923439816,Cloud_Experiment_FR_REAL,001,32,
,,,,,,,,,,,,,,,,,,,,,,,,,,,,,,,,,,,,,,,,,,7,,,,,,,,,2019_Apr_10_1549,60.29682923439816,Cloud_Experiment_FR_REAL,001,32,
,,,,,,,,,,,,,,,,,,,,,,,,,,,,,,,,,,,,,,,,,,,2,,,,,,,,2019_Apr_10_1549,60.29682923439816,Cloud_Experiment_FR_REAL,001,32,
,,,,,,,,,,,,,,,,,,,,,,,,,,,,,,,,,,,,,,,,,,,,,,,,space,0.985093800002,,2019_Apr_10_1549,60.29682923439816,Cloud_Experiment_FR_REAL,001,32,
images/fcloud80-20_D0.8_7.tif,0.8,2,,,,,,,,,,,,,0,0,0,96,,,,,,,,,,,None,None,,None,61.849,,,,,,,,,,,,,,,,,,2019_Apr_10_1549,60.29682923439816,Cloud_Experiment_FR_REAL,001,32,
images/fcloud65-35_D0.8_9.tif,0.8,1,,,,,,,,,,,,,0,1,1,50,,,,,,,,,,,None,None,,None,70.874,,,,,,,,,,,,,,,,,,2019_Apr_10_1549,60.29682923439816,Cloud_Experiment_FR_REAL,001,32,
images/fcloud_D1.5_10.tif,1.5,0,,,,,,,,,,,,,0,2,2,31,,,,,,,,,,,1,space,2.87407870001,1,1.068,,,,,,,,,,,,,,,,,,2019_Apr_10_1549,60.29682923439816,Cloud_Experiment_FR_REAL,001,32,
images/fcloud65-35_D1.8_8.tif,1.8,1,,,,,,,,,,,,,0,3,3,89,,,,,,,,,,,1,space,5.3867247,4,0.818,,,,,,,,,,,,,,,,,,2019_Apr_10_1549,60.29682923439816,Cloud_Experiment_FR_REAL,001,32,
images/fcloud_D1_8.tif,1.0,0,,,,,,,,,,,,,0,4,4,9,,,,,,,,,,,None,None,,None,10.01,,,,,,,,,,,,,,,,,,2019_Apr_10_1549,60.29682923439816,Cloud_Experiment_FR_REAL,001,32,
images/fcloud_D1.5_9.tif,1.5,0,,,,,,,,,,,,,0,5,5,30,,,,,,,,,,,1,None,,2,0.919,,,,,,,,,,,,,,,,,,2019_Apr_10_1549,60.29682923439816,Cloud_Experiment_FR_REAL,001,32,
images/fcloud65-35_D1.9_8.tif,1.9,1,,,,,,,,,,,,,0,6,6,93,,,,,,,,,,,1,space,1.82980949999,3,1.318,,,,,,,,,,,,,,,,,,2019_Apr_10_1549,60.29682923439816,Cloud_Experiment_FR_REAL,001,32,
images/fcloud80-20_D1.1_8.tif,1.1,2,,,,,,,,,,,,,0,7,7,109,,,,,,,,,,,1,space,2.3269632,2,2.336,,,,,,,,,,,,,,,,,,2019_Apr_10_1549,60.29682923439816,Cloud_Experiment_FR_REAL,001,32,
images/fcloud80-20_D1.6_9.tif,1.6,2,,,,,,,,,,,,,0,8,8,130,,,,,,,,,,,None,None,,None,11.492,,,,,,,,,,,,,,,,,,2019_Apr_10_1549,60.29682923439816,Cloud_Experiment_FR_REAL,001,32,
images/fcloud_D1.9_9.tif,1.9,0,,,,,,,,,,,,,0,9,9,46,,,,,,,,,,,1,None,,1,0.834,,,,,,,,,,,,,,,,,,2019_Apr_10_1549,60.29682923439816,Cloud_Experiment_FR_REAL,001,32,
images/fcloud65-35_D1.1_9.tif,1.1,1,,,,,,,,,,,,,0,10,10,62,,,,,,,,,,,None,None,,None,9.41,,,,,,,,,,,,,,,,,,2019_Apr_10_1549,60.29682923439816,Cloud_Experiment_FR_REAL,001,32,
images/fcloud80-20_D1.1_10.tif,1.1,2,,,,,,,,,,,,,0,11,11,111,,,,,,,,,,,None,space,4.899118,None,17.936,,,,,,,,,,,,,,,,,,2019_Apr_10_1549,60.29682923439816,Cloud_Experiment_FR_REAL,001,32,
images/fcloud80-20_D1.7_10.tif,1.7,2,,,,,,,,,,,,,0,12,12,135,,,,,,,,,,,1,None,,1,0.835,,,,,,,,,,,,,,,,,,2019_Apr_10_1549,60.29682923439816,Cloud_Experiment_FR_REAL,001,32,
images/fcloud_D1.6_7.tif,1.6,0,,,,,,,,,,,,,0,13,13,32,,,,,,,,,,,None,None,,None,10.042,,,,,,,,,,,,,,,,,,2019_Apr_10_1549,60.29682923439816,Cloud_Experiment_FR_REAL,001,32,
images/fcloud80-20_D1.4_9.tif,1.4,2,,,,,,,,,,,,,0,14,14,122,,,,,,,,,,,None,None,,None,18.719,,,,,,,,,,,,,,,,,,2019_Apr_10_1549,60.29682923439816,Cloud_Experiment_FR_REAL,001,32,
images/fcloud80-20_D1.8_9.tif,1.8,2,,,,,,,,,,,,,0,15,15,138,,,,,,,,,,,None,None,,None,27.261,,,,,,,,,,,,,,,,,,2019_Apr_10_1549,60.29682923439816,Cloud_Experiment_FR_REAL,001,32,
images/fcloud_D1.9_8.tif,1.9,0,,,,,,,,,,,,,0,16,16,45,,,,,,,,,,,None,None,,None,36.152,,,,,,,,,,,,,,,,,,2019_Apr_10_1549,60.29682923439816,Cloud_Experiment_FR_REAL,001,32,
images/fcloud65-35_D0.9_8.tif,0.9,1,,,,,,,,,,,,,0,17,17,53,,,,,,,,,,,1,None,,1,0.869,,,,,,,,,,,,,,,,,,2019_Apr_10_1549,60.29682923439816,Cloud_Experiment_FR_REAL,001,32,
images/fcloud65-35_D1.1_8.tif,1.1,1,,,,,,,,,,,,,0,18,18,61,,,,,,,,,,,None,None,,None,9.179,,,,,,,,,,,,,,,,,,2019_Apr_10_1549,60.29682923439816,Cloud_Experiment_FR_REAL,001,32,
images/fcloud65-35_D1.3_10.tif,1.3,1,,,,,,,,,,,,,0,19,19,71,,,,,,,,,,,2,space,2.82564709999,3,1.435,,,,,,,,,,,,,,,,,,2019_Apr_10_1549,60.29682923439816,Cloud_Experiment_FR_REAL,001,32,
images/fcloud65-35_D1.6_10.tif,1.6,1,,,,,,,,,,,,,0,20,20,83,,,,,,,,,,,1,space,5.8082994,1,0.819,,,,,,,,,,,,,,,,,,2019_Apr_10_1549,60.29682923439816,Cloud_Experiment_FR_REAL,001,32,
images/fcloud65-35_D1.7_7.tif,1.7,1,,,,,,,,,,,,,0,21,21,84,,,,,,,,,,,1,space,4.31424399999,3,2.318,,,,,,,,,,,,,,,,,,2019_Apr_10_1549,60.29682923439816,Cloud_Experiment_FR_REAL,001,32,
images/fcloud_D0.9_9.tif,0.9,0,,,,,,,,,,,,,0,22,22,6,,,,,,,,,,,1,None,,1,0.418,,,,,,,,,,,,,,,,,,2019_Apr_10_1549,60.29682923439816,Cloud_Experiment_FR_REAL,001,32,
images/fcloud_D1.6_8.tif,1.6,0,,,,,,,,,,,,,0,23,23,33,,,,,,,,,,,1,space,5.06390529999,4,0.852,,,,,,,,,,,,,,,,,,2019_Apr_10_1549,60.29682923439816,Cloud_Experiment_FR_REAL,001,32,
images/fcloud65-35_D1.1_7.tif,1.1,1,,,,,,,,,,,,,0,24,24,60,,,,,,,,,,,None,None,,None,9.76,,,,,,,,,,,,,,,,,,2019_Apr_10_1549,60.29682923439816,Cloud_Experiment_FR_REAL,001,32,
images/fcloud65-35_D1.4_7.tif,1.4,1,,,,,,,,,,,,,0,25,25,72,,,,,,,,,,,None,None,,None,18.219,,,,,,,,,,,,,,,,,,2019_Apr_10_1549,60.29682923439816,Cloud_Experiment_FR_REAL,001,32,
images/fcloud80-20_D1.4_8.tif,1.4,2,,,,,,,,,,,,,0,26,26,121,,,,,,,,,,,None,None,,None,27.396,,,,,,,,,,,,,,,,,,2019_Apr_10_1549,60.29682923439816,Cloud_Experiment_FR_REAL,001,32,
images/fcloud_D0.8_10.tif,0.8,0,,,,,,,,,,,,,0,27,27,3,,,,,,,,,,,None,None,,None,36.521,,,,,,,,,,,,,,,,,,2019_Apr_10_1549,60.29682923439816,Cloud_Experiment_FR_REAL,001,32,
images/fcloud80-20_D1.6_7.tif,1.6,2,,,,,,,,,,,,,0,28,28,128,,,,,,,,,,,None,None,,None,45.496,,,,,,,,,,,,,,,,,,2019_Apr_10_1549,60.29682923439816,Cloud_Experiment_FR_REAL,001,32,
images/fcloud65-35_D1.5_9.tif,1.5,1,,,,,,,,,,,,,0,29,29,78,,,,,,,,,,,None,None,,None,53.922,,,,,,,,,,,,,,,,,,2019_Apr_10_1549,60.29682923439816,Cloud_Experiment_FR_REAL,001,32,
images/fcloud65-35_D0.9_10.tif,0.9,1,,,,,,,,,,,,,0,30,30,55,,,,,,,,,,,None,None,,None,62.631,,,,,,,,,,,,,,,,,,2019_Apr_10_1549,60.29682923439816,Cloud_Experiment_FR_REAL,001,32,
images/fcloud65-35_D0.9_9.tif,0.9,1,,,,,,,,,,,,,0,31,31,54,,,,,,,,,,,None,None,,None,71.024,,,,,,,,,,,,,,,,,,2019_Apr_10_1549,60.29682923439816,Cloud_Experiment_FR_REAL,001,32,
images/fcloud_D1.8_10.tif,1.8,0,,,,,,,,,,,,,0,32,32,43,,,,,,,,,,,None,None,,None,79.815,,,,,,,,,,,,,,,,,,2019_Apr_10_1549,60.29682923439816,Cloud_Experiment_FR_REAL,001,32,
images/fcloud65-35_D1_7.tif,1.0,1,,,,,,,,,,,,,0,33,33,56,,,,,,,,,,,None,None,,None,89.291,,,,,,,,,,,,,,,,,,2019_Apr_10_1549,60.29682923439816,Cloud_Experiment_FR_REAL,001,32,
images/fcloud80-20_D1.5_10.tif,1.5,2,,,,,,,,,,,,,0,34,34,127,,,,,,,,,,,2,space,7.42128949999,2,1.535,,,,,,,,,,,,,,,,,,2019_Apr_10_1549,60.29682923439816,Cloud_Experiment_FR_REAL,001,32,
images/fcloud_D1.3_7.tif,1.3,0,,,,,,,,,,,,,0,35,35,20,,,,,,,,,,,3,space,1.2593188,3,2.683,,,,,,,,,,,,,,,,,,2019_Apr_10_1549,60.29682923439816,Cloud_Experiment_FR_REAL,001,32,
images/fcloud_D1_7.tif,1.0,0,,,,,,,,,,,,,0,36,36,8,,,,,,,,,,,1,space,1.64543639999,5,1.036,,,,,,,,,,,,,,,,,,2019_Apr_10_1549,60.29682923439816,Cloud_Experiment_FR_REAL,001,32,
images/fcloud_D1.4_10.tif,1.4,0,,,,,,,,,,,,,0,37,37,27,,,,,,,,,,,2,space,4.6903057,4,0.952,,,,,,,,,,,,,,,,,,2019_Apr_10_1549,60.29682923439816,Cloud_Experiment_FR_REAL,001,32,
images/fcloud80-20_D1.3_8.tif,1.3,2,,,,,,,,,,,,,0,38,38,117,,,,,,,,,,,2,space,2.36467910001,2,0.951,,,,,,,,,,,,,,,,,,2019_Apr_10_1549,60.29682923439816,Cloud_Experiment_FR_REAL,001,32,
images/fcloud65-35_D1.7_9.tif,1.7,1,,,,,,,,,,,,,0,39,39,86,,,,,,,,,,,None,None,,None,10.21,,,,,,,,,,,,,,,,,,2019_Apr_10_1549,60.29682923439816,Cloud_Experiment_FR_REAL,001,32,
images/fcloud80-20_D1_10.tif,1.0,2,,,,,,,,,,,,,0,40,40,107,,,,,,,,,,,1,space,3.4291544,1,2.084,,,,,,,,,,,,,,,,,,2019_Apr_10_1549,60.29682923439816,Cloud_Experiment_FR_REAL,001,32,
images/fcloud65-35_D0.8_8.tif,0.8,1,,,,,,,,,,,,,0,41,41,49,,,,,,,,,,,None,None,,None,10.709,,,,,,,,,,,,,,,,,,2019_Apr_10_1549,60.29682923439816,Cloud_Experiment_FR_REAL,001,32,
images/fcloud80-20_D1.5_9.tif,1.5,2,,,,,,,,,,,,,0,42,42,126,,,,,,,,,,,1,None,,3,0.902,,,,,,,,,,,,,,,,,,2019_Apr_10_1549,60.29682923439816,Cloud_Experiment_FR_REAL,001,32,
images/fcloud80-20_D1.3_7.tif,1.3,2,,,,,,,,,,,,,0,43,43,116,,,,,,,,,,,1,space,4.60718800001,2,1.168,,,,,,,,,,,,,,,,,,2019_Apr_10_1549,60.29682923439816,Cloud_Experiment_FR_REAL,001,32,
images/fcloud80-20_D1_7.tif,1.0,2,,,,,,,,,,,,,0,44,44,104,,,,,,,,,,,None,None,,None,9.644,,,,,,,,,,,,,,,,,,2019_Apr_10_1549,60.29682923439816,Cloud_Experiment_FR_REAL,001,32,
images/fcloud_D0.9_10.tif,0.9,0,,,,,,,,,,,,,0,45,45,7,,,,,,,,,,,2,None,,2,1.285,,,,,,,,,,,,,,,,,,2019_Apr_10_1549,60.29682923439816,Cloud_Experiment_FR_REAL,001,32,
images/fcloud65-35_D1.5_10.tif,1.5,1,,,,,,,,,,,,,0,46,46,79,,,,,,,,,,,2,space,2.016242,4,0.819,,,,,,,,,,,,,,,,,,2019_Apr_10_1549,60.29682923439816,Cloud_Experiment_FR_REAL,001,32,
images/fcloud80-20_D1.2_10.tif,1.2,2,,,,,,,,,,,,,0,47,47,115,,,,,,,,,,,None,None,,None,9.277,,,,,,,,,,,,,,,,,,2019_Apr_10_1549,60.29682923439816,Cloud_Experiment_FR_REAL,001,32,
images/fcloud65-35_D0.8_7.tif,0.8,1,,,,,,,,,,,,,0,48,48,48,,,,,,,,,,,None,None,,None,18.37,,,,,,,,,,,,,,,,,,2019_Apr_10_1549,60.29682923439816,Cloud_Experiment_FR_REAL,001,32,
images/fcloud65-35_D1.5_7.tif,1.5,1,,,,,,,,,,,,,0,49,49,76,,,,,,,,,,,None,None,,None,27.911,,,,,,,,,,,,,,,,,,2019_Apr_10_1549,60.29682923439816,Cloud_Experiment_FR_REAL,001,32,
images/fcloud80-20_D1.8_10.tif,1.8,2,,,,,,,,,,,,,0,50,50,139,,,,,,,,,,,None,None,,None,37.02,,,,,,,,,,,,,,,,,,2019_Apr_10_1549,60.29682923439816,Cloud_Experiment_FR_REAL,001,32,
images/fcloud_D0.9_8.tif,0.9,0,,,,,,,,,,,,,0,51,51,5,,,,,,,,,,,2,None,,4,0.951,,,,,,,,,,,,,,,,,,2019_Apr_10_1549,60.29682923439816,Cloud_Experiment_FR_REAL,001,32,
images/fcloud80-20_D1.6_8.tif,1.6,2,,,,,,,,,,,,,0,52,52,129,,,,,,,,,,,None,None,,None,9.462,,,,,,,,,,,,,,,,,,2019_Apr_10_1549,60.29682923439816,Cloud_Experiment_FR_REAL,001,32,
images/fcloud65-35_D1.4_9.tif,1.4,1,,,,,,,,,,,,,0,53,53,74,,,,,,,,,,,None,None,,None,18.204,,,,,,,,,,,,,,,,,,2019_Apr_10_1549,60.29682923439816,Cloud_Experiment_FR_REAL,001,32,
images/fcloud80-20_D1.7_9.tif,1.7,2,,,,,,,,,,,,,0,54,54,134,,,,,,,,,,,None,None,,None,26.61,,,,,,,,,,,,,,,,,,2019_Apr_10_1549,60.29682923439816,Cloud_Experiment_FR_REAL,001,32,
images/fcloud80-20_D1_8.tif,1.0,2,,,,,,,,,,,,,0,55,55,105,,,,,,,,,,,None,None,,None,35.288,,,,,,,,,,,,,,,,,,2019_Apr_10_1549,60.29682923439816,Cloud_Experiment_FR_REAL,001,32,
images/fcloud_D1.9_7.tif,1.9,0,,,,,,,,,,,,,0,56,56,44,,,,,,,,,,,1,None,,2,0.968,,,,,,,,,,,,,,,,,,2019_Apr_10_1549,60.29682923439816,Cloud_Experiment_FR_REAL,001,32,
images/fcloud80-20_D1.2_8.tif,1.2,2,,,,,,,,,,,,,0,57,57,113,,,,,,,,,,,None,None,,None,9.361,,,,,,,,,,,,,,,,,,2019_Apr_10_1549,60.29682923439816,Cloud_Experiment_FR_REAL,001,32,
images/fcloud_D1_10.tif,1.0,0,,,,,,,,,,,,,0,58,58,11,,,,,,,,,,,None,None,,None,17.487,,,,,,,,,,,,,,,,,,2019_Apr_10_1549,60.29682923439816,Cloud_Experiment_FR_REAL,001,32,
images/fcloud_D0.8_7.tif,0.8,0,,,,,,,,,,,,,0,59,59,0,,,,,,,,,,,2,None,,5,0.952,,,,,,,,,,,,,,,,,,2019_Apr_10_1549,60.29682923439816,Cloud_Experiment_FR_REAL,001,32,
images/fcloud80-20_D1_9.tif,1.0,2,,,,,,,,,,,,,0,60,60,106,,,,,,,,,,,None,None,,None,9.395,,,,,,,,,,,,,,,,,,2019_Apr_10_1549,60.29682923439816,Cloud_Experiment_FR_REAL,001,32,
images/fcloud_D1.1_10.tif,1.1,0,,,,,,,,,,,,,0,61,61,15,,,,,,,,,,,None,None,,None,17.753,,,,,,,,,,,,,,,,,,2019_Apr_10_1549,60.29682923439816,Cloud_Experiment_FR_REAL,001,32,
images/fcloud65-35_D1.8_9.tif,1.8,1,,,,,,,,,,,,,0,62,62,90,,,,,,,,,,,None,None,,None,26.213,,,,,,,,,,,,,,,,,,2019_Apr_10_1549,60.29682923439816,Cloud_Experiment_FR_REAL,001,32,
images/fcloud_D1.3_8.tif,1.3,0,,,,,,,,,,,,,0,63,63,21,,,,,,,,,,,None,None,,None,35.537,,,,,,,,,,,,,,,,,,2019_Apr_10_1549,60.29682923439816,Cloud_Experiment_FR_REAL,001,32,
images/fcloud65-35_D1.3_7.tif,1.3,1,,,,,,,,,,,,,0,64,64,68,,,,,,,,,,,None,None,,None,44.13,,,,,,,,,,,,,,,,,,2019_Apr_10_1549,60.29682923439816,Cloud_Experiment_FR_REAL,001,32,
images/fcloud80-20_D1.9_8.tif,1.9,2,,,,,,,,,,,,,0,65,65,141,,,,,,,,,,,None,None,,None,52.556,,,,,,,,,,,,,,,,,,2019_Apr_10_1549,60.29682923439816,Cloud_Experiment_FR_REAL,001,32,
images/fcloud65-35_D1.3_9.tif,1.3,1,,,,,,,,,,,,,0,66,66,70,,,,,,,,,,,None,None,,None,61.264,,,,,,,,,,,,,,,,,,2019_Apr_10_1549,60.29682923439816,Cloud_Experiment_FR_REAL,001,32,
images/fcloud_D1.4_9.tif,1.4,0,,,,,,,,,,,,,0,67,67,26,,,,,,,,,,,1,space,5.84444419999,2,2.601,,,,,,,,,,,,,,,,,,2019_Apr_10_1549,60.29682923439816,Cloud_Experiment_FR_REAL,001,32,
images/fcloud65-35_D1.8_10.tif,1.8,1,,,,,,,,,,,,,0,68,68,91,,,,,,,,,,,None,None,,None,11.142,,,,,,,,,,,,,,,,,,2019_Apr_10_1549,60.29682923439816,Cloud_Experiment_FR_REAL,001,32,
images/fcloud65-35_D1.6_8.tif,1.6,1,,,,,,,,,,,,,0,69,69,81,,,,,,,,,,,None,None,,None,19.834,,,,,,,,,,,,,,,,,,2019_Apr_10_1549,60.29682923439816,Cloud_Experiment_FR_REAL,001,32,
images/fcloud_D1.2_7.tif,1.2,0,,,,,,,,,,,,,0,70,70,16,,,,,,,,,,,None,None,,None,28.344,,,,,,,,,,,,,,,,,,2019_Apr_10_1549,60.29682923439816,Cloud_Experiment_FR_REAL,001,32,
images/fcloud_D1.2_10.tif,1.2,0,,,,,,,,,,,,,0,71,71,19,,,,,,,,,,,None,None,,None,37.336,,,,,,,,,,,,,,,,,,2019_Apr_10_1549,60.29682923439816,Cloud_Experiment_FR_REAL,001,32,
images/fcloud80-20_D1.4_10.tif,1.4,2,,,,,,,,,,,,,0,72,72,123,,,,,,,,,,,2,space,2.0780987,4,1.236,,,,,,,,,,,,,,,,,,2019_Apr_10_1549,60.29682923439816,Cloud_Experiment_FR_REAL,001,32,
images/fcloud65-35_D1.7_10.tif,1.7,1,,,,,,,,,,,,,0,73,73,87,,,,,,,,,,,None,None,,None,9.928,,,,,,,,,,,,,,,,,,2019_Apr_10_1549,60.29682923439816,Cloud_Experiment_FR_REAL,001,32,
images/fcloud80-20_D1.3_10.tif,1.3,2,,,,,,,,,,,,,0,74,74,119,,,,,,,,,,,None,None,,None,18.418,,,,,,,,,,,,,,,,,,2019_Apr_10_1549,60.29682923439816,Cloud_Experiment_FR_REAL,001,32,
images/fcloud80-20_D1.4_7.tif,1.4,2,,,,,,,,,,,,,0,75,75,120,,,,,,,,,,,None,None,,None,26.779,,,,,,,,,,,,,,,,,,2019_Apr_10_1549,60.29682923439816,Cloud_Experiment_FR_REAL,001,32,
images/fcloud65-35_D1.4_8.tif,1.4,1,,,,,,,,,,,,,0,76,76,73,,,,,,,,,,,None,None,,None,35.205,,,,,,,,,,,,,,,,,,2019_Apr_10_1549,60.29682923439816,Cloud_Experiment_FR_REAL,001,32,
images/fcloud80-20_D1.2_9.tif,1.2,2,,,,,,,,,,,,,0,77,77,114,,,,,,,,,,,None,None,,None,43.58,,,,,,,,,,,,,,,,,,2019_Apr_10_1549,60.29682923439816,Cloud_Experiment_FR_REAL,001,32,
images/fcloud65-35_D1.6_9.tif,1.6,1,,,,,,,,,,,,,0,78,78,82,,,,,,,,,,,3,space,4.7993595,2,1.201,,,,,,,,,,,,,,,,,,2019_Apr_10_1549,60.29682923439816,Cloud_Experiment_FR_REAL,001,32,
images/fcloud80-20_D1.8_8.tif,1.8,2,,,,,,,,,,,,,0,79,79,137,,,,,,,,,,,None,None,,None,10.375,,,,,,,,,,,,,,,,,,2019_Apr_10_1549,60.29682923439816,Cloud_Experiment_FR_REAL,001,32,
images/fcloud80-20_D0.8_10.tif,0.8,2,,,,,,,,,,,,,0,80,80,99,,,,,,,,,,,None,None,,None,20.4,,,,,,,,,,,,,,,,,,2019_Apr_10_1549,60.29682923439816,Cloud_Experiment_FR_REAL,001,32,
images/fcloud80-20_D1.5_8.tif,1.5,2,,,,,,,,,,,,,0,81,81,125,,,,,,,,,,,None,None,,None,28.861,,,,,,,,,,,,,,,,,,2019_Apr_10_1549,60.29682923439816,Cloud_Experiment_FR_REAL,001,32,
images/fcloud_D1.5_8.tif,1.5,0,,,,,,,,,,,,,0,82,82,29,,,,,,,,,,,3,space,7.61792020001,4,1.069,,,,,,,,,,,,,,,,,,2019_Apr_10_1549,60.29682923439816,Cloud_Experiment_FR_REAL,001,32,
images/fcloud_D1.7_7.tif,1.7,0,,,,,,,,,,,,,0,83,83,36,,,,,,,,,,,None,None,,None,9.645,,,,,,,,,,,,,,,,,,2019_Apr_10_1549,60.29682923439816,Cloud_Experiment_FR_REAL,001,32,
images/fcloud65-35_D1_9.tif,1.0,1,,,,,,,,,,,,,0,84,84,58,,,,,,,,,,,None,None,,None,18.037,,,,,,,,,,,,,,,,,,2019_Apr_10_1549,60.29682923439816,Cloud_Experiment_FR_REAL,001,32,
images/fcloud80-20_D1.2_7.tif,1.2,2,,,,,,,,,,,,,0,85,85,112,,,,,,,,,,,None,None,,None,26.41,,,,,,,,,,,,,,,,,,2019_Apr_10_1549,60.29682923439816,Cloud_Experiment_FR_REAL,001,32,
images/fcloud_D1.6_10.tif,1.6,0,,,,,,,,,,,,,0,86,86,35,,,,,,,,,,,None,None,,None,34.82,,,,,,,,,,,,,,,,,,2019_Apr_10_1549,60.29682923439816,Cloud_Experiment_FR_REAL,001,32,
images/fcloud80-20_D1.3_9.tif,1.3,2,,,,,,,,,,,,,0,87,87,118,,,,,,,,,,,None,None,,None,43.23,,,,,,,,,,,,,,,,,,2019_Apr_10_1549,60.29682923439816,Cloud_Experiment_FR_REAL,001,32,
images/fcloud_D1.1_9.tif,1.1,0,,,,,,,,,,,,,0,88,88,14,,,,,,,,,,,3,space,3.48119779999,5,1.152,,,,,,,,,,,,,,,,,,2019_Apr_10_1549,60.29682923439816,Cloud_Experiment_FR_REAL,001,32,
images/fcloud_D1.2_8.tif,1.2,0,,,,,,,,,,,,,0,89,89,17,,,,,,,,,,,None,None,,None,10.361,,,,,,,,,,,,,,,,,,2019_Apr_10_1549,60.29682923439816,Cloud_Experiment_FR_REAL,001,32,
images/fcloud65-35_D1.1_10.tif,1.1,1,,,,,,,,,,,,,0,90,90,63,,,,,,,,,,,None,None,,None,18.937,,,,,,,,,,,,,,,,,,2019_Apr_10_1549,60.29682923439816,Cloud_Experiment_FR_REAL,001,32,
images/fcloud_D1.2_9.tif,1.2,0,,,,,,,,,,,,,0,91,91,18,,,,,,,,,,,1,space,6.36886240001,4,1.716,,,,,,,,,,,,,,,,,,2019_Apr_10_1549,60.29682923439816,Cloud_Experiment_FR_REAL,001,32,
images/fcloud_D1.3_10.tif,1.3,0,,,,,,,,,,,,,0,92,92,23,,,,,,,,,,,None,None,,None,10.791,,,,,,,,,,,,,,,,,,2019_Apr_10_1549,60.29682923439816,Cloud_Experiment_FR_REAL,001,32,
images/fcloud_D1.7_10.tif,1.7,0,,,,,,,,,,,,,0,93,93,39,,,,,,,,,,,None,None,,None,21.217,,,,,,,,,,,,,,,,,,2019_Apr_10_1549,60.29682923439816,Cloud_Experiment_FR_REAL,001,32,
images/fcloud65-35_D1_10.tif,1.0,1,,,,,,,,,,,,,0,94,94,59,,,,,,,,,,,None,None,,None,30.509,,,,,,,,,,,,,,,,,,2019_Apr_10_1549,60.29682923439816,Cloud_Experiment_FR_REAL,001,32,
images/fcloud_D1.3_9.tif,1.3,0,,,,,,,,,,,,,0,95,95,22,,,,,,,,,,,3,None,,4,1.001,,,,,,,,,,,,,,,,,,2019_Apr_10_1549,60.29682923439816,Cloud_Experiment_FR_REAL,001,32,
images/fcloud65-35_D1.9_9.tif,1.9,1,,,,,,,,,,,,,0,96,96,94,,,,,,,,,,,None,None,,None,9.578,,,,,,,,,,,,,,,,,,2019_Apr_10_1549,60.29682923439816,Cloud_Experiment_FR_REAL,001,32,
images/fcloud_D1.6_9.tif,1.6,0,,,,,,,,,,,,,0,97,97,34,,,,,,,,,,,None,None,,None,18.086,,,,,,,,,,,,,,,,,,2019_Apr_10_1549,60.29682923439816,Cloud_Experiment_FR_REAL,001,32,
images/fcloud_D1.8_8.tif,1.8,0,,,,,,,,,,,,,0,98,98,41,,,,,,,,,,,None,None,,None,26.561,,,,,,,,,,,,,,,,,,2019_Apr_10_1549,60.29682923439816,Cloud_Experiment_FR_REAL,001,32,
images/fcloud_D1_9.tif,1.0,0,,,,,,,,,,,,,0,99,99,10,,,,,,,,,,,3,None,,5,0.919,,,,,,,,,,,,,,,,,,2019_Apr_10_1549,60.29682923439816,Cloud_Experiment_FR_REAL,001,32,
images/fcloud80-20_D1.1_9.tif,1.1,2,,,,,,,,,,,,,0,100,100,110,,,,,,,,,,,None,None,,None,9.463,,,,,,,,,,,,,,,,,,2019_Apr_10_1549,60.29682923439816,Cloud_Experiment_FR_REAL,001,32,
images/fcloud80-20_D0.8_8.tif,0.8,2,,,,,,,,,,,,,0,101,101,97,,,,,,,,,,,None,None,,None,17.785,,,,,,,,,,,,,,,,,,2019_Apr_10_1549,60.29682923439816,Cloud_Experiment_FR_REAL,001,32,
images/fcloud80-20_D0.9_10.tif,0.9,2,,,,,,,,,,,,,0,102,102,103,,,,,,,,,,,None,None,,None,26.212,,,,,,,,,,,,,,,,,,2019_Apr_10_1549,60.29682923439816,Cloud_Experiment_FR_REAL,001,32,
images/fcloud_D1.8_7.tif,1.8,0,,,,,,,,,,,,,0,103,103,40,,,,,,,,,,,1,space,4.9767672,1,0.436,,,,,,,,,,,,,,,,,,2019_Apr_10_1549,60.29682923439816,Cloud_Experiment_FR_REAL,001,32,
images/fcloud80-20_D0.9_8.tif,0.9,2,,,,,,,,,,,,,0,104,104,101,,,,,,,,,,,None,None,,None,10.225,,,,,,,,,,,,,,,,,,2019_Apr_10_1549,60.29682923439816,Cloud_Experiment_FR_REAL,001,32,
images/fcloud65-35_D1.6_7.tif,1.6,1,,,,,,,,,,,,,0,105,105,80,,,,,,,,,,,1,None,,1,0.435,,,,,,,,,,,,,,,,,,2019_Apr_10_1549,60.29682923439816,Cloud_Experiment_FR_REAL,001,32,
images/fcloud80-20_D1.9_7.tif,1.9,2,,,,,,,,,,,,,0,106,106,140,,,,,,,,,,,None,None,,None,10.476,,,,,,,,,,,,,,,,,,2019_Apr_10_1549,60.29682923439816,Cloud_Experiment_FR_REAL,001,32,
images/fcloud80-20_D0.8_9.tif,0.8,2,,,,,,,,,,,,,0,107,107,98,,,,,,,,,,,None,None,,None,19.034,,,,,,,,,,,,,,,,,,2019_Apr_10_1549,60.29682923439816,Cloud_Experiment_FR_REAL,001,32,
images/fcloud_D1.1_7.tif,1.1,0,,,,,,,,,,,,,0,108,108,12,,,,,,,,,,,None,None,,None,28.244,,,,,,,,,,,,,,,,,,2019_Apr_10_1549,60.29682923439816,Cloud_Experiment_FR_REAL,001,32,
images/fcloud65-35_D1.2_10.tif,1.2,1,,,,,,,,,,,,,0,109,109,67,,,,,,,,,,,2,space,3.587547,3,0.652,,,,,,,,,,,,,,,,,,2019_Apr_10_1549,60.29682923439816,Cloud_Experiment_FR_REAL,001,32,
images/fcloud80-20_D1.7_7.tif,1.7,2,,,,,,,,,,,,,0,110,110,132,,,,,,,,,,,1,space,5.5893985,1,1.883,,,,,,,,,,,,,,,,,,2019_Apr_10_1549,60.29682923439816,Cloud_Experiment_FR_REAL,001,32,
images/fcloud_D1.9_10.tif,1.9,0,,,,,,,,,,,,,0,111,111,47,,,,,,,,,,,None,None,,None,10.459,,,,,,,,,,,,,,,,,,2019_Apr_10_1549,60.29682923439816,Cloud_Experiment_FR_REAL,001,32,
images/fcloud_D1.7_8.tif,1.7,0,,,,,,,,,,,,,0,112,112,37,,,,,,,,,,,None,None,,None,19.068,,,,,,,,,,,,,,,,,,2019_Apr_10_1549,60.29682923439816,Cloud_Experiment_FR_REAL,001,32,
images/fcloud80-20_D1.6_10.tif,1.6,2,,,,,,,,,,,,,0,113,113,131,,,,,,,,,,,None,None,,None,27.477,,,,,,,,,,,,,,,,,,2019_Apr_10_1549,60.29682923439816,Cloud_Experiment_FR_REAL,001,32,
images/fcloud65-35_D1.5_8.tif,1.5,1,,,,,,,,,,,,,0,114,114,77,,,,,,,,,,,None,None,,None,36.721,,,,,,,,,,,,,,,,,,2019_Apr_10_1549,60.29682923439816,Cloud_Experiment_FR_REAL,001,32,
images/fcloud_D1.5_7.tif,1.5,0,,,,,,,,,,,,,0,115,115,28,,,,,,,,,,,1,space,6.9714736,3,0.586,,,,,,,,,,,,,,,,,,2019_Apr_10_1549,60.29682923439816,Cloud_Experiment_FR_REAL,001,32,
images/fcloud65-35_D1.9_10.tif,1.9,1,,,,,,,,,,,,,0,116,116,95,,,,,,,,,,,1,None,,1,2.333,,,,,,,,,,,,,,,,,,2019_Apr_10_1549,60.29682923439816,Cloud_Experiment_FR_REAL,001,32,
images/fcloud65-35_D1.3_8.tif,1.3,1,,,,,,,,,,,,,0,117,117,69,,,,,,,,,,,1,space,5.73728530001,1,1.535,,,,,,,,,,,,,,,,,,2019_Apr_10_1549,60.29682923439816,Cloud_Experiment_FR_REAL,001,32,
images/fcloud80-20_D0.9_7.tif,0.9,2,,,,,,,,,,,,,0,118,118,100,,,,,,,,,,,None,None,,None,10.876,,,,,,,,,,,,,,,,,,2019_Apr_10_1549,60.29682923439816,Cloud_Experiment_FR_REAL,001,32,
images/fcloud65-35_D1_8.tif,1.0,1,,,,,,,,,,,,,0,119,119,57,,,,,,,,,,,None,None,,None,19.316,,,,,,,,,,,,,,,,,,2019_Apr_10_1549,60.29682923439816,Cloud_Experiment_FR_REAL,001,32,
images/fcloud65-35_D1.9_7.tif,1.9,1,,,,,,,,,,,,,0,120,120,92,,,,,,,,,,,None,None,,None,27.842,,,,,,,,,,,,,,,,,,2019_Apr_10_1549,60.29682923439816,Cloud_Experiment_FR_REAL,001,32,
images/fcloud65-35_D1.4_10.tif,1.4,1,,,,,,,,,,,,,0,121,121,75,,,,,,,,,,,1,None,,1,0.852,,,,,,,,,,,,,,,,,,2019_Apr_10_1549,60.29682923439816,Cloud_Experiment_FR_REAL,001,32,
images/fcloud_D1.8_9.tif,1.8,0,,,,,,,,,,,,,0,122,122,42,,,,,,,,,,,None,None,,None,9.544,,,,,,,,,,,,,,,,,,2019_Apr_10_1549,60.29682923439816,Cloud_Experiment_FR_REAL,001,32,
images/fcloud_D0.8_9.tif,0.8,0,,,,,,,,,,,,,0,123,123,2,,,,,,,,,,,1,space,6.011232,5,0.486,,,,,,,,,,,,,,,,,,2019_Apr_10_1549,60.29682923439816,Cloud_Experiment_FR_REAL,001,32,
images/fcloud_D1.4_7.tif,1.4,0,,,,,,,,,,,,,0,124,124,24,,,,,,,,,,,1,space,5.28380490001,5,0.917,,,,,,,,,,,,,,,,,,2019_Apr_10_1549,60.29682923439816,Cloud_Experiment_FR_REAL,001,32,
images/fcloud65-35_D0.8_10.tif,0.8,1,,,,,,,,,,,,,0,125,125,51,,,,,,,,,,,None,None,,None,9.427,,,,,,,,,,,,,,,,,,2019_Apr_10_1549,60.29682923439816,Cloud_Experiment_FR_REAL,001,32,
images/fcloud65-35_D1.2_9.tif,1.2,1,,,,,,,,,,,,,0,126,126,66,,,,,,,,,,,None,None,,None,17.969,,,,,,,,,,,,,,,,,,2019_Apr_10_1549,60.29682923439816,Cloud_Experiment_FR_REAL,001,32,
images/fcloud_D0.9_7.tif,0.9,0,,,,,,,,,,,,,0,127,127,4,,,,,,,,,,,2,space,1.6331721,1,2.151,,,,,,,,,,,,,,,,,,2019_Apr_10_1549,60.29682923439816,Cloud_Experiment_FR_REAL,001,32,
images/fcloud80-20_D1.5_7.tif,1.5,2,,,,,,,,,,,,,0,128,128,124,,,,,,,,,,,None,None,,None,11.26,,,,,,,,,,,,,,,,,,2019_Apr_10_1549,60.29682923439816,Cloud_Experiment_FR_REAL,001,32,
images/fcloud80-20_D1.8_7.tif,1.8,2,,,,,,,,,,,,,0,129,129,136,,,,,,,,,,,None,None,,None,20.286,,,,,,,,,,,,,,,,,,2019_Apr_10_1549,60.29682923439816,Cloud_Experiment_FR_REAL,001,32,
images/fcloud_D0.8_8.tif,0.8,0,,,,,,,,,,,,,0,130,130,1,,,,,,,,,,,None,None,,None,28.744,,,,,,,,,,,,,,,,,,2019_Apr_10_1549,60.29682923439816,Cloud_Experiment_FR_REAL,001,32,
images/fcloud_D1.1_8.tif,1.1,0,,,,,,,,,,,,,0,131,131,13,,,,,,,,,,,None,None,,None,37.253,,,,,,,,,,,,,,,,,,2019_Apr_10_1549,60.29682923439816,Cloud_Experiment_FR_REAL,001,32,
images/fcloud80-20_D1.9_9.tif,1.9,2,,,,,,,,,,,,,0,132,132,142,,,,,,,,,,,None,None,,None,45.762,,,,,,,,,,,,,,,,,,2019_Apr_10_1549,60.29682923439816,Cloud_Experiment_FR_REAL,001,32,
images/fcloud80-20_D0.9_9.tif,0.9,2,,,,,,,,,,,,,0,133,133,102,,,,,,,,,,,None,None,,None,54.253,,,,,,,,,,,,,,,,,,2019_Apr_10_1549,60.29682923439816,Cloud_Experiment_FR_REAL,001,32,
images/fcloud65-35_D1.2_7.tif,1.2,1,,,,,,,,,,,,,0,134,134,64,,,,,,,,,,,None,None,,None,62.748,,,,,,,,,,,,,,,,,,2019_Apr_10_1549,60.29682923439816,Cloud_Experiment_FR_REAL,001,32,
images/fcloud_D1.7_9.tif,1.7,0,,,,,,,,,,,,,0,135,135,38,,,,,,,,,,,None,None,,None,72.023,,,,,,,,,,,,,,,,,,2019_Apr_10_1549,60.29682923439816,Cloud_Experiment_FR_REAL,001,32,
images/fcloud80-20_D1.9_10.tif,1.9,2,,,,,,,,,,,,,0,136,136,143,,,,,,,,,,,None,None,,None,81.03,,,,,,,,,,,,,,,,,,2019_Apr_10_1549,60.29682923439816,Cloud_Experiment_FR_REAL,001,32,
images/fcloud65-35_D1.7_8.tif,1.7,1,,,,,,,,,,,,,0,137,137,85,,,,,,,,,,,None,space,2.2925982,None,90.191,,,,,,,,,,,,,,,,,,2019_Apr_10_1549,60.29682923439816,Cloud_Experiment_FR_REAL,001,32,
images/fcloud80-20_D1.1_7.tif,1.1,2,,,,,,,,,,,,,0,138,138,108,,,,,,,,,,,None,None,,None,None,,,,,,,,,,,,,,,,,,2019_Apr_10_1549,60.29682923439816,Cloud_Experiment_FR_REAL,001,32,
images/fcloud65-35_D1.8_7.tif,1.8,1,,,,,,,,,,,,,0,139,139,88,,,,,,,,,,,None,None,,None,9.094,,,,,,,,,,,,,,,,,,2019_Apr_10_1549,60.29682923439816,Cloud_Experiment_FR_REAL,001,32,
images/fcloud80-20_D1.7_8.tif,1.7,2,,,,,,,,,,,,,0,140,140,133,,,,,,,,,,,None,None,,None,17.652,,,,,,,,,,,,,,,,,,2019_Apr_10_1549,60.29682923439816,Cloud_Experiment_FR_REAL,001,32,
images/fcloud65-35_D1.2_8.tif,1.2,1,,,,,,,,,,,,,0,141,141,65,,,,,,,,,,,None,None,,None,26.029,,,,,,,,,,,,,,,,,,2019_Apr_10_1549,60.29682923439816,Cloud_Experiment_FR_REAL,001,32,
images/fcloud_D1.4_8.tif,1.4,0,,,,,,,,,,,,,0,142,142,25,,,,,,,,,,,None,None,,None,36.869,,,,,,,,,,,,,,,,,,2019_Apr_10_1549,60.29682923439816,Cloud_Experiment_FR_REAL,001,32,
images/fcloud65-35_D0.9_7.tif,0.9,1,,,,,,,,,,,,,0,143,143,52,,,,,,,,,,,None,None,,None,47.927,,,,,,,,,,,,,,,,,,2019_Apr_10_1549,60.29682923439816,Cloud_Experiment_FR_REAL,001,32,
,,,,,,,,,,,,,,,,,,,,,,,,,2,12.796,,,,,,,,,,,,,,,,,,,,,,,,,2019_Apr_10_1549,60.29682923439816,Cloud_Experiment_FR_REAL,001,32,
,,,,,,,,,,,,,,,,,,,,,,,,,,,,,,,,,,1,,,,,,,,,,,,,,,,,2019_Apr_10_1549,60.29682923439816,Cloud_Experiment_FR_REAL,001,32,
,,,,,,,,,,,,,,,,,,,,,,,,,,,,,,,,,,,1,,,,,,,,,,,,,,,,2019_Apr_10_1549,60.29682923439816,Cloud_Experiment_FR_REAL,001,32,
,,,,,,,,,,,,,,,,,,,,,,,,,,,,,,,,,,,,1,,,,,,,,,,,,,,,2019_Apr_10_1549,60.29682923439816,Cloud_Experiment_FR_REAL,001,32,
,,,,,,,,,,,,,,,,,,,,,,,,,,,,,,,,,,,,,1,,,,,,,,,,,,,,2019_Apr_10_1549,60.29682923439816,Cloud_Experiment_FR_REAL,001,32,
,,,,,,,,,,,,,,,,,,,,,,,,,,,,,,,,,,,,,,3,,,,,,,,,,,,,2019_Apr_10_1549,60.29682923439816,Cloud_Experiment_FR_REAL,001,32,
,,,,,,,,,,,,,,,,,,,,,,,,,,,,,,,,,,,,,,,1,,,,,,,,,,,,2019_Apr_10_1549,60.29682923439816,Cloud_Experiment_FR_REAL,001,32,
,,,,,,,,,,,,,,,,,,,,,,,,,,,,,,,,,,,,,,,,3,,,,,,,,,,,2019_Apr_10_1549,60.29682923439816,Cloud_Experiment_FR_REAL,001,32,
,,,,,,,,,,,,,,,,,,,,,,,,,,,,,,,,,,,,,,,,,7,,,,,,,,,,2019_Apr_10_1549,60.29682923439816,Cloud_Experiment_FR_REAL,001,32,
,,,,,,,,,,,,,,,,,,,,,,,,,,,,,,,,,,,,,,,,,,4,,,,,,,,,2019_Apr_10_1549,60.29682923439816,Cloud_Experiment_FR_REAL,001,32,
,,,,,,,,,,,,,,,,,,,,,,,,,,,,,,,,,,,,,,,,,,,1,,,,,,,,2019_Apr_10_1549,60.29682923439816,Cloud_Experiment_FR_REAL,001,32,
,,,,,,,,,,,,,,,,,,,,,,,,,,,,,,,,,,,,,,,,,,,,,,,,,,5,2019_Apr_10_1549,60.29682923439816,Cloud_Experiment_FR_REAL,001,32,
