ImageFile,FD,Contrast,trials_4.thisRepN,trials_4.thisTrialN,trials_4.thisN,trials_4.thisIndex,trials.thisRepN,trials.thisTrialN,trials.thisN,trials.thisIndex,trials_2.thisRepN,trials_2.thisTrialN,trials_2.thisN,trials_2.thisIndex,trials_3.thisRepN,trials_3.thisTrialN,trials_3.thisN,trials_3.thisIndex,end_instructions.keys,end_instructions.rt,key_resp_4.keys,key_resp_4.rt,key_resp_6.keys,key_resp_6.rt,Fatigue.response,Fatigue.rt,key_resp_5.keys,key_resp_5.rt,n_objets.response,reaction_time.keys,vividness.response,vividness.rt,reaction_time.rt,Flow01.response,Flow02.response,Flow03.response,Flow04.response,Flow05.response,Flow06.response,Flow07.response,Flow08.response,Flow09.response,Flow10.response,key_resp_2.keys,key_resp_2.rt,key_resp_8.keys,key_resp_8.rt,key_resp_3.keys,key_resp_3.rt,Redondance_question.response,date,frameRate,expName,session,participant,
,,,,,,,,,,,,,,,,,,,space,29.4784811,,,,,,,,,,,,,,,,,,,,,,,,,,,,,,,2019_Apr_11_1313,60.06139476024146,Cloud_Experiment_FR_REAL,001,33,
,,,,,,,,,,,,,,,,,,,,,space,45.8774781,,,,,,,,,,,,,,,,,,,,,,,,,,,,,2019_Apr_11_1313,60.06139476024146,Cloud_Experiment_FR_REAL,001,33,
,,,,,,,,,,,,,,,,,,,,,,,space,167.5848793,,,,,,,,,,,,,,,,,,,,,,,,,,,2019_Apr_11_1313,60.06139476024146,Cloud_Experiment_FR_REAL,001,33,
,,,,,,,,,,,,,,,,,,,,,,,,,8,18.203,,,,,,,,,,,,,,,,,,,,,,,,,2019_Apr_11_1313,60.06139476024146,Cloud_Experiment_FR_REAL,001,33,
,,,,,,,,,,,,,,,,,,,,,,,,,,,space,5.4824869,,,,,,,,,,,,,,,,,,,,,,,2019_Apr_11_1313,60.06139476024146,Cloud_Experiment_FR_REAL,001,33,
pratique/fcloud65-35_D1.6_30,1.6,1,0,0,0,2,,,,,,,,,,,,,,,,,,,,,,,None,None,None,280.445,,,,,,,,,,,,,,,,,,,2019_Apr_11_1313,60.06139476024146,Cloud_Experiment_FR_REAL,001,33,
pratique/fcloud_D1.6_28,1.6,0,0,1,1,5,,,,,,,,,,,,,,,,,,,,,,,1,space,1,3.098,4.59682410001,,,,,,,,,,,,,,,,,,2019_Apr_11_1313,60.06139476024146,Cloud_Experiment_FR_REAL,001,33,
pratique/fcloud65-35_D1.9_29,1.9,1,0,2,2,7,,,,,,,,,,,,,,,,,,,,,,,None,None,None,13.723,,,,,,,,,,,,,,,,,,,2019_Apr_11_1313,60.06139476024146,Cloud_Experiment_FR_REAL,001,33,
pratique/fcloud65-35_D1.3_30,1.3,1,0,3,3,6,,,,,,,,,,,,,,,,,,,,,,,None,None,None,25.614,,,,,,,,,,,,,,,,,,,2019_Apr_11_1313,60.06139476024146,Cloud_Experiment_FR_REAL,001,33,
pratique/fcloud80-20_D1.5_30,1.5,2,0,4,4,8,,,,,,,,,,,,,,,,,,,,,,,None,None,None,37.088,,,,,,,,,,,,,,,,,,,2019_Apr_11_1313,60.06139476024146,Cloud_Experiment_FR_REAL,001,33,
pratique/fcloud_D1.4_30,1.4,0,0,5,5,1,,,,,,,,,,,,,,,,,,,,,,,None,None,None,49.792,,,,,,,,,,,,,,,,,,,2019_Apr_11_1313,60.06139476024146,Cloud_Experiment_FR_REAL,001,33,
pratique/fcloud80-20_D1.8_30,1.8,2,0,6,6,4,,,,,,,,,,,,,,,,,,,,,,,None,None,None,62.782,,,,,,,,,,,,,,,,,,,2019_Apr_11_1313,60.06139476024146,Cloud_Experiment_FR_REAL,001,33,
pratique/fcloud65-35_D1.2_30,1.2,1,0,7,7,3,,,,,,,,,,,,,,,,,,,,,,,None,None,None,74.868,,,,,,,,,,,,,,,,,,,2019_Apr_11_1313,60.06139476024146,Cloud_Experiment_FR_REAL,001,33,
pratique/fcloud80-20_D1_30,1.0,2,0,8,8,9,,,,,,,,,,,,,,,,,,,,,,,1,None,1,2.016,,,,,,,,,,,,,,,,,,,2019_Apr_11_1313,60.06139476024146,Cloud_Experiment_FR_REAL,001,33,
pratique/fcloud_D0.8_30,0.8,0,0,9,9,0,,,,,,,,,,,,,,,,,,,,,,,1,space,2,4.264,5.94123550001,,,,,,,,,,,,,,,,,,2019_Apr_11_1313,60.06139476024146,Cloud_Experiment_FR_REAL,001,33,
,,,,,,,,,,,,,,,,,,,,,,,,,,,,,,,,,,3,,,,,,,,,,,,,,,,,2019_Apr_11_1313,60.06139476024146,Cloud_Experiment_FR_REAL,001,33,
,,,,,,,,,,,,,,,,,,,,,,,,,,,,,,,,,,,2,,,,,,,,,,,,,,,,2019_Apr_11_1313,60.06139476024146,Cloud_Experiment_FR_REAL,001,33,
,,,,,,,,,,,,,,,,,,,,,,,,,,,,,,,,,,,,7,,,,,,,,,,,,,,,2019_Apr_11_1313,60.06139476024146,Cloud_Experiment_FR_REAL,001,33,
,,,,,,,,,,,,,,,,,,,,,,,,,,,,,,,,,,,,,2,,,,,,,,,,,,,,2019_Apr_11_1313,60.06139476024146,Cloud_Experiment_FR_REAL,001,33,
,,,,,,,,,,,,,,,,,,,,,,,,,,,,,,,,,,,,,,3,,,,,,,,,,,,,2019_Apr_11_1313,60.06139476024146,Cloud_Experiment_FR_REAL,001,33,
,,,,,,,,,,,,,,,,,,,,,,,,,,,,,,,,,,,,,,,6,,,,,,,,,,,,2019_Apr_11_1313,60.06139476024146,Cloud_Experiment_FR_REAL,001,33,
,,,,,,,,,,,,,,,,,,,,,,,,,,,,,,,,,,,,,,,,2,,,,,,,,,,,2019_Apr_11_1313,60.06139476024146,Cloud_Experiment_FR_REAL,001,33,
,,,,,,,,,,,,,,,,,,,,,,,,,,,,,,,,,,,,,,,,,7,,,,,,,,,,2019_Apr_11_1313,60.06139476024146,Cloud_Experiment_FR_REAL,001,33,
,,,,,,,,,,,,,,,,,,,,,,,,,,,,,,,,,,,,,,,,,,7,,,,,,,,,2019_Apr_11_1313,60.06139476024146,Cloud_Experiment_FR_REAL,001,33,
,,,,,,,,,,,,,,,,,,,,,,,,,,,,,,,,,,,,,,,,,,,4,,,,,,,,2019_Apr_11_1313,60.06139476024146,Cloud_Experiment_FR_REAL,001,33,
,,,,,,,,,,,,,,,,,,,,,,,,,,,,,,,,,,,,,,,,,,,,space,1.79863569999,,,,,,2019_Apr_11_1313,60.06139476024146,Cloud_Experiment_FR_REAL,001,33,
images/fcloud_D1.6_1.tif,1.6,0,,,,,0,0,0,24,,,,,,,,,,,,,,,,,,,1,None,1,0.903,,,,,,,,,,,,,,,,,,,2019_Apr_11_1313,60.06139476024146,Cloud_Experiment_FR_REAL,001,33,
images/fcloud_D1.8_1.tif,1.8,0,,,,,0,1,1,30,,,,,,,,,,,,,,,,,,,None,None,None,11.725,,,,,,,,,,,,,,,,,,,2019_Apr_11_1313,60.06139476024146,Cloud_Experiment_FR_REAL,001,33,
images/fcloud_D1.6_2.tif,1.6,0,,,,,0,2,2,25,,,,,,,,,,,,,,,,,,,None,None,None,20.617,,,,,,,,,,,,,,,,,,,2019_Apr_11_1313,60.06139476024146,Cloud_Experiment_FR_REAL,001,33,
images/fcloud_D1.8_3.tif,1.8,0,,,,,0,3,3,32,,,,,,,,,,,,,,,,,,,None,None,None,29.745,,,,,,,,,,,,,,,,,,,2019_Apr_11_1313,60.06139476024146,Cloud_Experiment_FR_REAL,001,33,
images/fcloud65-35_D1.6_2.tif,1.6,1,,,,,0,4,4,61,,,,,,,,,,,,,,,,,,,2,space,2,4.549,3.46297390002,,,,,,,,,,,,,,,,,,2019_Apr_11_1313,60.06139476024146,Cloud_Experiment_FR_REAL,001,33,
images/fcloud_D0.8_2.tif,0.8,0,,,,,0,5,5,1,,,,,,,,,,,,,,,,,,,1,None,1,1.55,,,,,,,,,,,,,,,,,,,2019_Apr_11_1313,60.06139476024146,Cloud_Experiment_FR_REAL,001,33,
images/fcloud65-35_D1.8_2.tif,1.8,1,,,,,0,6,6,67,,,,,,,,,,,,,,,,,,,1,None,1,1.053,,,,,,,,,,,,,,,,,,,2019_Apr_11_1313,60.06139476024146,Cloud_Experiment_FR_REAL,001,33,
images/fcloud_D1.1_3.tif,1.1,0,,,,,0,7,7,11,,,,,,,,,,,,,,,,,,,1,None,1,2.332,,,,,,,,,,,,,,,,,,,2019_Apr_11_1313,60.06139476024146,Cloud_Experiment_FR_REAL,001,33,
images/fcloud65-35_D1.3_2.tif,1.3,1,,,,,0,8,8,52,,,,,,,,,,,,,,,,,,,None,None,None,10.876,,,,,,,,,,,,,,,,,,,2019_Apr_11_1313,60.06139476024146,Cloud_Experiment_FR_REAL,001,33,
images/fcloud_D1.9_1.tif,1.9,0,,,,,0,9,9,33,,,,,,,,,,,,,,,,,,,None,None,None,19.268,,,,,,,,,,,,,,,,,,,2019_Apr_11_1313,60.06139476024146,Cloud_Experiment_FR_REAL,001,33,
images/fcloud80-20_D1.1_3.tif,1.1,2,,,,,0,10,10,83,,,,,,,,,,,,,,,,,,,1,space,1,0.636,6.94758460001,,,,,,,,,,,,,,,,,,2019_Apr_11_1313,60.06139476024146,Cloud_Experiment_FR_REAL,001,33,
images/fcloud80-20_D1.6_3.tif,1.6,2,,,,,0,11,11,98,,,,,,,,,,,,,,,,,,,None,None,None,10.226,,,,,,,,,,,,,,,,,,,2019_Apr_11_1313,60.06139476024146,Cloud_Experiment_FR_REAL,001,33,
images/fcloud_D0.9_3.tif,0.9,0,,,,,0,12,12,5,,,,,,,,,,,,,,,,,,,2,space,1,1.151,3.9434553,,,,,,,,,,,,,,,,,,2019_Apr_11_1313,60.06139476024146,Cloud_Experiment_FR_REAL,001,33,
images/fcloud65-35_D1.9_3.tif,1.9,1,,,,,0,13,13,71,,,,,,,,,,,,,,,,,,,None,None,None,10.608,,,,,,,,,,,,,,,,,,,2019_Apr_11_1313,60.06139476024146,Cloud_Experiment_FR_REAL,001,33,
images/fcloud80-20_D0.8_3.tif,0.8,2,,,,,0,14,14,74,,,,,,,,,,,,,,,,,,,1,space,2,0.951,4.3023409,,,,,,,,,,,,,,,,,,2019_Apr_11_1313,60.06139476024146,Cloud_Experiment_FR_REAL,001,33,
images/fcloud_D1.2_2.tif,1.2,0,,,,,0,15,15,13,,,,,,,,,,,,,,,,,,,1,space,1,0.984,3.75781190002,,,,,,,,,,,,,,,,,,2019_Apr_11_1313,60.06139476024146,Cloud_Experiment_FR_REAL,001,33,
images/fcloud_D0.8_1.tif,0.8,0,,,,,0,16,16,0,,,,,,,,,,,,,,,,,,,None,None,None,9.443,,,,,,,,,,,,,,,,,,,2019_Apr_11_1313,60.06139476024146,Cloud_Experiment_FR_REAL,001,33,
images/fcloud80-20_D0.9_1.tif,0.9,2,,,,,0,17,17,75,,,,,,,,,,,,,,,,,,,None,None,None,17.785,,,,,,,,,,,,,,,,,,,2019_Apr_11_1313,60.06139476024146,Cloud_Experiment_FR_REAL,001,33,
images/fcloud65-35_D1_3.tif,1.0,1,,,,,0,18,18,44,,,,,,,,,,,,,,,,,,,None,None,None,26.11,,,,,,,,,,,,,,,,,,,2019_Apr_11_1313,60.06139476024146,Cloud_Experiment_FR_REAL,001,33,
images/fcloud_D1.3_1.tif,1.3,0,,,,,0,19,19,15,,,,,,,,,,,,,,,,,,,1,space,1,1.334,5.53135909999,,,,,,,,,,,,,,,,,,2019_Apr_11_1313,60.06139476024146,Cloud_Experiment_FR_REAL,001,33,
images/fcloud_D0.9_1.tif,0.9,0,,,,,0,20,20,3,,,,,,,,,,,,,,,,,,,2,space,1,1.586,5.15145449998,,,,,,,,,,,,,,,,,,2019_Apr_11_1313,60.06139476024146,Cloud_Experiment_FR_REAL,001,33,
images/fcloud65-35_D1_1.tif,1.0,1,,,,,0,21,21,42,,,,,,,,,,,,,,,,,,,None,None,None,9.975,,,,,,,,,,,,,,,,,,,2019_Apr_11_1313,60.06139476024146,Cloud_Experiment_FR_REAL,001,33,
images/fcloud65-35_D1.6_1.tif,1.6,1,,,,,0,22,22,60,,,,,,,,,,,,,,,,,,,1,space,1,2.152,5.30424620002,,,,,,,,,,,,,,,,,,2019_Apr_11_1313,60.06139476024146,Cloud_Experiment_FR_REAL,001,33,
images/fcloud65-35_D0.9_2.tif,0.9,1,,,,,0,23,23,40,,,,,,,,,,,,,,,,,,,1,space,1,1.152,7.36720579999,,,,,,,,,,,,,,,,,,2019_Apr_11_1313,60.06139476024146,Cloud_Experiment_FR_REAL,001,33,
images/fcloud_D1.2_3.tif,1.2,0,,,,,0,24,24,14,,,,,,,,,,,,,,,,,,,None,None,None,10.077,,,,,,,,,,,,,,,,,,,2019_Apr_11_1313,60.06139476024146,Cloud_Experiment_FR_REAL,001,33,
images/fcloud65-35_D1.3_1.tif,1.3,1,,,,,0,25,25,51,,,,,,,,,,,,,,,,,,,None,None,None,19.65,,,,,,,,,,,,,,,,,,,2019_Apr_11_1313,60.06139476024146,Cloud_Experiment_FR_REAL,001,33,
images/fcloud65-35_D1.4_2.tif,1.4,1,,,,,0,26,26,55,,,,,,,,,,,,,,,,,,,None,None,None,27.993,,,,,,,,,,,,,,,,,,,2019_Apr_11_1313,60.06139476024146,Cloud_Experiment_FR_REAL,001,33,
images/fcloud80-20_D1.7_1.tif,1.7,2,,,,,0,27,27,99,,,,,,,,,,,,,,,,,,,None,None,None,36.985,,,,,,,,,,,,,,,,,,,2019_Apr_11_1313,60.06139476024146,Cloud_Experiment_FR_REAL,001,33,
images/fcloud65-35_D1.9_2.tif,1.9,1,,,,,0,28,28,70,,,,,,,,,,,,,,,,,,,None,None,None,45.348,,,,,,,,,,,,,,,,,,,2019_Apr_11_1313,60.06139476024146,Cloud_Experiment_FR_REAL,001,33,
images/fcloud80-20_D1_1.tif,1.0,2,,,,,0,29,29,78,,,,,,,,,,,,,,,,,,,1,None,1,2.767,,,,,,,,,,,,,,,,,,,2019_Apr_11_1313,60.06139476024146,Cloud_Experiment_FR_REAL,001,33,
images/fcloud80-20_D1.3_1.tif,1.3,2,,,,,0,30,30,87,,,,,,,,,,,,,,,,,,,1,space,1,1.336,5.54636380001,,,,,,,,,,,,,,,,,,2019_Apr_11_1313,60.06139476024146,Cloud_Experiment_FR_REAL,001,33,
images/fcloud65-35_D0.9_3.tif,0.9,1,,,,,0,31,31,41,,,,,,,,,,,,,,,,,,,1,space,2,1.367,4.85714160002,,,,,,,,,,,,,,,,,,2019_Apr_11_1313,60.06139476024146,Cloud_Experiment_FR_REAL,001,33,
images/fcloud80-20_D1.8_3.tif,1.8,2,,,,,0,32,32,104,,,,,,,,,,,,,,,,,,,None,None,None,9.828,,,,,,,,,,,,,,,,,,,2019_Apr_11_1313,60.06139476024146,Cloud_Experiment_FR_REAL,001,33,
images/fcloud65-35_D1.8_1.tif,1.8,1,,,,,0,33,33,66,,,,,,,,,,,,,,,,,,,1,space,1,0.635,6.39753310001,,,,,,,,,,,,,,,,,,2019_Apr_11_1313,60.06139476024146,Cloud_Experiment_FR_REAL,001,33,
images/fcloud_D1.4_1.tif,1.4,0,,,,,0,34,34,18,,,,,,,,,,,,,,,,,,,1,space,2,0.87,5.21864870001,,,,,,,,,,,,,,,,,,2019_Apr_11_1313,60.06139476024146,Cloud_Experiment_FR_REAL,001,33,
images/fcloud65-35_D1.8_3.tif,1.8,1,,,,,0,35,35,68,,,,,,,,,,,,,,,,,,,None,None,None,10.976,,,,,,,,,,,,,,,,,,,2019_Apr_11_1313,60.06139476024146,Cloud_Experiment_FR_REAL,001,33,
images/fcloud80-20_D1.1_2.tif,1.1,2,,,,,0,36,36,82,,,,,,,,,,,,,,,,,,,None,None,None,19.886,,,,,,,,,,,,,,,,,,,2019_Apr_11_1313,60.06139476024146,Cloud_Experiment_FR_REAL,001,33,
images/fcloud80-20_D1.6_2.tif,1.6,2,,,,,0,37,37,97,,,,,,,,,,,,,,,,,,,None,None,None,28.993,,,,,,,,,,,,,,,,,,,2019_Apr_11_1313,60.06139476024146,Cloud_Experiment_FR_REAL,001,33,
images/fcloud_D1.4_3.tif,1.4,0,,,,,0,38,38,20,,,,,,,,,,,,,,,,,,,1,space,1,0.935,5.70153049999,,,,,,,,,,,,,,,,,,2019_Apr_11_1313,60.06139476024146,Cloud_Experiment_FR_REAL,001,33,
images/fcloud80-20_D0.8_2.tif,0.8,2,,,,,0,39,39,73,,,,,,,,,,,,,,,,,,,1,space,3,0.652,4.15606889999,,,,,,,,,,,,,,,,,,2019_Apr_11_1313,60.06139476024146,Cloud_Experiment_FR_REAL,001,33,
images/fcloud_D1.3_2.tif,1.3,0,,,,,0,40,40,16,,,,,,,,,,,,,,,,,,,2,space,2,2.102,4.3121337,,,,,,,,,,,,,,,,,,2019_Apr_11_1313,60.06139476024146,Cloud_Experiment_FR_REAL,001,33,
images/fcloud65-35_D1.7_1.tif,1.7,1,,,,,0,41,41,63,,,,,,,,,,,,,,,,,,,None,None,None,10.443,,,,,,,,,,,,,,,,,,,2019_Apr_11_1313,60.06139476024146,Cloud_Experiment_FR_REAL,001,33,
images/fcloud80-20_D1.1_1.tif,1.1,2,,,,,0,42,42,81,,,,,,,,,,,,,,,,,,,1,space,2,1.534,3.6490301,,,,,,,,,,,,,,,,,,2019_Apr_11_1313,60.06139476024146,Cloud_Experiment_FR_REAL,001,33,
images/fcloud80-20_D1.2_2.tif,1.2,2,,,,,0,43,43,85,,,,,,,,,,,,,,,,,,,None,None,None,10.627,,,,,,,,,,,,,,,,,,,2019_Apr_11_1313,60.06139476024146,Cloud_Experiment_FR_REAL,001,33,
images/fcloud_D1.7_1.tif,1.7,0,,,,,0,44,44,27,,,,,,,,,,,,,,,,,,,None,None,None,21.467,,,,,,,,,,,,,,,,,,,2019_Apr_11_1313,60.06139476024146,Cloud_Experiment_FR_REAL,001,33,
images/fcloud65-35_D1.2_2.tif,1.2,1,,,,,0,45,45,49,,,,,,,,,,,,,,,,,,,1,space,2,0.568,6.2915658,,,,,,,,,,,,,,,,,,2019_Apr_11_1313,60.06139476024146,Cloud_Experiment_FR_REAL,001,33,
images/fcloud65-35_D0.8_3.tif,0.8,1,,,,,0,46,46,38,,,,,,,,,,,,,,,,,,,None,None,None,11.373,,,,,,,,,,,,,,,,,,,2019_Apr_11_1313,60.06139476024146,Cloud_Experiment_FR_REAL,001,33,
images/fcloud80-20_D1.8_1.tif,1.8,2,,,,,0,47,47,102,,,,,,,,,,,,,,,,,,,None,None,None,19.753,,,,,,,,,,,,,,,,,,,2019_Apr_11_1313,60.06139476024146,Cloud_Experiment_FR_REAL,001,33,
images/fcloud80-20_D1_2.tif,1.0,2,,,,,0,48,48,79,,,,,,,,,,,,,,,,,,,None,None,None,28.309,,,,,,,,,,,,,,,,,,,2019_Apr_11_1313,60.06139476024146,Cloud_Experiment_FR_REAL,001,33,
images/fcloud65-35_D1.4_1.tif,1.4,1,,,,,0,49,49,54,,,,,,,,,,,,,,,,,,,1,space,1,0.934,3.82179029999,,,,,,,,,,,,,,,,,,2019_Apr_11_1313,60.06139476024146,Cloud_Experiment_FR_REAL,001,33,
images/fcloud80-20_D1.3_2.tif,1.3,2,,,,,0,50,50,88,,,,,,,,,,,,,,,,,,,1,space,2,0.852,5.20899509999,,,,,,,,,,,,,,,,,,2019_Apr_11_1313,60.06139476024146,Cloud_Experiment_FR_REAL,001,33,
images/fcloud80-20_D1.7_2.tif,1.7,2,,,,,0,51,51,100,,,,,,,,,,,,,,,,,,,1,space,1,0.818,7.53056080002,,,,,,,,,,,,,,,,,,2019_Apr_11_1313,60.06139476024146,Cloud_Experiment_FR_REAL,001,33,
images/fcloud65-35_D1.7_2.tif,1.7,1,,,,,0,52,52,64,,,,,,,,,,,,,,,,,,,None,None,None,10.176,,,,,,,,,,,,,,,,,,,2019_Apr_11_1313,60.06139476024146,Cloud_Experiment_FR_REAL,001,33,
images/fcloud65-35_D1.1_2.tif,1.1,1,,,,,0,53,53,46,,,,,,,,,,,,,,,,,,,None,None,None,19.003,,,,,,,,,,,,,,,,,,,2019_Apr_11_1313,60.06139476024146,Cloud_Experiment_FR_REAL,001,33,
images/fcloud80-20_D1.5_2.tif,1.5,2,,,,,0,54,54,94,,,,,,,,,,,,,,,,,,,None,None,None,28.027,,,,,,,,,,,,,,,,,,,2019_Apr_11_1313,60.06139476024146,Cloud_Experiment_FR_REAL,001,33,
images/fcloud80-20_D1.9_3.tif,1.9,2,,,,,0,55,55,107,,,,,,,,,,,,,,,,,,,None,None,None,36.325,,,,,,,,,,,,,,,,,,,2019_Apr_11_1313,60.06139476024146,Cloud_Experiment_FR_REAL,001,33,
images/fcloud_D1.5_3.tif,1.5,0,,,,,0,56,56,23,,,,,,,,,,,,,,,,,,,2,space,2,1.552,4.2264864,,,,,,,,,,,,,,,,,,2019_Apr_11_1313,60.06139476024146,Cloud_Experiment_FR_REAL,001,33,
images/fcloud80-20_D1.5_3.tif,1.5,2,,,,,0,57,57,95,,,,,,,,,,,,,,,,,,,None,None,None,10.261,,,,,,,,,,,,,,,,,,,2019_Apr_11_1313,60.06139476024146,Cloud_Experiment_FR_REAL,001,33,
images/fcloud80-20_D1.2_3.tif,1.2,2,,,,,0,58,58,86,,,,,,,,,,,,,,,,,,,2,space,2,1.633,3.0069987,,,,,,,,,,,,,,,,,,2019_Apr_11_1313,60.06139476024146,Cloud_Experiment_FR_REAL,001,33,
images/fcloud80-20_D0.9_3.tif,0.9,2,,,,,0,59,59,77,,,,,,,,,,,,,,,,,,,1,space,2,2.517,5.83401409999,,,,,,,,,,,,,,,,,,2019_Apr_11_1313,60.06139476024146,Cloud_Experiment_FR_REAL,001,33,
images/fcloud_D1_2.tif,1.0,0,,,,,0,60,60,7,,,,,,,,,,,,,,,,,,,1,space,2,1.966,6.23987699999,,,,,,,,,,,,,,,,,,2019_Apr_11_1313,60.06139476024146,Cloud_Experiment_FR_REAL,001,33,
images/fcloud80-20_D1.4_2.tif,1.4,2,,,,,0,61,61,91,,,,,,,,,,,,,,,,,,,None,None,None,10.29,,,,,,,,,,,,,,,,,,,2019_Apr_11_1313,60.06139476024146,Cloud_Experiment_FR_REAL,001,33,
images/fcloud80-20_D1.6_1.tif,1.6,2,,,,,0,62,62,96,,,,,,,,,,,,,,,,,,,None,None,None,18.537,,,,,,,,,,,,,,,,,,,2019_Apr_11_1313,60.06139476024146,Cloud_Experiment_FR_REAL,001,33,
images/fcloud_D1.7_3.tif,1.7,0,,,,,0,63,63,29,,,,,,,,,,,,,,,,,,,1,space,2,1.069,2.5684125,,,,,,,,,,,,,,,,,,2019_Apr_11_1313,60.06139476024146,Cloud_Experiment_FR_REAL,001,33,
images/fcloud_D1_1.tif,1.0,0,,,,,0,64,64,6,,,,,,,,,,,,,,,,,,,1,space,3,0.519,3.18189979999,,,,,,,,,,,,,,,,,,2019_Apr_11_1313,60.06139476024146,Cloud_Experiment_FR_REAL,001,33,
images/fcloud80-20_D1.2_1.tif,1.2,2,,,,,0,65,65,84,,,,,,,,,,,,,,,,,,,None,None,None,8.909,,,,,,,,,,,,,,,,,,,2019_Apr_11_1313,60.06139476024146,Cloud_Experiment_FR_REAL,001,33,
images/fcloud80-20_D1.7_3.tif,1.7,2,,,,,0,66,66,101,,,,,,,,,,,,,,,,,,,None,None,None,17.188,,,,,,,,,,,,,,,,,,,2019_Apr_11_1313,60.06139476024146,Cloud_Experiment_FR_REAL,001,33,
images/fcloud_D0.8_3.tif,0.8,0,,,,,0,67,67,2,,,,,,,,,,,,,,,,,,,None,None,None,26.696,,,,,,,,,,,,,,,,,,,2019_Apr_11_1313,60.06139476024146,Cloud_Experiment_FR_REAL,001,33,
images/fcloud80-20_D1.9_1.tif,1.9,2,,,,,0,68,68,105,,,,,,,,,,,,,,,,,,,1,space,1,0.47,6.6193349,,,,,,,,,,,,,,,,,,2019_Apr_11_1313,60.06139476024146,Cloud_Experiment_FR_REAL,001,33,
images/fcloud65-35_D1.1_3.tif,1.1,1,,,,,0,69,69,47,,,,,,,,,,,,,,,,,,,1,space,2,0.604,4.80864420001,,,,,,,,,,,,,,,,,,2019_Apr_11_1313,60.06139476024146,Cloud_Experiment_FR_REAL,001,33,
images/fcloud65-35_D1.4_3.tif,1.4,1,,,,,0,70,70,56,,,,,,,,,,,,,,,,,,,1,space,1,0.502,7.42745979998,,,,,,,,,,,,,,,,,,2019_Apr_11_1313,60.06139476024146,Cloud_Experiment_FR_REAL,001,33,
images/fcloud_D1.1_2.tif,1.1,0,,,,,0,71,71,10,,,,,,,,,,,,,,,,,,,1,space,1,0.418,6.55424490001,,,,,,,,,,,,,,,,,,2019_Apr_11_1313,60.06139476024146,Cloud_Experiment_FR_REAL,001,33,
images/fcloud80-20_D1.4_1.tif,1.4,2,,,,,0,72,72,90,,,,,,,,,,,,,,,,,,,None,None,None,9.844,,,,,,,,,,,,,,,,,,,2019_Apr_11_1313,60.06139476024146,Cloud_Experiment_FR_REAL,001,33,
images/fcloud65-35_D1.6_3.tif,1.6,1,,,,,0,73,73,62,,,,,,,,,,,,,,,,,,,1,space,1,0.419,5.32764629999,,,,,,,,,,,,,,,,,,2019_Apr_11_1313,60.06139476024146,Cloud_Experiment_FR_REAL,001,33,
images/fcloud65-35_D1.2_3.tif,1.2,1,,,,,0,74,74,50,,,,,,,,,,,,,,,,,,,None,None,None,8.76,,,,,,,,,,,,,,,,,,,2019_Apr_11_1313,60.06139476024146,Cloud_Experiment_FR_REAL,001,33,
images/fcloud80-20_D1_3.tif,1.0,2,,,,,0,75,75,80,,,,,,,,,,,,,,,,,,,None,None,None,17.008,,,,,,,,,,,,,,,,,,,2019_Apr_11_1313,60.06139476024146,Cloud_Experiment_FR_REAL,001,33,
images/fcloud65-35_D0.9_1.tif,0.9,1,,,,,0,76,76,39,,,,,,,,,,,,,,,,,,,1,space,2,1.402,6.68132470001,,,,,,,,,,,,,,,,,,2019_Apr_11_1313,60.06139476024146,Cloud_Experiment_FR_REAL,001,33,
images/fcloud_D1.6_3.tif,1.6,0,,,,,0,77,77,26,,,,,,,,,,,,,,,,,,,1,space,1,0.537,7.7247014,,,,,,,,,,,,,,,,,,2019_Apr_11_1313,60.06139476024146,Cloud_Experiment_FR_REAL,001,33,
images/fcloud65-35_D0.8_2.tif,0.8,1,,,,,0,78,78,37,,,,,,,,,,,,,,,,,,,None,None,None,8.894,,,,,,,,,,,,,,,,,,,2019_Apr_11_1313,60.06139476024146,Cloud_Experiment_FR_REAL,001,33,
images/fcloud65-35_D1.3_3.tif,1.3,1,,,,,0,79,79,53,,,,,,,,,,,,,,,,,,,1,space,4,0.487,3.48366279999,,,,,,,,,,,,,,,,,,2019_Apr_11_1313,60.06139476024146,Cloud_Experiment_FR_REAL,001,33,
images/fcloud80-20_D1.3_3.tif,1.3,2,,,,,0,80,80,89,,,,,,,,,,,,,,,,,,,None,None,None,8.812,,,,,,,,,,,,,,,,,,,2019_Apr_11_1313,60.06139476024146,Cloud_Experiment_FR_REAL,001,33,
images/fcloud65-35_D1.1_1.tif,1.1,1,,,,,0,81,81,45,,,,,,,,,,,,,,,,,,,1,space,1,0.669,6.1201379,,,,,,,,,,,,,,,,,,2019_Apr_11_1313,60.06139476024146,Cloud_Experiment_FR_REAL,001,33,
images/fcloud80-20_D1.9_2.tif,1.9,2,,,,,0,82,82,106,,,,,,,,,,,,,,,,,,,None,None,None,9.159,,,,,,,,,,,,,,,,,,,2019_Apr_11_1313,60.06139476024146,Cloud_Experiment_FR_REAL,001,33,
images/fcloud65-35_D1.7_3.tif,1.7,1,,,,,0,83,83,65,,,,,,,,,,,,,,,,,,,None,None,None,17.469,,,,,,,,,,,,,,,,,,,2019_Apr_11_1313,60.06139476024146,Cloud_Experiment_FR_REAL,001,33,
images/fcloud80-20_D1.8_2.tif,1.8,2,,,,,0,84,84,103,,,,,,,,,,,,,,,,,,,None,None,None,25.68,,,,,,,,,,,,,,,,,,,2019_Apr_11_1313,60.06139476024146,Cloud_Experiment_FR_REAL,001,33,
images/fcloud65-35_D1.5_1.tif,1.5,1,,,,,0,85,85,57,,,,,,,,,,,,,,,,,,,None,None,None,33.921,,,,,,,,,,,,,,,,,,,2019_Apr_11_1313,60.06139476024146,Cloud_Experiment_FR_REAL,001,33,
images/fcloud65-35_D1_2.tif,1.0,1,,,,,0,86,86,43,,,,,,,,,,,,,,,,,,,1,space,1,0.518,5.87267120002,,,,,,,,,,,,,,,,,,2019_Apr_11_1313,60.06139476024146,Cloud_Experiment_FR_REAL,001,33,
images/fcloud65-35_D1.9_1.tif,1.9,1,,,,,0,87,87,69,,,,,,,,,,,,,,,,,,,1,space,1,0.717,7.50701299999,,,,,,,,,,,,,,,,,,2019_Apr_11_1313,60.06139476024146,Cloud_Experiment_FR_REAL,001,33,
images/fcloud80-20_D0.9_2.tif,0.9,2,,,,,0,88,88,76,,,,,,,,,,,,,,,,,,,1,space,2,0.501,4.5870464,,,,,,,,,,,,,,,,,,2019_Apr_11_1313,60.06139476024146,Cloud_Experiment_FR_REAL,001,33,
images/fcloud80-20_D1.5_1.tif,1.5,2,,,,,0,89,89,93,,,,,,,,,,,,,,,,,,,None,None,None,8.893,,,,,,,,,,,,,,,,,,,2019_Apr_11_1313,60.06139476024146,Cloud_Experiment_FR_REAL,001,33,
images/fcloud80-20_D0.8_1.tif,0.8,2,,,,,0,90,90,72,,,,,,,,,,,,,,,,,,,2,space,3,3.983,4.2921697,,,,,,,,,,,,,,,,,,2019_Apr_11_1313,60.06139476024146,Cloud_Experiment_FR_REAL,001,33,
images/fcloud_D1.2_1.tif,1.2,0,,,,,0,91,91,12,,,,,,,,,,,,,,,,,,,None,None,None,12.509,,,,,,,,,,,,,,,,,,,2019_Apr_11_1313,60.06139476024146,Cloud_Experiment_FR_REAL,001,33,
images/fcloud_D0.9_2.tif,0.9,0,,,,,0,92,92,4,,,,,,,,,,,,,,,,,,,None,None,None,21.0,,,,,,,,,,,,,,,,,,,2019_Apr_11_1313,60.06139476024146,Cloud_Experiment_FR_REAL,001,33,
images/fcloud_D1.7_2.tif,1.7,0,,,,,0,93,93,28,,,,,,,,,,,,,,,,,,,1,None,1,0.468,,,,,,,,,,,,,,,,,,,2019_Apr_11_1313,60.06139476024146,Cloud_Experiment_FR_REAL,001,33,
images/fcloud_D1.4_2.tif,1.4,0,,,,,0,94,94,19,,,,,,,,,,,,,,,,,,,1,space,3,2.05,3.79140069999,,,,,,,,,,,,,,,,,,2019_Apr_11_1313,60.06139476024146,Cloud_Experiment_FR_REAL,001,33,
images/fcloud_D1.1_1.tif,1.1,0,,,,,0,95,95,9,,,,,,,,,,,,,,,,,,,1,space,1,0.419,7.5595759,,,,,,,,,,,,,,,,,,2019_Apr_11_1313,60.06139476024146,Cloud_Experiment_FR_REAL,001,33,
images/fcloud65-35_D1.5_2.tif,1.5,1,,,,,0,96,96,58,,,,,,,,,,,,,,,,,,,None,None,None,8.814,,,,,,,,,,,,,,,,,,,2019_Apr_11_1313,60.06139476024146,Cloud_Experiment_FR_REAL,001,33,
images/fcloud65-35_D0.8_1.tif,0.8,1,,,,,0,97,97,36,,,,,,,,,,,,,,,,,,,1,space,1,0.786,7.0444328,,,,,,,,,,,,,,,,,,2019_Apr_11_1313,60.06139476024146,Cloud_Experiment_FR_REAL,001,33,
images/fcloud_D1.9_3.tif,1.9,0,,,,,0,98,98,35,,,,,,,,,,,,,,,,,,,None,None,None,10.044,,,,,,,,,,,,,,,,,,,2019_Apr_11_1313,60.06139476024146,Cloud_Experiment_FR_REAL,001,33,
images/fcloud_D1_3.tif,1.0,0,,,,,0,99,99,8,,,,,,,,,,,,,,,,,,,None,None,None,19.068,,,,,,,,,,,,,,,,,,,2019_Apr_11_1313,60.06139476024146,Cloud_Experiment_FR_REAL,001,33,
images/fcloud65-35_D1.2_1.tif,1.2,1,,,,,0,100,100,48,,,,,,,,,,,,,,,,,,,None,None,None,28.544,,,,,,,,,,,,,,,,,,,2019_Apr_11_1313,60.06139476024146,Cloud_Experiment_FR_REAL,001,33,
images/fcloud_D1.5_1.tif,1.5,0,,,,,0,101,101,21,,,,,,,,,,,,,,,,,,,None,None,None,37.585,,,,,,,,,,,,,,,,,,,2019_Apr_11_1313,60.06139476024146,Cloud_Experiment_FR_REAL,001,33,
images/fcloud80-20_D1.4_3.tif,1.4,2,,,,,0,102,102,92,,,,,,,,,,,,,,,,,,,None,None,None,45.928,,,,,,,,,,,,,,,,,,,2019_Apr_11_1313,60.06139476024146,Cloud_Experiment_FR_REAL,001,33,
images/fcloud_D1.8_2.tif,1.8,0,,,,,0,103,103,31,,,,,,,,,,,,,,,,,,,None,None,None,54.603,,,,,,,,,,,,,,,,,,,2019_Apr_11_1313,60.06139476024146,Cloud_Experiment_FR_REAL,001,33,
images/fcloud_D1.3_3.tif,1.3,0,,,,,0,104,104,17,,,,,,,,,,,,,,,,,,,1,None,1,0.719,,,,,,,,,,,,,,,,,,,2019_Apr_11_1313,60.06139476024146,Cloud_Experiment_FR_REAL,001,33,
images/fcloud_D1.9_2.tif,1.9,0,,,,,0,105,105,34,,,,,,,,,,,,,,,,,,,None,None,None,9.446,,,,,,,,,,,,,,,,,,,2019_Apr_11_1313,60.06139476024146,Cloud_Experiment_FR_REAL,001,33,
images/fcloud65-35_D1.5_3.tif,1.5,1,,,,,0,106,106,59,,,,,,,,,,,,,,,,,,,None,None,None,19.267,,,,,,,,,,,,,,,,,,,2019_Apr_11_1313,60.06139476024146,Cloud_Experiment_FR_REAL,001,33,
images/fcloud_D1.5_2.tif,1.5,0,,,,,0,107,107,22,,,,,,,,,,,,,,,,,,,None,None,None,27.562,,,,,,,,,,,,,,,,,,,2019_Apr_11_1313,60.06139476024146,Cloud_Experiment_FR_REAL,001,33,
,,,,,,,,,,,,,,,,,,,,,,,,,,,,,,,,,,,,,,,,,,,,,,space,2.448481,,,,2019_Apr_11_1313,60.06139476024146,Cloud_Experiment_FR_REAL,001,33,
,,,,,,,,,,,,,,,,,,,,,,,,,9,10.491,,,,,,,,,,,,,,,,,,,,,,,,,2019_Apr_11_1313,60.06139476024146,Cloud_Experiment_FR_REAL,001,33,
,,,,,,,,,,,,,,,,,,,,,,,,,,,,,,,,,,4,,,,,,,,,,,,,,,,,2019_Apr_11_1313,60.06139476024146,Cloud_Experiment_FR_REAL,001,33,
,,,,,,,,,,,,,,,,,,,,,,,,,,,,,,,,,,,3,,,,,,,,,,,,,,,,2019_Apr_11_1313,60.06139476024146,Cloud_Experiment_FR_REAL,001,33,
,,,,,,,,,,,,,,,,,,,,,,,,,,,,,,,,,,,,5,,,,,,,,,,,,,,,2019_Apr_11_1313,60.06139476024146,Cloud_Experiment_FR_REAL,001,33,
,,,,,,,,,,,,,,,,,,,,,,,,,,,,,,,,,,,,,5,,,,,,,,,,,,,,2019_Apr_11_1313,60.06139476024146,Cloud_Experiment_FR_REAL,001,33,
,,,,,,,,,,,,,,,,,,,,,,,,,,,,,,,,,,,,,,6,,,,,,,,,,,,,2019_Apr_11_1313,60.06139476024146,Cloud_Experiment_FR_REAL,001,33,
,,,,,,,,,,,,,,,,,,,,,,,,,,,,,,,,,,,,,,,6,,,,,,,,,,,,2019_Apr_11_1313,60.06139476024146,Cloud_Experiment_FR_REAL,001,33,
,,,,,,,,,,,,,,,,,,,,,,,,,,,,,,,,,,,,,,,,3,,,,,,,,,,,2019_Apr_11_1313,60.06139476024146,Cloud_Experiment_FR_REAL,001,33,
,,,,,,,,,,,,,,,,,,,,,,,,,,,,,,,,,,,,,,,,,7,,,,,,,,,,2019_Apr_11_1313,60.06139476024146,Cloud_Experiment_FR_REAL,001,33,
,,,,,,,,,,,,,,,,,,,,,,,,,,,,,,,,,,,,,,,,,,7,,,,,,,,,2019_Apr_11_1313,60.06139476024146,Cloud_Experiment_FR_REAL,001,33,
,,,,,,,,,,,,,,,,,,,,,,,,,,,,,,,,,,,,,,,,,,,5,,,,,,,,2019_Apr_11_1313,60.06139476024146,Cloud_Experiment_FR_REAL,001,33,
,,,,,,,,,,,,,,,,,,,,,,,,,,,,,,,,,,,,,,,,,,,,,,,,space,1.2841507,,2019_Apr_11_1313,60.06139476024146,Cloud_Experiment_FR_REAL,001,33,
images/fcloud_D0.8_6.tif,0.8,0,,,,,,,,,0,0,0,2,,,,,,,,,,,,,,,1,space,2,1.917,4.5853029,,,,,,,,,,,,,,,,,,2019_Apr_11_1313,60.06139476024146,Cloud_Experiment_FR_REAL,001,33,
images/fcloud_D1.8_6.tif,1.8,0,,,,,,,,,0,1,1,32,,,,,,,,,,,,,,,1,None,1,0.534,,,,,,,,,,,,,,,,,,,2019_Apr_11_1313,60.06139476024146,Cloud_Experiment_FR_REAL,001,33,
images/fcloud_D1.8_5.tif,1.8,0,,,,,,,,,0,2,2,31,,,,,,,,,,,,,,,None,None,None,8.828,,,,,,,,,,,,,,,,,,,2019_Apr_11_1313,60.06139476024146,Cloud_Experiment_FR_REAL,001,33,
images/fcloud80-20_D1.2_4.tif,1.2,2,,,,,,,,,0,3,3,84,,,,,,,,,,,,,,,None,None,None,17.67,,,,,,,,,,,,,,,,,,,2019_Apr_11_1313,60.06139476024146,Cloud_Experiment_FR_REAL,001,33,
images/fcloud65-35_D1.5_5.tif,1.5,1,,,,,,,,,0,4,4,58,,,,,,,,,,,,,,,None,None,None,26.049,,,,,,,,,,,,,,,,,,,2019_Apr_11_1313,60.06139476024146,Cloud_Experiment_FR_REAL,001,33,
images/fcloud65-35_D1.6_5.tif,1.6,1,,,,,,,,,0,5,5,61,,,,,,,,,,,,,,,1,space,1,0.519,3.97593830002,,,,,,,,,,,,,,,,,,2019_Apr_11_1313,60.06139476024146,Cloud_Experiment_FR_REAL,001,33,
images/fcloud_D0.8_4.tif,0.8,0,,,,,,,,,0,6,6,0,,,,,,,,,,,,,,,1,space,2,0.435,6.79748020001,,,,,,,,,,,,,,,,,,2019_Apr_11_1313,60.06139476024146,Cloud_Experiment_FR_REAL,001,33,
images/fcloud_D1.4_4.tif,1.4,0,,,,,,,,,0,7,7,18,,,,,,,,,,,,,,,1,space,3,0.417,5.71870119998,,,,,,,,,,,,,,,,,,2019_Apr_11_1313,60.06139476024146,Cloud_Experiment_FR_REAL,001,33,
images/fcloud80-20_D1_5.tif,1.0,2,,,,,,,,,0,8,8,79,,,,,,,,,,,,,,,None,None,None,8.728,,,,,,,,,,,,,,,,,,,2019_Apr_11_1313,60.06139476024146,Cloud_Experiment_FR_REAL,001,33,
images/fcloud_D1.8_4.tif,1.8,0,,,,,,,,,0,9,9,30,,,,,,,,,,,,,,,None,None,None,17.967,,,,,,,,,,,,,,,,,,,2019_Apr_11_1313,60.06139476024146,Cloud_Experiment_FR_REAL,001,33,
images/fcloud65-35_D1.1_4.tif,1.1,1,,,,,,,,,0,10,10,45,,,,,,,,,,,,,,,1,space,4,0.55,4.4411735,,,,,,,,,,,,,,,,,,2019_Apr_11_1313,60.06139476024146,Cloud_Experiment_FR_REAL,001,33,
images/fcloud80-20_D1.6_5.tif,1.6,2,,,,,,,,,0,11,11,97,,,,,,,,,,,,,,,None,None,None,8.877,,,,,,,,,,,,,,,,,,,2019_Apr_11_1313,60.06139476024146,Cloud_Experiment_FR_REAL,001,33,
images/fcloud65-35_D1.1_5.tif,1.1,1,,,,,,,,,0,12,12,46,,,,,,,,,,,,,,,1,space,2,1.885,5.66918750003,,,,,,,,,,,,,,,,,,2019_Apr_11_1313,60.06139476024146,Cloud_Experiment_FR_REAL,001,33,
images/fcloud65-35_D1.3_6.tif,1.3,1,,,,,,,,,0,13,13,53,,,,,,,,,,,,,,,None,None,None,11.441,,,,,,,,,,,,,,,,,,,2019_Apr_11_1313,60.06139476024146,Cloud_Experiment_FR_REAL,001,33,
images/fcloud_D1.6_5.tif,1.6,0,,,,,,,,,0,14,14,25,,,,,,,,,,,,,,,None,None,None,21.301,,,,,,,,,,,,,,,,,,,2019_Apr_11_1313,60.06139476024146,Cloud_Experiment_FR_REAL,001,33,
images/fcloud65-35_D1.6_6.tif,1.6,1,,,,,,,,,0,15,15,62,,,,,,,,,,,,,,,1,space,3,0.618,2.1057552,,,,,,,,,,,,,,,,,,2019_Apr_11_1313,60.06139476024146,Cloud_Experiment_FR_REAL,001,33,
images/fcloud80-20_D1_6.tif,1.0,2,,,,,,,,,0,16,16,80,,,,,,,,,,,,,,,None,None,None,8.945,,,,,,,,,,,,,,,,,,,2019_Apr_11_1313,60.06139476024146,Cloud_Experiment_FR_REAL,001,33,
images/fcloud80-20_D1_4.tif,1.0,2,,,,,,,,,0,17,17,78,,,,,,,,,,,,,,,None,None,None,17.238,,,,,,,,,,,,,,,,,,,2019_Apr_11_1313,60.06139476024146,Cloud_Experiment_FR_REAL,001,33,
images/fcloud_D1.1_4.tif,1.1,0,,,,,,,,,0,18,18,9,,,,,,,,,,,,,,,1,None,1,0.751,,,,,,,,,,,,,,,,,,,2019_Apr_11_1313,60.06139476024146,Cloud_Experiment_FR_REAL,001,33,
images/fcloud65-35_D0.9_5.tif,0.9,1,,,,,,,,,0,19,19,40,,,,,,,,,,,,,,,None,None,None,9.046,,,,,,,,,,,,,,,,,,,2019_Apr_11_1313,60.06139476024146,Cloud_Experiment_FR_REAL,001,33,
images/fcloud65-35_D1.8_5.tif,1.8,1,,,,,,,,,0,20,20,67,,,,,,,,,,,,,,,1,space,1,2.568,6.9468836,,,,,,,,,,,,,,,,,,2019_Apr_11_1313,60.06139476024146,Cloud_Experiment_FR_REAL,001,33,
images/fcloud_D1.3_4.tif,1.3,0,,,,,,,,,0,21,21,15,,,,,,,,,,,,,,,1,space,2,0.817,2.8647725,,,,,,,,,,,,,,,,,,2019_Apr_11_1313,60.06139476024146,Cloud_Experiment_FR_REAL,001,33,
images/fcloud80-20_D1.7_6.tif,1.7,2,,,,,,,,,0,22,22,101,,,,,,,,,,,,,,,None,None,None,9.126,,,,,,,,,,,,,,,,,,,2019_Apr_11_1313,60.06139476024146,Cloud_Experiment_FR_REAL,001,33,
images/fcloud65-35_D1.8_4.tif,1.8,1,,,,,,,,,0,23,23,66,,,,,,,,,,,,,,,None,None,None,17.386,,,,,,,,,,,,,,,,,,,2019_Apr_11_1313,60.06139476024146,Cloud_Experiment_FR_REAL,001,33,
images/fcloud65-35_D1.4_4.tif,1.4,1,,,,,,,,,0,24,24,54,,,,,,,,,,,,,,,None,None,None,25.797,,,,,,,,,,,,,,,,,,,2019_Apr_11_1313,60.06139476024146,Cloud_Experiment_FR_REAL,001,33,
images/fcloud_D1.2_5.tif,1.2,0,,,,,,,,,0,25,25,13,,,,,,,,,,,,,,,None,None,None,34.207,,,,,,,,,,,,,,,,,,,2019_Apr_11_1313,60.06139476024146,Cloud_Experiment_FR_REAL,001,33,
images/fcloud80-20_D1.8_5.tif,1.8,2,,,,,,,,,0,26,26,103,,,,,,,,,,,,,,,1,space,2,1.287,6.31103139999,,,,,,,,,,,,,,,,,,2019_Apr_11_1313,60.06139476024146,Cloud_Experiment_FR_REAL,001,33,
images/fcloud_D1.7_6.tif,1.7,0,,,,,,,,,0,27,27,29,,,,,,,,,,,,,,,None,None,None,10.392,,,,,,,,,,,,,,,,,,,2019_Apr_11_1313,60.06139476024146,Cloud_Experiment_FR_REAL,001,33,
images/fcloud65-35_D1_5.tif,1.0,1,,,,,,,,,0,28,28,43,,,,,,,,,,,,,,,1,space,1,0.484,4.95769549999,,,,,,,,,,,,,,,,,,2019_Apr_11_1313,60.06139476024146,Cloud_Experiment_FR_REAL,001,33,
images/fcloud_D1.5_5.tif,1.5,0,,,,,,,,,0,29,29,22,,,,,,,,,,,,,,,None,None,None,9.527,,,,,,,,,,,,,,,,,,,2019_Apr_11_1313,60.06139476024146,Cloud_Experiment_FR_REAL,001,33,
images/fcloud_D1.5_4.tif,1.5,0,,,,,,,,,0,30,30,21,,,,,,,,,,,,,,,1,space,2,0.435,2.43502570002,,,,,,,,,,,,,,,,,,2019_Apr_11_1313,60.06139476024146,Cloud_Experiment_FR_REAL,001,33,
images/fcloud_D0.9_5.tif,0.9,0,,,,,,,,,0,31,31,4,,,,,,,,,,,,,,,2,space,2,0.601,6.544142,,,,,,,,,,,,,,,,,,2019_Apr_11_1313,60.06139476024146,Cloud_Experiment_FR_REAL,001,33,
images/fcloud80-20_D1.2_5.tif,1.2,2,,,,,,,,,0,32,32,85,,,,,,,,,,,,,,,None,None,None,8.914,,,,,,,,,,,,,,,,,,,2019_Apr_11_1313,60.06139476024146,Cloud_Experiment_FR_REAL,001,33,
images/fcloud80-20_D1.1_4.tif,1.1,2,,,,,,,,,0,33,33,81,,,,,,,,,,,,,,,1,space,3,0.486,2.87192559999,,,,,,,,,,,,,,,,,,2019_Apr_11_1313,60.06139476024146,Cloud_Experiment_FR_REAL,001,33,
images/fcloud_D1.4_5.tif,1.4,0,,,,,,,,,0,34,34,19,,,,,,,,,,,,,,,None,None,None,9.593,,,,,,,,,,,,,,,,,,,2019_Apr_11_1313,60.06139476024146,Cloud_Experiment_FR_REAL,001,33,
images/fcloud80-20_D1.1_6.tif,1.1,2,,,,,,,,,0,35,35,83,,,,,,,,,,,,,,,None,None,None,18.401,,,,,,,,,,,,,,,,,,,2019_Apr_11_1313,60.06139476024146,Cloud_Experiment_FR_REAL,001,33,
images/fcloud80-20_D0.8_4.tif,0.8,2,,,,,,,,,0,36,36,72,,,,,,,,,,,,,,,1,None,1,0.786,,,,,,,,,,,,,,,,,,,2019_Apr_11_1313,60.06139476024146,Cloud_Experiment_FR_REAL,001,33,
images/fcloud80-20_D1.7_4.tif,1.7,2,,,,,,,,,0,37,37,99,,,,,,,,,,,,,,,None,None,None,10.211,,,,,,,,,,,,,,,,,,,2019_Apr_11_1313,60.06139476024146,Cloud_Experiment_FR_REAL,001,33,
images/fcloud_D0.9_6.tif,0.9,0,,,,,,,,,0,38,38,5,,,,,,,,,,,,,,,1,space,1,0.501,6.28655709999,,,,,,,,,,,,,,,,,,2019_Apr_11_1313,60.06139476024146,Cloud_Experiment_FR_REAL,001,33,
images/fcloud_D1.1_5.tif,1.1,0,,,,,,,,,0,39,39,10,,,,,,,,,,,,,,,None,None,None,9.882,,,,,,,,,,,,,,,,,,,2019_Apr_11_1313,60.06139476024146,Cloud_Experiment_FR_REAL,001,33,
images/fcloud65-35_D1.8_6.tif,1.8,1,,,,,,,,,0,40,40,68,,,,,,,,,,,,,,,None,None,None,18.185,,,,,,,,,,,,,,,,,,,2019_Apr_11_1313,60.06139476024146,Cloud_Experiment_FR_REAL,001,33,
images/fcloud_D1_5.tif,1.0,0,,,,,,,,,0,41,41,7,,,,,,,,,,,,,,,1,space,3,3.619,7.08997959999,,,,,,,,,,,,,,,,,,2019_Apr_11_1313,60.06139476024146,Cloud_Experiment_FR_REAL,001,33,
images/fcloud65-35_D1.7_6.tif,1.7,1,,,,,,,,,0,42,42,65,,,,,,,,,,,,,,,None,None,None,12.293,,,,,,,,,,,,,,,,,,,2019_Apr_11_1313,60.06139476024146,Cloud_Experiment_FR_REAL,001,33,
images/fcloud_D1.4_6.tif,1.4,0,,,,,,,,,0,43,43,20,,,,,,,,,,,,,,,1,space,1,0.404,7.8050042,,,,,,,,,,,,,,,,,,2019_Apr_11_1313,60.06139476024146,Cloud_Experiment_FR_REAL,001,33,
images/fcloud65-35_D0.8_5.tif,0.8,1,,,,,,,,,0,44,44,37,,,,,,,,,,,,,,,None,None,None,8.694,,,,,,,,,,,,,,,,,,,2019_Apr_11_1313,60.06139476024146,Cloud_Experiment_FR_REAL,001,33,
images/fcloud65-35_D1.2_6.tif,1.2,1,,,,,,,,,0,45,45,50,,,,,,,,,,,,,,,None,None,None,17.804,,,,,,,,,,,,,,,,,,,2019_Apr_11_1313,60.06139476024146,Cloud_Experiment_FR_REAL,001,33,
images/fcloud80-20_D1.4_4.tif,1.4,2,,,,,,,,,0,46,46,90,,,,,,,,,,,,,,,None,None,None,26.147,,,,,,,,,,,,,,,,,,,2019_Apr_11_1313,60.06139476024146,Cloud_Experiment_FR_REAL,001,33,
images/fcloud_D1.3_6.tif,1.3,0,,,,,,,,,0,47,47,17,,,,,,,,,,,,,,,2,space,3,1.817,4.77730759999,,,,,,,,,,,,,,,,,,2019_Apr_11_1313,60.06139476024146,Cloud_Experiment_FR_REAL,001,33,
images/fcloud_D1.5_6.tif,1.5,0,,,,,,,,,0,48,48,23,,,,,,,,,,,,,,,None,None,None,10.476,,,,,,,,,,,,,,,,,,,2019_Apr_11_1313,60.06139476024146,Cloud_Experiment_FR_REAL,001,33,
images/fcloud_D0.9_4.tif,0.9,0,,,,,,,,,0,49,49,3,,,,,,,,,,,,,,,None,None,None,18.737,,,,,,,,,,,,,,,,,,,2019_Apr_11_1313,60.06139476024146,Cloud_Experiment_FR_REAL,001,33,
images/fcloud65-35_D1.2_5.tif,1.2,1,,,,,,,,,0,50,50,49,,,,,,,,,,,,,,,1,space,3,0.669,3.61421660002,,,,,,,,,,,,,,,,,,2019_Apr_11_1313,60.06139476024146,Cloud_Experiment_FR_REAL,001,33,
images/fcloud65-35_D1.9_5.tif,1.9,1,,,,,,,,,0,51,51,70,,,,,,,,,,,,,,,None,None,None,8.977,,,,,,,,,,,,,,,,,,,2019_Apr_11_1313,60.06139476024146,Cloud_Experiment_FR_REAL,001,33,
images/fcloud65-35_D0.9_4.tif,0.9,1,,,,,,,,,0,52,52,39,,,,,,,,,,,,,,,None,None,None,17.855,,,,,,,,,,,,,,,,,,,2019_Apr_11_1313,60.06139476024146,Cloud_Experiment_FR_REAL,001,33,
images/fcloud65-35_D1.5_4.tif,1.5,1,,,,,,,,,0,53,53,57,,,,,,,,,,,,,,,1,space,2,2.152,5.83500570001,,,,,,,,,,,,,,,,,,2019_Apr_11_1313,60.06139476024146,Cloud_Experiment_FR_REAL,001,33,
images/fcloud80-20_D1.2_6.tif,1.2,2,,,,,,,,,0,54,54,86,,,,,,,,,,,,,,,None,None,None,11.328,,,,,,,,,,,,,,,,,,,2019_Apr_11_1313,60.06139476024146,Cloud_Experiment_FR_REAL,001,33,
images/fcloud65-35_D1.4_5.tif,1.4,1,,,,,,,,,0,55,55,55,,,,,,,,,,,,,,,1,space,4,0.484,3.10786589998,,,,,,,,,,,,,,,,,,2019_Apr_11_1313,60.06139476024146,Cloud_Experiment_FR_REAL,001,33,
images/fcloud65-35_D1.3_5.tif,1.3,1,,,,,,,,,0,56,56,52,,,,,,,,,,,,,,,None,None,None,8.826,,,,,,,,,,,,,,,,,,,2019_Apr_11_1313,60.06139476024146,Cloud_Experiment_FR_REAL,001,33,
images/fcloud80-20_D1.6_4.tif,1.6,2,,,,,,,,,0,57,57,96,,,,,,,,,,,,,,,None,None,None,17.567,,,,,,,,,,,,,,,,,,,2019_Apr_11_1313,60.06139476024146,Cloud_Experiment_FR_REAL,001,33,
images/fcloud_D1.9_6.tif,1.9,0,,,,,,,,,0,58,58,35,,,,,,,,,,,,,,,None,None,None,25.878,,,,,,,,,,,,,,,,,,,2019_Apr_11_1313,60.06139476024146,Cloud_Experiment_FR_REAL,001,33,
images/fcloud80-20_D1.3_6.tif,1.3,2,,,,,,,,,0,59,59,89,,,,,,,,,,,,,,,1,space,2,0.556,5.437921,,,,,,,,,,,,,,,,,,2019_Apr_11_1313,60.06139476024146,Cloud_Experiment_FR_REAL,001,33,
images/fcloud65-35_D1.9_4.tif,1.9,1,,,,,,,,,0,60,60,69,,,,,,,,,,,,,,,None,None,None,8.876,,,,,,,,,,,,,,,,,,,2019_Apr_11_1313,60.06139476024146,Cloud_Experiment_FR_REAL,001,33,
images/fcloud80-20_D1.3_4.tif,1.3,2,,,,,,,,,0,61,61,87,,,,,,,,,,,,,,,None,None,None,17.17,,,,,,,,,,,,,,,,,,,2019_Apr_11_1313,60.06139476024146,Cloud_Experiment_FR_REAL,001,33,
images/fcloud80-20_D0.9_6.tif,0.9,2,,,,,,,,,0,62,62,77,,,,,,,,,,,,,,,1,None,1,0.752,,,,,,,,,,,,,,,,,,,2019_Apr_11_1313,60.06139476024146,Cloud_Experiment_FR_REAL,001,33,
images/fcloud80-20_D1.9_6.tif,1.9,2,,,,,,,,,0,63,63,107,,,,,,,,,,,,,,,None,None,None,10.695,,,,,,,,,,,,,,,,,,,2019_Apr_11_1313,60.06139476024146,Cloud_Experiment_FR_REAL,001,33,
images/fcloud80-20_D1.6_6.tif,1.6,2,,,,,,,,,0,64,64,98,,,,,,,,,,,,,,,None,None,None,19.519,,,,,,,,,,,,,,,,,,,2019_Apr_11_1313,60.06139476024146,Cloud_Experiment_FR_REAL,001,33,
images/fcloud65-35_D1.5_6.tif,1.5,1,,,,,,,,,0,65,65,59,,,,,,,,,,,,,,,None,None,None,27.777,,,,,,,,,,,,,,,,,,,2019_Apr_11_1313,60.06139476024146,Cloud_Experiment_FR_REAL,001,33,
images/fcloud80-20_D1.8_6.tif,1.8,2,,,,,,,,,0,66,66,104,,,,,,,,,,,,,,,1,space,1,0.518,6.65122209999,,,,,,,,,,,,,,,,,,2019_Apr_11_1313,60.06139476024146,Cloud_Experiment_FR_REAL,001,33,
images/fcloud65-35_D1_6.tif,1.0,1,,,,,,,,,0,67,67,44,,,,,,,,,,,,,,,1,space,2,1.2,4.0430255,,,,,,,,,,,,,,,,,,2019_Apr_11_1313,60.06139476024146,Cloud_Experiment_FR_REAL,001,33,
images/fcloud_D1.7_5.tif,1.7,0,,,,,,,,,0,68,68,28,,,,,,,,,,,,,,,1,space,2,0.469,6.67032619999,,,,,,,,,,,,,,,,,,2019_Apr_11_1313,60.06139476024146,Cloud_Experiment_FR_REAL,001,33,
images/fcloud80-20_D1.8_4.tif,1.8,2,,,,,,,,,0,69,69,102,,,,,,,,,,,,,,,1,space,4,0.534,5.3220702,,,,,,,,,,,,,,,,,,2019_Apr_11_1313,60.06139476024146,Cloud_Experiment_FR_REAL,001,33,
images/fcloud80-20_D1.7_5.tif,1.7,2,,,,,,,,,0,70,70,100,,,,,,,,,,,,,,,None,None,None,8.826,,,,,,,,,,,,,,,,,,,2019_Apr_11_1313,60.06139476024146,Cloud_Experiment_FR_REAL,001,33,
images/fcloud65-35_D1.7_4.tif,1.7,1,,,,,,,,,0,71,71,63,,,,,,,,,,,,,,,None,None,None,17.104,,,,,,,,,,,,,,,,,,,2019_Apr_11_1313,60.06139476024146,Cloud_Experiment_FR_REAL,001,33,
images/fcloud80-20_D1.5_5.tif,1.5,2,,,,,,,,,0,72,72,94,,,,,,,,,,,,,,,1,space,1,0.469,4.02214350001,,,,,,,,,,,,,,,,,,2019_Apr_11_1313,60.06139476024146,Cloud_Experiment_FR_REAL,001,33,
images/fcloud80-20_D1.9_5.tif,1.9,2,,,,,,,,,0,73,73,106,,,,,,,,,,,,,,,1,space,1,1.552,6.23250670001,,,,,,,,,,,,,,,,,,2019_Apr_11_1313,60.06139476024146,Cloud_Experiment_FR_REAL,001,33,
images/fcloud65-35_D1_4.tif,1.0,1,,,,,,,,,0,74,74,42,,,,,,,,,,,,,,,None,None,None,9.908,,,,,,,,,,,,,,,,,,,2019_Apr_11_1313,60.06139476024146,Cloud_Experiment_FR_REAL,001,33,
images/fcloud_D1.9_5.tif,1.9,0,,,,,,,,,0,75,75,34,,,,,,,,,,,,,,,None,None,None,18.201,,,,,,,,,,,,,,,,,,,2019_Apr_11_1313,60.06139476024146,Cloud_Experiment_FR_REAL,001,33,
images/fcloud_D1.2_4.tif,1.2,0,,,,,,,,,0,76,76,12,,,,,,,,,,,,,,,None,None,None,27.295,,,,,,,,,,,,,,,,,,,2019_Apr_11_1313,60.06139476024146,Cloud_Experiment_FR_REAL,001,33,
images/fcloud80-20_D1.9_4.tif,1.9,2,,,,,,,,,0,77,77,105,,,,,,,,,,,,,,,None,None,None,35.703,,,,,,,,,,,,,,,,,,,2019_Apr_11_1313,60.06139476024146,Cloud_Experiment_FR_REAL,001,33,
images/fcloud_D1.9_4.tif,1.9,0,,,,,,,,,0,78,78,33,,,,,,,,,,,,,,,None,None,None,44.38,,,,,,,,,,,,,,,,,,,2019_Apr_11_1313,60.06139476024146,Cloud_Experiment_FR_REAL,001,33,
images/fcloud80-20_D1.4_5.tif,1.4,2,,,,,,,,,0,79,79,91,,,,,,,,,,,,,,,1,space,1,0.42,5.47154529998,,,,,,,,,,,,,,,,,,2019_Apr_11_1313,60.06139476024146,Cloud_Experiment_FR_REAL,001,33,
images/fcloud80-20_D1.4_6.tif,1.4,2,,,,,,,,,0,80,80,92,,,,,,,,,,,,,,,1,space,2,0.485,5.5934329,,,,,,,,,,,,,,,,,,2019_Apr_11_1313,60.06139476024146,Cloud_Experiment_FR_REAL,001,33,
images/fcloud80-20_D1.5_4.tif,1.5,2,,,,,,,,,0,81,81,93,,,,,,,,,,,,,,,None,None,None,9.641,,,,,,,,,,,,,,,,,,,2019_Apr_11_1313,60.06139476024146,Cloud_Experiment_FR_REAL,001,33,
images/fcloud65-35_D0.8_4.tif,0.8,1,,,,,,,,,0,82,82,36,,,,,,,,,,,,,,,1,space,2,0.518,5.94681260001,,,,,,,,,,,,,,,,,,2019_Apr_11_1313,60.06139476024146,Cloud_Experiment_FR_REAL,001,33,
images/fcloud80-20_D0.8_5.tif,0.8,2,,,,,,,,,0,83,83,73,,,,,,,,,,,,,,,None,None,None,8.876,,,,,,,,,,,,,,,,,,,2019_Apr_11_1313,60.06139476024146,Cloud_Experiment_FR_REAL,001,33,
images/fcloud_D1_4.tif,1.0,0,,,,,,,,,0,84,84,6,,,,,,,,,,,,,,,1,space,2,0.851,7.91284450001,,,,,,,,,,,,,,,,,,2019_Apr_11_1313,60.06139476024146,Cloud_Experiment_FR_REAL,001,33,
images/fcloud65-35_D1.9_6.tif,1.9,1,,,,,,,,,0,85,85,71,,,,,,,,,,,,,,,None,None,None,9.243,,,,,,,,,,,,,,,,,,,2019_Apr_11_1313,60.06139476024146,Cloud_Experiment_FR_REAL,001,33,
images/fcloud65-35_D1.4_6.tif,1.4,1,,,,,,,,,0,86,86,56,,,,,,,,,,,,,,,2,space,1,0.738,5.90030849999,,,,,,,,,,,,,,,,,,2019_Apr_11_1313,60.06139476024146,Cloud_Experiment_FR_REAL,001,33,
images/fcloud80-20_D0.9_5.tif,0.9,2,,,,,,,,,0,87,87,76,,,,,,,,,,,,,,,None,None,None,9.132,,,,,,,,,,,,,,,,,,,2019_Apr_11_1313,60.06139476024146,Cloud_Experiment_FR_REAL,001,33,
images/fcloud80-20_D1.1_5.tif,1.1,2,,,,,,,,,0,88,88,82,,,,,,,,,,,,,,,1,space,2,1.085,2.36700509998,,,,,,,,,,,,,,,,,,2019_Apr_11_1313,60.06139476024146,Cloud_Experiment_FR_REAL,001,33,
images/fcloud65-35_D1.2_4.tif,1.2,1,,,,,,,,,0,89,89,48,,,,,,,,,,,,,,,None,None,None,9.344,,,,,,,,,,,,,,,,,,,2019_Apr_11_1313,60.06139476024146,Cloud_Experiment_FR_REAL,001,33,
images/fcloud_D1.1_6.tif,1.1,0,,,,,,,,,0,90,90,11,,,,,,,,,,,,,,,None,None,None,18.219,,,,,,,,,,,,,,,,,,,2019_Apr_11_1313,60.06139476024146,Cloud_Experiment_FR_REAL,001,33,
images/fcloud_D1.2_6.tif,1.2,0,,,,,,,,,0,91,91,14,,,,,,,,,,,,,,,1,None,2,1.568,,,,,,,,,,,,,,,,,,,2019_Apr_11_1313,60.06139476024146,Cloud_Experiment_FR_REAL,001,33,
images/fcloud80-20_D1.5_6.tif,1.5,2,,,,,,,,,0,92,92,95,,,,,,,,,,,,,,,None,None,None,9.826,,,,,,,,,,,,,,,,,,,2019_Apr_11_1313,60.06139476024146,Cloud_Experiment_FR_REAL,001,33,
images/fcloud80-20_D0.9_4.tif,0.9,2,,,,,,,,,0,93,93,75,,,,,,,,,,,,,,,1,space,2,0.635,7.1658551,,,,,,,,,,,,,,,,,,2019_Apr_11_1313,60.06139476024146,Cloud_Experiment_FR_REAL,001,33,
images/fcloud_D1.7_4.tif,1.7,0,,,,,,,,,0,94,94,27,,,,,,,,,,,,,,,None,None,None,8.908,,,,,,,,,,,,,,,,,,,2019_Apr_11_1313,60.06139476024146,Cloud_Experiment_FR_REAL,001,33,
images/fcloud_D1_6.tif,1.0,0,,,,,,,,,0,95,95,8,,,,,,,,,,,,,,,1,space,3,0.419,6.20180910002,,,,,,,,,,,,,,,,,,2019_Apr_11_1313,60.06139476024146,Cloud_Experiment_FR_REAL,001,33,
images/fcloud65-35_D0.8_6.tif,0.8,1,,,,,,,,,0,96,96,38,,,,,,,,,,,,,,,None,None,None,8.96,,,,,,,,,,,,,,,,,,,2019_Apr_11_1313,60.06139476024146,Cloud_Experiment_FR_REAL,001,33,
images/fcloud_D0.8_5.tif,0.8,0,,,,,,,,,0,97,97,1,,,,,,,,,,,,,,,None,None,None,18.767,,,,,,,,,,,,,,,,,,,2019_Apr_11_1313,60.06139476024146,Cloud_Experiment_FR_REAL,001,33,
images/fcloud65-35_D0.9_6.tif,0.9,1,,,,,,,,,0,98,98,41,,,,,,,,,,,,,,,1,None,1,0.767,,,,,,,,,,,,,,,,,,,2019_Apr_11_1313,60.06139476024146,Cloud_Experiment_FR_REAL,001,33,
images/fcloud_D1.6_4.tif,1.6,0,,,,,,,,,0,99,99,24,,,,,,,,,,,,,,,None,None,None,9.059,,,,,,,,,,,,,,,,,,,2019_Apr_11_1313,60.06139476024146,Cloud_Experiment_FR_REAL,001,33,
images/fcloud80-20_D0.8_6.tif,0.8,2,,,,,,,,,0,100,100,74,,,,,,,,,,,,,,,1,space,3,0.518,5.47712190001,,,,,,,,,,,,,,,,,,2019_Apr_11_1313,60.06139476024146,Cloud_Experiment_FR_REAL,001,33,
images/fcloud65-35_D1.3_4.tif,1.3,1,,,,,,,,,0,101,101,51,,,,,,,,,,,,,,,None,None,None,8.762,,,,,,,,,,,,,,,,,,,2019_Apr_11_1313,60.06139476024146,Cloud_Experiment_FR_REAL,001,33,
images/fcloud65-35_D1.7_5.tif,1.7,1,,,,,,,,,0,102,102,64,,,,,,,,,,,,,,,None,None,None,17.087,,,,,,,,,,,,,,,,,,,2019_Apr_11_1313,60.06139476024146,Cloud_Experiment_FR_REAL,001,33,
images/fcloud_D1.3_5.tif,1.3,0,,,,,,,,,0,103,103,16,,,,,,,,,,,,,,,3,None,1,1.701,,,,,,,,,,,,,,,,,,,2019_Apr_11_1313,60.06139476024146,Cloud_Experiment_FR_REAL,001,33,
images/fcloud80-20_D1.3_5.tif,1.3,2,,,,,,,,,0,104,104,88,,,,,,,,,,,,,,,None,None,None,10.043,,,,,,,,,,,,,,,,,,,2019_Apr_11_1313,60.06139476024146,Cloud_Experiment_FR_REAL,001,33,
images/fcloud_D1.6_6.tif,1.6,0,,,,,,,,,0,105,105,26,,,,,,,,,,,,,,,2,space,2,2.399,3.5927671,,,,,,,,,,,,,,,,,,2019_Apr_11_1313,60.06139476024146,Cloud_Experiment_FR_REAL,001,33,
images/fcloud65-35_D1.6_4.tif,1.6,1,,,,,,,,,0,106,106,60,,,,,,,,,,,,,,,None,None,None,10.842,,,,,,,,,,,,,,,,,,,2019_Apr_11_1313,60.06139476024146,Cloud_Experiment_FR_REAL,001,33,
images/fcloud65-35_D1.1_6.tif,1.1,1,,,,,,,,,0,107,107,47,,,,,,,,,,,,,,,1,space,2,0.737,5.85235890001,,,,,,,,,,,,,,,,,,2019_Apr_11_1313,60.06139476024146,Cloud_Experiment_FR_REAL,001,33,
,,,,,,,,,,,,,,,,,,,,,,,,,,,,,,,,,,,,,,,,,,,,,,space,7.54518749999,,,,2019_Apr_11_1313,60.06139476024146,Cloud_Experiment_FR_REAL,001,33,
,,,,,,,,,,,,,,,,,,,,,,,,,8,11.29,,,,,,,,,,,,,,,,,,,,,,,,,2019_Apr_11_1313,60.06139476024146,Cloud_Experiment_FR_REAL,001,33,
,,,,,,,,,,,,,,,,,,,,,,,,,,,,,,,,,,6,,,,,,,,,,,,,,,,,2019_Apr_11_1313,60.06139476024146,Cloud_Experiment_FR_REAL,001,33,
,,,,,,,,,,,,,,,,,,,,,,,,,,,,,,,,,,,5,,,,,,,,,,,,,,,,2019_Apr_11_1313,60.06139476024146,Cloud_Experiment_FR_REAL,001,33,
,,,,,,,,,,,,,,,,,,,,,,,,,,,,,,,,,,,,6,,,,,,,,,,,,,,,2019_Apr_11_1313,60.06139476024146,Cloud_Experiment_FR_REAL,001,33,
,,,,,,,,,,,,,,,,,,,,,,,,,,,,,,,,,,,,,5,,,,,,,,,,,,,,2019_Apr_11_1313,60.06139476024146,Cloud_Experiment_FR_REAL,001,33,
,,,,,,,,,,,,,,,,,,,,,,,,,,,,,,,,,,,,,,4,,,,,,,,,,,,,2019_Apr_11_1313,60.06139476024146,Cloud_Experiment_FR_REAL,001,33,
,,,,,,,,,,,,,,,,,,,,,,,,,,,,,,,,,,,,,,,5,,,,,,,,,,,,2019_Apr_11_1313,60.06139476024146,Cloud_Experiment_FR_REAL,001,33,
,,,,,,,,,,,,,,,,,,,,,,,,,,,,,,,,,,,,,,,,4,,,,,,,,,,,2019_Apr_11_1313,60.06139476024146,Cloud_Experiment_FR_REAL,001,33,
,,,,,,,,,,,,,,,,,,,,,,,,,,,,,,,,,,,,,,,,,7,,,,,,,,,,2019_Apr_11_1313,60.06139476024146,Cloud_Experiment_FR_REAL,001,33,
,,,,,,,,,,,,,,,,,,,,,,,,,,,,,,,,,,,,,,,,,,7,,,,,,,,,2019_Apr_11_1313,60.06139476024146,Cloud_Experiment_FR_REAL,001,33,
,,,,,,,,,,,,,,,,,,,,,,,,,,,,,,,,,,,,,,,,,,,5,,,,,,,,2019_Apr_11_1313,60.06139476024146,Cloud_Experiment_FR_REAL,001,33,
,,,,,,,,,,,,,,,,,,,,,,,,,,,,,,,,,,,,,,,,,,,,,,,,space,4.49714190001,,2019_Apr_11_1313,60.06139476024146,Cloud_Experiment_FR_REAL,001,33,
images/fcloud80-20_D1.3_9.tif,1.3,2,,,,,,,,,,,,,0,0,0,118,,,,,,,,,,,1,space,2,0.501,2.62648020001,,,,,,,,,,,,,,,,,,2019_Apr_11_1313,60.06139476024146,Cloud_Experiment_FR_REAL,001,33,
images/fcloud80-20_D0.8_10.tif,0.8,2,,,,,,,,,,,,,0,1,1,99,,,,,,,,,,,None,None,None,8.945,,,,,,,,,,,,,,,,,,,2019_Apr_11_1313,60.06139476024146,Cloud_Experiment_FR_REAL,001,33,
images/fcloud80-20_D1.2_10.tif,1.2,2,,,,,,,,,,,,,0,2,2,115,,,,,,,,,,,None,None,None,17.253,,,,,,,,,,,,,,,,,,,2019_Apr_11_1313,60.06139476024146,Cloud_Experiment_FR_REAL,001,33,
images/fcloud_D1_8.tif,1.0,0,,,,,,,,,,,,,0,3,3,9,,,,,,,,,,,1,None,2,0.585,,,,,,,,,,,,,,,,,,,2019_Apr_11_1313,60.06139476024146,Cloud_Experiment_FR_REAL,001,33,
images/fcloud_D0.8_10.tif,0.8,0,,,,,,,,,,,,,0,4,4,3,,,,,,,,,,,None,None,None,8.878,,,,,,,,,,,,,,,,,,,2019_Apr_11_1313,60.06139476024146,Cloud_Experiment_FR_REAL,001,33,
images/fcloud80-20_D1.8_10.tif,1.8,2,,,,,,,,,,,,,0,5,5,139,,,,,,,,,,,None,None,None,17.269,,,,,,,,,,,,,,,,,,,2019_Apr_11_1313,60.06139476024146,Cloud_Experiment_FR_REAL,001,33,
images/fcloud_D1.2_7.tif,1.2,0,,,,,,,,,,,,,0,6,6,16,,,,,,,,,,,None,None,None,25.562,,,,,,,,,,,,,,,,,,,2019_Apr_11_1313,60.06139476024146,Cloud_Experiment_FR_REAL,001,33,
images/fcloud_D1.7_8.tif,1.7,0,,,,,,,,,,,,,0,7,7,37,,,,,,,,,,,None,None,None,33.871,,,,,,,,,,,,,,,,,,,2019_Apr_11_1313,60.06139476024146,Cloud_Experiment_FR_REAL,001,33,
images/fcloud_D1.4_8.tif,1.4,0,,,,,,,,,,,,,0,8,8,25,,,,,,,,,,,1,space,2,0.702,3.98901200001,,,,,,,,,,,,,,,,,,2019_Apr_11_1313,60.06139476024146,Cloud_Experiment_FR_REAL,001,33,
images/fcloud80-20_D1.9_10.tif,1.9,2,,,,,,,,,,,,,0,9,9,143,,,,,,,,,,,None,None,None,9.011,,,,,,,,,,,,,,,,,,,2019_Apr_11_1313,60.06139476024146,Cloud_Experiment_FR_REAL,001,33,
images/fcloud_D1.5_7.tif,1.5,0,,,,,,,,,,,,,0,10,10,28,,,,,,,,,,,None,None,None,19.75,,,,,,,,,,,,,,,,,,,2019_Apr_11_1313,60.06139476024146,Cloud_Experiment_FR_REAL,001,33,
images/fcloud65-35_D1.5_7.tif,1.5,1,,,,,,,,,,,,,0,11,11,76,,,,,,,,,,,None,None,None,28.109,,,,,,,,,,,,,,,,,,,2019_Apr_11_1313,60.06139476024146,Cloud_Experiment_FR_REAL,001,33,
images/fcloud80-20_D0.8_8.tif,0.8,2,,,,,,,,,,,,,0,12,12,97,,,,,,,,,,,2,space,4,0.968,2.92359240001,,,,,,,,,,,,,,,,,,2019_Apr_11_1313,60.06139476024146,Cloud_Experiment_FR_REAL,001,33,
images/fcloud65-35_D1.7_9.tif,1.7,1,,,,,,,,,,,,,0,13,13,86,,,,,,,,,,,None,None,None,9.961,,,,,,,,,,,,,,,,,,,2019_Apr_11_1313,60.06139476024146,Cloud_Experiment_FR_REAL,001,33,
images/fcloud65-35_D1.1_7.tif,1.1,1,,,,,,,,,,,,,0,14,14,60,,,,,,,,,,,None,space,None,18.618,7.59328110001,,,,,,,,,,,,,,,,,,2019_Apr_11_1313,60.06139476024146,Cloud_Experiment_FR_REAL,001,33,
images/fcloud_D0.9_8.tif,0.9,0,,,,,,,,,,,,,0,15,15,5,,,,,,,,,,,1,None,1,0.47,,,,,,,,,,,,,,,,,,,2019_Apr_11_1313,60.06139476024146,Cloud_Experiment_FR_REAL,001,33,
images/fcloud65-35_D1.2_10.tif,1.2,1,,,,,,,,,,,,,0,16,16,67,,,,,,,,,,,None,None,None,9.629,,,,,,,,,,,,,,,,,,,2019_Apr_11_1313,60.06139476024146,Cloud_Experiment_FR_REAL,001,33,
images/fcloud80-20_D1.6_10.tif,1.6,2,,,,,,,,,,,,,0,17,17,131,,,,,,,,,,,1,space,1,0.585,7.84851950002,,,,,,,,,,,,,,,,,,2019_Apr_11_1313,60.06139476024146,Cloud_Experiment_FR_REAL,001,33,
images/fcloud_D1.6_7.tif,1.6,0,,,,,,,,,,,,,0,18,18,32,,,,,,,,,,,None,None,None,10.397,,,,,,,,,,,,,,,,,,,2019_Apr_11_1313,60.06139476024146,Cloud_Experiment_FR_REAL,001,33,
images/fcloud80-20_D1.9_8.tif,1.9,2,,,,,,,,,,,,,0,19,19,141,,,,,,,,,,,1,None,1,0.453,,,,,,,,,,,,,,,,,,,2019_Apr_11_1313,60.06139476024146,Cloud_Experiment_FR_REAL,001,33,
images/fcloud_D0.9_7.tif,0.9,0,,,,,,,,,,,,,0,20,20,4,,,,,,,,,,,2,space,2,1.268,5.62765810001,,,,,,,,,,,,,,,,,,2019_Apr_11_1313,60.06139476024146,Cloud_Experiment_FR_REAL,001,33,
images/fcloud_D0.9_9.tif,0.9,0,,,,,,,,,,,,,0,21,21,6,,,,,,,,,,,None,None,None,10.508,,,,,,,,,,,,,,,,,,,2019_Apr_11_1313,60.06139476024146,Cloud_Experiment_FR_REAL,001,33,
images/fcloud_D0.8_7.tif,0.8,0,,,,,,,,,,,,,0,22,22,0,,,,,,,,,,,None,None,None,20.716,,,,,,,,,,,,,,,,,,,2019_Apr_11_1313,60.06139476024146,Cloud_Experiment_FR_REAL,001,33,
images/fcloud80-20_D1.5_8.tif,1.5,2,,,,,,,,,,,,,0,23,23,125,,,,,,,,,,,None,None,None,28.993,,,,,,,,,,,,,,,,,,,2019_Apr_11_1313,60.06139476024146,Cloud_Experiment_FR_REAL,001,33,
images/fcloud65-35_D1.5_8.tif,1.5,1,,,,,,,,,,,,,0,24,24,77,,,,,,,,,,,1,space,2,0.6,2.9048936,,,,,,,,,,,,,,,,,,2019_Apr_11_1313,60.06139476024146,Cloud_Experiment_FR_REAL,001,33,
images/fcloud65-35_D0.8_8.tif,0.8,1,,,,,,,,,,,,,0,25,25,49,,,,,,,,,,,1,space,4,0.552,3.18384700001,,,,,,,,,,,,,,,,,,2019_Apr_11_1313,60.06139476024146,Cloud_Experiment_FR_REAL,001,33,
images/fcloud65-35_D1.3_9.tif,1.3,1,,,,,,,,,,,,,0,26,26,70,,,,,,,,,,,None,None,None,8.959,,,,,,,,,,,,,,,,,,,2019_Apr_11_1313,60.06139476024146,Cloud_Experiment_FR_REAL,001,33,
images/fcloud_D1.9_9.tif,1.9,0,,,,,,,,,,,,,0,27,27,46,,,,,,,,,,,None,None,None,17.269,,,,,,,,,,,,,,,,,,,2019_Apr_11_1313,60.06139476024146,Cloud_Experiment_FR_REAL,001,33,
images/fcloud80-20_D1.5_9.tif,1.5,2,,,,,,,,,,,,,0,28,28,126,,,,,,,,,,,1,space,1,1.684,5.7435826,,,,,,,,,,,,,,,,,,2019_Apr_11_1313,60.06139476024146,Cloud_Experiment_FR_REAL,001,33,
images/fcloud65-35_D1.1_9.tif,1.1,1,,,,,,,,,,,,,0,29,29,62,,,,,,,,,,,None,None,None,10.192,,,,,,,,,,,,,,,,,,,2019_Apr_11_1313,60.06139476024146,Cloud_Experiment_FR_REAL,001,33,
images/fcloud_D1.1_7.tif,1.1,0,,,,,,,,,,,,,0,30,30,12,,,,,,,,,,,None,None,None,18.454,,,,,,,,,,,,,,,,,,,2019_Apr_11_1313,60.06139476024146,Cloud_Experiment_FR_REAL,001,33,
images/fcloud80-20_D1.2_9.tif,1.2,2,,,,,,,,,,,,,0,31,31,114,,,,,,,,,,,None,None,None,26.83,,,,,,,,,,,,,,,,,,,2019_Apr_11_1313,60.06139476024146,Cloud_Experiment_FR_REAL,001,33,
images/fcloud_D1.9_10.tif,1.9,0,,,,,,,,,,,,,0,32,32,47,,,,,,,,,,,1,space,2,0.602,6.6591477,,,,,,,,,,,,,,,,,,2019_Apr_11_1313,60.06139476024146,Cloud_Experiment_FR_REAL,001,33,
images/fcloud_D1_10.tif,1.0,0,,,,,,,,,,,,,0,33,33,11,,,,,,,,,,,None,None,None,9.195,,,,,,,,,,,,,,,,,,,2019_Apr_11_1313,60.06139476024146,Cloud_Experiment_FR_REAL,001,33,
images/fcloud80-20_D1.3_8.tif,1.3,2,,,,,,,,,,,,,0,34,34,117,,,,,,,,,,,1,None,1,0.47,,,,,,,,,,,,,,,,,,,2019_Apr_11_1313,60.06139476024146,Cloud_Experiment_FR_REAL,001,33,
images/fcloud65-35_D0.8_9.tif,0.8,1,,,,,,,,,,,,,0,35,35,50,,,,,,,,,,,2,None,2,2.101,,,,,,,,,,,,,,,,,,,2019_Apr_11_1313,60.06139476024146,Cloud_Experiment_FR_REAL,001,33,
images/fcloud_D0.8_9.tif,0.8,0,,,,,,,,,,,,,0,36,36,2,,,,,,,,,,,None,None,None,10.842,,,,,,,,,,,,,,,,,,,2019_Apr_11_1313,60.06139476024146,Cloud_Experiment_FR_REAL,001,33,
images/fcloud80-20_D1.5_10.tif,1.5,2,,,,,,,,,,,,,0,37,37,127,,,,,,,,,,,None,None,None,21.088,,,,,,,,,,,,,,,,,,,2019_Apr_11_1313,60.06139476024146,Cloud_Experiment_FR_REAL,001,33,
images/fcloud65-35_D0.8_7.tif,0.8,1,,,,,,,,,,,,,0,38,38,48,,,,,,,,,,,1,space,2,0.668,4.57594179999,,,,,,,,,,,,,,,,,,2019_Apr_11_1313,60.06139476024146,Cloud_Experiment_FR_REAL,001,33,
images/fcloud_D1.2_10.tif,1.2,0,,,,,,,,,,,,,0,39,39,19,,,,,,,,,,,1,space,1,0.45,6.46178360001,,,,,,,,,,,,,,,,,,2019_Apr_11_1313,60.06139476024146,Cloud_Experiment_FR_REAL,001,33,
images/fcloud65-35_D1.2_7.tif,1.2,1,,,,,,,,,,,,,0,40,40,64,,,,,,,,,,,None,None,None,8.76,,,,,,,,,,,,,,,,,,,2019_Apr_11_1313,60.06139476024146,Cloud_Experiment_FR_REAL,001,33,
images/fcloud80-20_D1.4_8.tif,1.4,2,,,,,,,,,,,,,0,41,41,121,,,,,,,,,,,1,space,2,1.004,5.3781608,,,,,,,,,,,,,,,,,,2019_Apr_11_1313,60.06139476024146,Cloud_Experiment_FR_REAL,001,33,
images/fcloud80-20_D1.1_9.tif,1.1,2,,,,,,,,,,,,,0,42,42,110,,,,,,,,,,,1,space,2,1.753,4.16331430001,,,,,,,,,,,,,,,,,,2019_Apr_11_1313,60.06139476024146,Cloud_Experiment_FR_REAL,001,33,
images/fcloud65-35_D1.4_8.tif,1.4,1,,,,,,,,,,,,,0,43,43,73,,,,,,,,,,,None,None,None,10.061,,,,,,,,,,,,,,,,,,,2019_Apr_11_1313,60.06139476024146,Cloud_Experiment_FR_REAL,001,33,
images/fcloud_D1.3_8.tif,1.3,0,,,,,,,,,,,,,0,44,44,21,,,,,,,,,,,1,space,3,0.518,6.02794259999,,,,,,,,,,,,,,,,,,2019_Apr_11_1313,60.06139476024146,Cloud_Experiment_FR_REAL,001,33,
images/fcloud65-35_D0.9_7.tif,0.9,1,,,,,,,,,,,,,0,45,45,52,,,,,,,,,,,None,None,None,8.909,,,,,,,,,,,,,,,,,,,2019_Apr_11_1313,60.06139476024146,Cloud_Experiment_FR_REAL,001,33,
images/fcloud80-20_D1_8.tif,1.0,2,,,,,,,,,,,,,0,46,46,105,,,,,,,,,,,1,space,2,0.9,5.4381309,,,,,,,,,,,,,,,,,,2019_Apr_11_1313,60.06139476024146,Cloud_Experiment_FR_REAL,001,33,
images/fcloud65-35_D1.4_10.tif,1.4,1,,,,,,,,,,,,,0,47,47,75,,,,,,,,,,,1,space,3,1.235,2.5561938,,,,,,,,,,,,,,,,,,2019_Apr_11_1313,60.06139476024146,Cloud_Experiment_FR_REAL,001,33,
images/fcloud_D1.4_9.tif,1.4,0,,,,,,,,,,,,,0,48,48,26,,,,,,,,,,,1,None,1,0.452,,,,,,,,,,,,,,,,,,,2019_Apr_11_1313,60.06139476024146,Cloud_Experiment_FR_REAL,001,33,
images/fcloud65-35_D1.8_8.tif,1.8,1,,,,,,,,,,,,,0,49,49,89,,,,,,,,,,,None,None,None,8.828,,,,,,,,,,,,,,,,,,,2019_Apr_11_1313,60.06139476024146,Cloud_Experiment_FR_REAL,001,33,
images/fcloud_D1.1_9.tif,1.1,0,,,,,,,,,,,,,0,50,50,14,,,,,,,,,,,None,None,None,17.269,,,,,,,,,,,,,,,,,,,2019_Apr_11_1313,60.06139476024146,Cloud_Experiment_FR_REAL,001,33,
images/fcloud_D1.1_8.tif,1.1,0,,,,,,,,,,,,,0,51,51,13,,,,,,,,,,,1,space,2,0.651,6.95225450001,,,,,,,,,,,,,,,,,,2019_Apr_11_1313,60.06139476024146,Cloud_Experiment_FR_REAL,001,33,
images/fcloud65-35_D1.3_10.tif,1.3,1,,,,,,,,,,,,,0,52,52,71,,,,,,,,,,,None,None,None,9.727,,,,,,,,,,,,,,,,,,,2019_Apr_11_1313,60.06139476024146,Cloud_Experiment_FR_REAL,001,33,
images/fcloud80-20_D1.4_7.tif,1.4,2,,,,,,,,,,,,,0,53,53,120,,,,,,,,,,,1,space,1,1.933,7.57971970001,,,,,,,,,,,,,,,,,,2019_Apr_11_1313,60.06139476024146,Cloud_Experiment_FR_REAL,001,33,
images/fcloud80-20_D1.1_10.tif,1.1,2,,,,,,,,,,,,,0,54,54,111,,,,,,,,,,,None,None,None,10.426,,,,,,,,,,,,,,,,,,,2019_Apr_11_1313,60.06139476024146,Cloud_Experiment_FR_REAL,001,33,
images/fcloud_D1.4_10.tif,1.4,0,,,,,,,,,,,,,0,55,55,27,,,,,,,,,,,1,space,2,0.451,7.45379699999,,,,,,,,,,,,,,,,,,2019_Apr_11_1313,60.06139476024146,Cloud_Experiment_FR_REAL,001,33,
images/fcloud80-20_D1.8_7.tif,1.8,2,,,,,,,,,,,,,0,56,56,136,,,,,,,,,,,None,None,None,8.777,,,,,,,,,,,,,,,,,,,2019_Apr_11_1313,60.06139476024146,Cloud_Experiment_FR_REAL,001,33,
images/fcloud80-20_D1.3_7.tif,1.3,2,,,,,,,,,,,,,0,57,57,116,,,,,,,,,,,None,None,None,17.484,,,,,,,,,,,,,,,,,,,2019_Apr_11_1313,60.06139476024146,Cloud_Experiment_FR_REAL,001,33,
images/fcloud65-35_D1.1_8.tif,1.1,1,,,,,,,,,,,,,0,58,58,61,,,,,,,,,,,None,None,None,25.78,,,,,,,,,,,,,,,,,,,2019_Apr_11_1313,60.06139476024146,Cloud_Experiment_FR_REAL,001,33,
images/fcloud_D0.9_10.tif,0.9,0,,,,,,,,,,,,,0,59,59,7,,,,,,,,,,,1,space,2,0.885,6.59760770001,,,,,,,,,,,,,,,,,,2019_Apr_11_1313,60.06139476024146,Cloud_Experiment_FR_REAL,001,33,
images/fcloud80-20_D1.6_9.tif,1.6,2,,,,,,,,,,,,,0,60,60,130,,,,,,,,,,,None,None,None,9.226,,,,,,,,,,,,,,,,,,,2019_Apr_11_1313,60.06139476024146,Cloud_Experiment_FR_REAL,001,33,
images/fcloud80-20_D1.7_9.tif,1.7,2,,,,,,,,,,,,,0,61,61,134,,,,,,,,,,,None,None,None,17.571,,,,,,,,,,,,,,,,,,,2019_Apr_11_1313,60.06139476024146,Cloud_Experiment_FR_REAL,001,33,
images/fcloud65-35_D1.2_8.tif,1.2,1,,,,,,,,,,,,,0,62,62,65,,,,,,,,,,,1,space,3,1.502,3.6136328,,,,,,,,,,,,,,,,,,2019_Apr_11_1313,60.06139476024146,Cloud_Experiment_FR_REAL,001,33,
images/fcloud_D1.9_8.tif,1.9,0,,,,,,,,,,,,,0,63,63,45,,,,,,,,,,,None,None,None,9.792,,,,,,,,,,,,,,,,,,,2019_Apr_11_1313,60.06139476024146,Cloud_Experiment_FR_REAL,001,33,
images/fcloud65-35_D1.8_9.tif,1.8,1,,,,,,,,,,,,,0,64,64,90,,,,,,,,,,,None,None,None,18.687,,,,,,,,,,,,,,,,,,,2019_Apr_11_1313,60.06139476024146,Cloud_Experiment_FR_REAL,001,33,
images/fcloud65-35_D1.4_9.tif,1.4,1,,,,,,,,,,,,,0,65,65,74,,,,,,,,,,,1,None,1,1.685,,,,,,,,,,,,,,,,,,,2019_Apr_11_1313,60.06139476024146,Cloud_Experiment_FR_REAL,001,33,
images/fcloud_D1_9.tif,1.0,0,,,,,,,,,,,,,0,66,66,10,,,,,,,,,,,2,space,1,0.584,7.43728879999,,,,,,,,,,,,,,,,,,2019_Apr_11_1313,60.06139476024146,Cloud_Experiment_FR_REAL,001,33,
images/fcloud80-20_D1.9_9.tif,1.9,2,,,,,,,,,,,,,0,67,67,142,,,,,,,,,,,None,None,None,9.411,,,,,,,,,,,,,,,,,,,2019_Apr_11_1313,60.06139476024146,Cloud_Experiment_FR_REAL,001,33,
images/fcloud65-35_D1.7_8.tif,1.7,1,,,,,,,,,,,,,0,68,68,85,,,,,,,,,,,None,None,None,17.819,,,,,,,,,,,,,,,,,,,2019_Apr_11_1313,60.06139476024146,Cloud_Experiment_FR_REAL,001,33,
images/fcloud80-20_D0.8_9.tif,0.8,2,,,,,,,,,,,,,0,69,69,98,,,,,,,,,,,None,None,None,26.128,,,,,,,,,,,,,,,,,,,2019_Apr_11_1313,60.06139476024146,Cloud_Experiment_FR_REAL,001,33,
images/fcloud65-35_D1_9.tif,1.0,1,,,,,,,,,,,,,0,70,70,58,,,,,,,,,,,None,None,None,34.438,,,,,,,,,,,,,,,,,,,2019_Apr_11_1313,60.06139476024146,Cloud_Experiment_FR_REAL,001,33,
images/fcloud65-35_D0.9_10.tif,0.9,1,,,,,,,,,,,,,0,71,71,55,,,,,,,,,,,1,space,1,0.536,4.87691380002,,,,,,,,,,,,,,,,,,2019_Apr_11_1313,60.06139476024146,Cloud_Experiment_FR_REAL,001,33,
images/fcloud_D1.5_10.tif,1.5,0,,,,,,,,,,,,,0,72,72,31,,,,,,,,,,,1,space,2,2.134,4.0258913,,,,,,,,,,,,,,,,,,2019_Apr_11_1313,60.06139476024146,Cloud_Experiment_FR_REAL,001,33,
images/fcloud80-20_D1.4_9.tif,1.4,2,,,,,,,,,,,,,0,73,73,122,,,,,,,,,,,None,None,None,10.824,,,,,,,,,,,,,,,,,,,2019_Apr_11_1313,60.06139476024146,Cloud_Experiment_FR_REAL,001,33,
images/fcloud_D1.8_8.tif,1.8,0,,,,,,,,,,,,,0,74,74,41,,,,,,,,,,,None,None,None,19.202,,,,,,,,,,,,,,,,,,,2019_Apr_11_1313,60.06139476024146,Cloud_Experiment_FR_REAL,001,33,
images/fcloud80-20_D1.2_8.tif,1.2,2,,,,,,,,,,,,,0,75,75,113,,,,,,,,,,,1,space,1,0.551,6.60014989998,,,,,,,,,,,,,,,,,,2019_Apr_11_1313,60.06139476024146,Cloud_Experiment_FR_REAL,001,33,
images/fcloud_D1.1_10.tif,1.1,0,,,,,,,,,,,,,0,76,76,15,,,,,,,,,,,None,None,None,9.642,,,,,,,,,,,,,,,,,,,2019_Apr_11_1313,60.06139476024146,Cloud_Experiment_FR_REAL,001,33,
images/fcloud65-35_D1.8_7.tif,1.8,1,,,,,,,,,,,,,0,77,77,88,,,,,,,,,,,None,None,None,18.037,,,,,,,,,,,,,,,,,,,2019_Apr_11_1313,60.06139476024146,Cloud_Experiment_FR_REAL,001,33,
images/fcloud65-35_D0.8_10.tif,0.8,1,,,,,,,,,,,,,0,78,78,51,,,,,,,,,,,None,None,None,26.398,,,,,,,,,,,,,,,,,,,2019_Apr_11_1313,60.06139476024146,Cloud_Experiment_FR_REAL,001,33,
images/fcloud_D1.3_9.tif,1.3,0,,,,,,,,,,,,,0,79,79,22,,,,,,,,,,,1,space,2,0.571,3.54811810001,,,,,,,,,,,,,,,,,,2019_Apr_11_1313,60.06139476024146,Cloud_Experiment_FR_REAL,001,33,
images/fcloud65-35_D1_10.tif,1.0,1,,,,,,,,,,,,,0,80,80,59,,,,,,,,,,,None,None,None,8.963,,,,,,,,,,,,,,,,,,,2019_Apr_11_1313,60.06139476024146,Cloud_Experiment_FR_REAL,001,33,
images/fcloud80-20_D1.4_10.tif,1.4,2,,,,,,,,,,,,,0,81,81,123,,,,,,,,,,,None,None,None,18.735,,,,,,,,,,,,,,,,,,,2019_Apr_11_1313,60.06139476024146,Cloud_Experiment_FR_REAL,001,33,
images/fcloud65-35_D1.6_9.tif,1.6,1,,,,,,,,,,,,,0,82,82,82,,,,,,,,,,,None,None,None,27.612,,,,,,,,,,,,,,,,,,,2019_Apr_11_1313,60.06139476024146,Cloud_Experiment_FR_REAL,001,33,
images/fcloud_D1.8_9.tif,1.8,0,,,,,,,,,,,,,0,83,83,42,,,,,,,,,,,None,None,None,36.02,,,,,,,,,,,,,,,,,,,2019_Apr_11_1313,60.06139476024146,Cloud_Experiment_FR_REAL,001,33,
images/fcloud65-35_D1.4_7.tif,1.4,1,,,,,,,,,,,,,0,84,84,72,,,,,,,,,,,1,space,2,0.951,5.34519580001,,,,,,,,,,,,,,,,,,2019_Apr_11_1313,60.06139476024146,Cloud_Experiment_FR_REAL,001,33,
images/fcloud80-20_D1.9_7.tif,1.9,2,,,,,,,,,,,,,0,85,85,140,,,,,,,,,,,None,None,None,9.309,,,,,,,,,,,,,,,,,,,2019_Apr_11_1313,60.06139476024146,Cloud_Experiment_FR_REAL,001,33,
images/fcloud80-20_D1.7_10.tif,1.7,2,,,,,,,,,,,,,0,86,86,135,,,,,,,,,,,1,space,2,0.601,4.3567794,,,,,,,,,,,,,,,,,,2019_Apr_11_1313,60.06139476024146,Cloud_Experiment_FR_REAL,001,33,
images/fcloud_D1_7.tif,1.0,0,,,,,,,,,,,,,0,87,87,8,,,,,,,,,,,None,None,None,9.676,,,,,,,,,,,,,,,,,,,2019_Apr_11_1313,60.06139476024146,Cloud_Experiment_FR_REAL,001,33,
images/fcloud65-35_D1.6_7.tif,1.6,1,,,,,,,,,,,,,0,88,88,80,,,,,,,,,,,None,None,None,18.051,,,,,,,,,,,,,,,,,,,2019_Apr_11_1313,60.06139476024146,Cloud_Experiment_FR_REAL,001,33,
images/fcloud65-35_D1_7.tif,1.0,1,,,,,,,,,,,,,0,89,89,56,,,,,,,,,,,1,space,1,0.438,6.439943,,,,,,,,,,,,,,,,,,2019_Apr_11_1313,60.06139476024146,Cloud_Experiment_FR_REAL,001,33,
images/fcloud80-20_D1.8_8.tif,1.8,2,,,,,,,,,,,,,0,90,90,137,,,,,,,,,,,None,None,None,8.715,,,,,,,,,,,,,,,,,,,2019_Apr_11_1313,60.06139476024146,Cloud_Experiment_FR_REAL,001,33,
images/fcloud_D1.4_7.tif,1.4,0,,,,,,,,,,,,,0,91,91,24,,,,,,,,,,,1,space,2,0.569,3.18604299999,,,,,,,,,,,,,,,,,,2019_Apr_11_1313,60.06139476024146,Cloud_Experiment_FR_REAL,001,33,
images/fcloud_D1.8_7.tif,1.8,0,,,,,,,,,,,,,0,92,92,40,,,,,,,,,,,None,None,None,9.21,,,,,,,,,,,,,,,,,,,2019_Apr_11_1313,60.06139476024146,Cloud_Experiment_FR_REAL,001,33,
images/fcloud80-20_D1.5_7.tif,1.5,2,,,,,,,,,,,,,0,93,93,124,,,,,,,,,,,None,None,None,17.569,,,,,,,,,,,,,,,,,,,2019_Apr_11_1313,60.06139476024146,Cloud_Experiment_FR_REAL,001,33,
images/fcloud_D1.6_8.tif,1.6,0,,,,,,,,,,,,,0,94,94,33,,,,,,,,,,,1,space,1,0.468,5.69216059998,,,,,,,,,,,,,,,,,,2019_Apr_11_1313,60.06139476024146,Cloud_Experiment_FR_REAL,001,33,
images/fcloud_D1.8_10.tif,1.8,0,,,,,,,,,,,,,0,95,95,43,,,,,,,,,,,None,None,None,9.828,,,,,,,,,,,,,,,,,,,2019_Apr_11_1313,60.06139476024146,Cloud_Experiment_FR_REAL,001,33,
images/fcloud65-35_D1.6_10.tif,1.6,1,,,,,,,,,,,,,0,96,96,83,,,,,,,,,,,None,None,None,19.269,,,,,,,,,,,,,,,,,,,2019_Apr_11_1313,60.06139476024146,Cloud_Experiment_FR_REAL,001,33,
images/fcloud65-35_D1.8_10.tif,1.8,1,,,,,,,,,,,,,0,97,97,91,,,,,,,,,,,2,space,1,2.168,3.985414,,,,,,,,,,,,,,,,,,2019_Apr_11_1313,60.06139476024146,Cloud_Experiment_FR_REAL,001,33,
images/fcloud80-20_D1.7_7.tif,1.7,2,,,,,,,,,,,,,0,98,98,132,,,,,,,,,,,None,None,None,10.707,,,,,,,,,,,,,,,,,,,2019_Apr_11_1313,60.06139476024146,Cloud_Experiment_FR_REAL,001,33,
images/fcloud65-35_D1.9_7.tif,1.9,1,,,,,,,,,,,,,0,99,99,92,,,,,,,,,,,1,space,2,0.652,6.92339430001,,,,,,,,,,,,,,,,,,2019_Apr_11_1313,60.06139476024146,Cloud_Experiment_FR_REAL,001,33,
images/fcloud80-20_D1.6_7.tif,1.6,2,,,,,,,,,,,,,0,100,100,128,,,,,,,,,,,None,None,None,9.393,,,,,,,,,,,,,,,,,,,2019_Apr_11_1313,60.06139476024146,Cloud_Experiment_FR_REAL,001,33,
images/fcloud80-20_D1_10.tif,1.0,2,,,,,,,,,,,,,0,101,101,107,,,,,,,,,,,None,None,None,17.753,,,,,,,,,,,,,,,,,,,2019_Apr_11_1313,60.06139476024146,Cloud_Experiment_FR_REAL,001,33,
images/fcloud65-35_D1.3_7.tif,1.3,1,,,,,,,,,,,,,0,102,102,68,,,,,,,,,,,1,None,1,0.788,,,,,,,,,,,,,,,,,,,2019_Apr_11_1313,60.06139476024146,Cloud_Experiment_FR_REAL,001,33,
images/fcloud_D1.9_7.tif,1.9,0,,,,,,,,,,,,,0,103,103,44,,,,,,,,,,,None,None,None,9.41,,,,,,,,,,,,,,,,,,,2019_Apr_11_1313,60.06139476024146,Cloud_Experiment_FR_REAL,001,33,
images/fcloud80-20_D0.9_10.tif,0.9,2,,,,,,,,,,,,,0,104,104,103,,,,,,,,,,,None,None,None,17.685,,,,,,,,,,,,,,,,,,,2019_Apr_11_1313,60.06139476024146,Cloud_Experiment_FR_REAL,001,33,
images/fcloud65-35_D1.5_9.tif,1.5,1,,,,,,,,,,,,,0,105,105,78,,,,,,,,,,,1,space,1,0.52,7.06292110001,,,,,,,,,,,,,,,,,,2019_Apr_11_1313,60.06139476024146,Cloud_Experiment_FR_REAL,001,33,
images/fcloud65-35_D0.9_8.tif,0.9,1,,,,,,,,,,,,,0,106,106,53,,,,,,,,,,,1,space,1,0.805,6.3052844,,,,,,,,,,,,,,,,,,2019_Apr_11_1313,60.06139476024146,Cloud_Experiment_FR_REAL,001,33,
images/fcloud80-20_D0.8_7.tif,0.8,2,,,,,,,,,,,,,0,107,107,96,,,,,,,,,,,None,None,None,9.094,,,,,,,,,,,,,,,,,,,2019_Apr_11_1313,60.06139476024146,Cloud_Experiment_FR_REAL,001,33,
images/fcloud_D1.3_10.tif,1.3,0,,,,,,,,,,,,,0,108,108,23,,,,,,,,,,,None,space,None,17.651,5.89309279999,,,,,,,,,,,,,,,,,,2019_Apr_11_1313,60.06139476024146,Cloud_Experiment_FR_REAL,001,33,
images/fcloud_D1.6_9.tif,1.6,0,,,,,,,,,,,,,0,109,109,34,,,,,,,,,,,None,None,None,26.463,,,,,,,,,,,,,,,,,,,2019_Apr_11_1313,60.06139476024146,Cloud_Experiment_FR_REAL,001,33,
images/fcloud80-20_D0.9_7.tif,0.9,2,,,,,,,,,,,,,0,110,110,100,,,,,,,,,,,None,None,None,34.804,,,,,,,,,,,,,,,,,,,2019_Apr_11_1313,60.06139476024146,Cloud_Experiment_FR_REAL,001,33,
images/fcloud80-20_D1.3_10.tif,1.3,2,,,,,,,,,,,,,0,111,111,119,,,,,,,,,,,None,None,None,43.532,,,,,,,,,,,,,,,,,,,2019_Apr_11_1313,60.06139476024146,Cloud_Experiment_FR_REAL,001,33,
images/fcloud80-20_D1_7.tif,1.0,2,,,,,,,,,,,,,0,112,112,104,,,,,,,,,,,None,None,None,51.957,,,,,,,,,,,,,,,,,,,2019_Apr_11_1313,60.06139476024146,Cloud_Experiment_FR_REAL,001,33,
images/fcloud65-35_D1.7_7.tif,1.7,1,,,,,,,,,,,,,0,113,113,84,,,,,,,,,,,None,None,None,60.785,,,,,,,,,,,,,,,,,,,2019_Apr_11_1313,60.06139476024146,Cloud_Experiment_FR_REAL,001,33,
images/fcloud_D1.7_9.tif,1.7,0,,,,,,,,,,,,,0,114,114,38,,,,,,,,,,,None,None,None,69.773,,,,,,,,,,,,,,,,,,,2019_Apr_11_1313,60.06139476024146,Cloud_Experiment_FR_REAL,001,33,
images/fcloud80-20_D1.2_7.tif,1.2,2,,,,,,,,,,,,,0,115,115,112,,,,,,,,,,,None,None,None,78.099,,,,,,,,,,,,,,,,,,,2019_Apr_11_1313,60.06139476024146,Cloud_Experiment_FR_REAL,001,33,
images/fcloud_D1.7_10.tif,1.7,0,,,,,,,,,,,,,0,116,116,39,,,,,,,,,,,1,space,2,0.802,2.9962892,,,,,,,,,,,,,,,,,,2019_Apr_11_1313,60.06139476024146,Cloud_Experiment_FR_REAL,001,33,
images/fcloud_D1.2_8.tif,1.2,0,,,,,,,,,,,,,0,117,117,17,,,,,,,,,,,1,None,1,0.436,,,,,,,,,,,,,,,,,,,2019_Apr_11_1313,60.06139476024146,Cloud_Experiment_FR_REAL,001,33,
images/fcloud80-20_D0.9_9.tif,0.9,2,,,,,,,,,,,,,0,118,118,102,,,,,,,,,,,None,None,None,8.793,,,,,,,,,,,,,,,,,,,2019_Apr_11_1313,60.06139476024146,Cloud_Experiment_FR_REAL,001,33,
images/fcloud65-35_D1.7_10.tif,1.7,1,,,,,,,,,,,,,0,119,119,87,,,,,,,,,,,None,None,None,17.185,,,,,,,,,,,,,,,,,,,2019_Apr_11_1313,60.06139476024146,Cloud_Experiment_FR_REAL,001,33,
images/fcloud65-35_D1.6_8.tif,1.6,1,,,,,,,,,,,,,0,120,120,81,,,,,,,,,,,None,None,None,25.596,,,,,,,,,,,,,,,,,,,2019_Apr_11_1313,60.06139476024146,Cloud_Experiment_FR_REAL,001,33,
images/fcloud65-35_D1.5_10.tif,1.5,1,,,,,,,,,,,,,0,121,121,79,,,,,,,,,,,None,None,None,33.939,,,,,,,,,,,,,,,,,,,2019_Apr_11_1313,60.06139476024146,Cloud_Experiment_FR_REAL,001,33,
images/fcloud80-20_D1.1_8.tif,1.1,2,,,,,,,,,,,,,0,122,122,109,,,,,,,,,,,None,None,None,42.697,,,,,,,,,,,,,,,,,,,2019_Apr_11_1313,60.06139476024146,Cloud_Experiment_FR_REAL,001,33,
images/fcloud80-20_D1.6_8.tif,1.6,2,,,,,,,,,,,,,0,123,123,129,,,,,,,,,,,None,None,None,51.024,,,,,,,,,,,,,,,,,,,2019_Apr_11_1313,60.06139476024146,Cloud_Experiment_FR_REAL,001,33,
images/fcloud65-35_D0.9_9.tif,0.9,1,,,,,,,,,,,,,0,124,124,54,,,,,,,,,,,1,space,1,0.503,3.53017879999,,,,,,,,,,,,,,,,,,2019_Apr_11_1313,60.06139476024146,Cloud_Experiment_FR_REAL,001,33,
images/fcloud65-35_D1_8.tif,1.0,1,,,,,,,,,,,,,0,125,125,57,,,,,,,,,,,None,None,None,8.861,,,,,,,,,,,,,,,,,,,2019_Apr_11_1313,60.06139476024146,Cloud_Experiment_FR_REAL,001,33,
images/fcloud_D1.3_7.tif,1.3,0,,,,,,,,,,,,,0,126,126,20,,,,,,,,,,,None,None,None,17.221,,,,,,,,,,,,,,,,,,,2019_Apr_11_1313,60.06139476024146,Cloud_Experiment_FR_REAL,001,33,
images/fcloud80-20_D1_9.tif,1.0,2,,,,,,,,,,,,,0,127,127,106,,,,,,,,,,,1,space,2,0.484,4.9689368,,,,,,,,,,,,,,,,,,2019_Apr_11_1313,60.06139476024146,Cloud_Experiment_FR_REAL,001,33,
images/fcloud_D0.8_8.tif,0.8,0,,,,,,,,,,,,,0,128,128,1,,,,,,,,,,,None,None,None,8.842,,,,,,,,,,,,,,,,,,,2019_Apr_11_1313,60.06139476024146,Cloud_Experiment_FR_REAL,001,33,
images/fcloud80-20_D1.1_7.tif,1.1,2,,,,,,,,,,,,,0,129,129,108,,,,,,,,,,,None,None,None,17.152,,,,,,,,,,,,,,,,,,,2019_Apr_11_1313,60.06139476024146,Cloud_Experiment_FR_REAL,001,33,
images/fcloud65-35_D1.2_9.tif,1.2,1,,,,,,,,,,,,,0,130,130,66,,,,,,,,,,,None,None,None,25.461,,,,,,,,,,,,,,,,,,,2019_Apr_11_1313,60.06139476024146,Cloud_Experiment_FR_REAL,001,33,
images/fcloud65-35_D1.1_10.tif,1.1,1,,,,,,,,,,,,,0,131,131,63,,,,,,,,,,,None,None,None,33.82,,,,,,,,,,,,,,,,,,,2019_Apr_11_1313,60.06139476024146,Cloud_Experiment_FR_REAL,001,33,
images/fcloud_D1.6_10.tif,1.6,0,,,,,,,,,,,,,0,132,132,35,,,,,,,,,,,1,space,1,0.451,6.83507120001,,,,,,,,,,,,,,,,,,2019_Apr_11_1313,60.06139476024146,Cloud_Experiment_FR_REAL,001,33,
images/fcloud80-20_D1.7_8.tif,1.7,2,,,,,,,,,,,,,0,133,133,133,,,,,,,,,,,None,None,None,8.881,,,,,,,,,,,,,,,,,,,2019_Apr_11_1313,60.06139476024146,Cloud_Experiment_FR_REAL,001,33,
images/fcloud65-35_D1.9_10.tif,1.9,1,,,,,,,,,,,,,0,134,134,95,,,,,,,,,,,None,None,None,18.371,,,,,,,,,,,,,,,,,,,2019_Apr_11_1313,60.06139476024146,Cloud_Experiment_FR_REAL,001,33,
images/fcloud65-35_D1.9_9.tif,1.9,1,,,,,,,,,,,,,0,135,135,94,,,,,,,,,,,None,None,None,26.628,,,,,,,,,,,,,,,,,,,2019_Apr_11_1313,60.06139476024146,Cloud_Experiment_FR_REAL,001,33,
images/fcloud_D1.5_9.tif,1.5,0,,,,,,,,,,,,,0,136,136,30,,,,,,,,,,,1,space,1,2.135,5.05312130001,,,,,,,,,,,,,,,,,,2019_Apr_11_1313,60.06139476024146,Cloud_Experiment_FR_REAL,001,33,
images/fcloud80-20_D0.9_8.tif,0.9,2,,,,,,,,,,,,,0,137,137,101,,,,,,,,,,,None,None,None,11.076,,,,,,,,,,,,,,,,,,,2019_Apr_11_1313,60.06139476024146,Cloud_Experiment_FR_REAL,001,33,
images/fcloud65-35_D1.3_8.tif,1.3,1,,,,,,,,,,,,,0,138,138,69,,,,,,,,,,,None,None,None,19.555,,,,,,,,,,,,,,,,,,,2019_Apr_11_1313,60.06139476024146,Cloud_Experiment_FR_REAL,001,33,
images/fcloud_D1.2_9.tif,1.2,0,,,,,,,,,,,,,0,139,139,18,,,,,,,,,,,None,None,None,28.145,,,,,,,,,,,,,,,,,,,2019_Apr_11_1313,60.06139476024146,Cloud_Experiment_FR_REAL,001,33,
images/fcloud_D1.5_8.tif,1.5,0,,,,,,,,,,,,,0,140,140,29,,,,,,,,,,,None,None,None,36.437,,,,,,,,,,,,,,,,,,,2019_Apr_11_1313,60.06139476024146,Cloud_Experiment_FR_REAL,001,33,
images/fcloud_D1.7_7.tif,1.7,0,,,,,,,,,,,,,0,141,141,36,,,,,,,,,,,None,None,None,44.746,,,,,,,,,,,,,,,,,,,2019_Apr_11_1313,60.06139476024146,Cloud_Experiment_FR_REAL,001,33,
images/fcloud65-35_D1.9_8.tif,1.9,1,,,,,,,,,,,,,0,142,142,93,,,,,,,,,,,None,None,None,53.006,,,,,,,,,,,,,,,,,,,2019_Apr_11_1313,60.06139476024146,Cloud_Experiment_FR_REAL,001,33,
images/fcloud80-20_D1.8_9.tif,1.8,2,,,,,,,,,,,,,0,143,143,138,,,,,,,,,,,None,None,None,61.234,,,,,,,,,,,,,,,,,,,2019_Apr_11_1313,60.06139476024146,Cloud_Experiment_FR_REAL,001,33,
,,,,,,,,,,,,,,,,,,,,,,,,,4,11.771,,,,,,,,,,,,,,,,,,,,,,,,,2019_Apr_11_1313,60.06139476024146,Cloud_Experiment_FR_REAL,001,33,
,,,,,,,,,,,,,,,,,,,,,,,,,,,,,,,,,,5,,,,,,,,,,,,,,,,,2019_Apr_11_1313,60.06139476024146,Cloud_Experiment_FR_REAL,001,33,
,,,,,,,,,,,,,,,,,,,,,,,,,,,,,,,,,,,3,,,,,,,,,,,,,,,,2019_Apr_11_1313,60.06139476024146,Cloud_Experiment_FR_REAL,001,33,
,,,,,,,,,,,,,,,,,,,,,,,,,,,,,,,,,,,,6,,,,,,,,,,,,,,,2019_Apr_11_1313,60.06139476024146,Cloud_Experiment_FR_REAL,001,33,
,,,,,,,,,,,,,,,,,,,,,,,,,,,,,,,,,,,,,3,,,,,,,,,,,,,,2019_Apr_11_1313,60.06139476024146,Cloud_Experiment_FR_REAL,001,33,
,,,,,,,,,,,,,,,,,,,,,,,,,,,,,,,,,,,,,,3,,,,,,,,,,,,,2019_Apr_11_1313,60.06139476024146,Cloud_Experiment_FR_REAL,001,33,
,,,,,,,,,,,,,,,,,,,,,,,,,,,,,,,,,,,,,,,7,,,,,,,,,,,,2019_Apr_11_1313,60.06139476024146,Cloud_Experiment_FR_REAL,001,33,
,,,,,,,,,,,,,,,,,,,,,,,,,,,,,,,,,,,,,,,,5,,,,,,,,,,,2019_Apr_11_1313,60.06139476024146,Cloud_Experiment_FR_REAL,001,33,
,,,,,,,,,,,,,,,,,,,,,,,,,,,,,,,,,,,,,,,,,7,,,,,,,,,,2019_Apr_11_1313,60.06139476024146,Cloud_Experiment_FR_REAL,001,33,
,,,,,,,,,,,,,,,,,,,,,,,,,,,,,,,,,,,,,,,,,,7,,,,,,,,,2019_Apr_11_1313,60.06139476024146,Cloud_Experiment_FR_REAL,001,33,
,,,,,,,,,,,,,,,,,,,,,,,,,,,,,,,,,,,,,,,,,,,7,,,,,,,,2019_Apr_11_1313,60.06139476024146,Cloud_Experiment_FR_REAL,001,33,
,,,,,,,,,,,,,,,,,,,,,,,,,,,,,,,,,,,,,,,,,,,,,,,,,,3,2019_Apr_11_1313,60.06139476024146,Cloud_Experiment_FR_REAL,001,33,
