ImageFile,FD,Contrast,trials_4.thisRepN,trials_4.thisTrialN,trials_4.thisN,trials_4.thisIndex,trials.thisRepN,trials.thisTrialN,trials.thisN,trials.thisIndex,trials_2.thisRepN,trials_2.thisTrialN,trials_2.thisN,trials_2.thisIndex,trials_3.thisRepN,trials_3.thisTrialN,trials_3.thisN,trials_3.thisIndex,end_instructions.keys,end_instructions.rt,key_resp_4.keys,key_resp_4.rt,key_resp_6.keys,key_resp_6.rt,Fatigue.response,Fatigue.rt,key_resp_5.keys,key_resp_5.rt,n_objets.response,reaction_time.keys,reaction_time.rt,vividness.response,vividness.rt,Flow01.response,Flow02.response,Flow03.response,Flow04.response,Flow05.response,Flow06.response,Flow07.response,Flow08.response,Flow09.response,Flow10.response,key_resp_2.keys,key_resp_2.rt,key_resp_8.keys,key_resp_8.rt,key_resp_3.keys,key_resp_3.rt,Redondance_question.response,date,frameRate,expName,session,participant,
,,,,,,,,,,,,,,,,,,,space,35.2920904,,,,,,,,,,,,,,,,,,,,,,,,,,,,,,,2019_Apr_11_1426,60.5399802960245,Cloud_Experiment_FR_REAL,001,34,
,,,,,,,,,,,,,,,,,,,,,space,10.8799681,,,,,,,,,,,,,,,,,,,,,,,,,,,,,2019_Apr_11_1426,60.5399802960245,Cloud_Experiment_FR_REAL,001,34,
,,,,,,,,,,,,,,,,,,,,,,,space,37.9014569,,,,,,,,,,,,,,,,,,,,,,,,,,,2019_Apr_11_1426,60.5399802960245,Cloud_Experiment_FR_REAL,001,34,
,,,,,,,,,,,,,,,,,,,,,,,,,3,9.912,,,,,,,,,,,,,,,,,,,,,,,,,2019_Apr_11_1426,60.5399802960245,Cloud_Experiment_FR_REAL,001,34,
,,,,,,,,,,,,,,,,,,,,,,,,,,,space,3.62935,,,,,,,,,,,,,,,,,,,,,,,2019_Apr_11_1426,60.5399802960245,Cloud_Experiment_FR_REAL,001,34,
pratique/fcloud65-35_D1.3_30,1.3,1,0,0,0,6,,,,,,,,,,,,,,,,,,,,,,,2,space,0.189025899977,1,6.647,,,,,,,,,,,,,,,,,,2019_Apr_11_1426,60.5399802960245,Cloud_Experiment_FR_REAL,001,34,
pratique/fcloud80-20_D1.8_30,1.8,2,0,1,1,4,,,,,,,,,,,,,,,,,,,,,,,None,None,,None,19.587,,,,,,,,,,,,,,,,,,2019_Apr_11_1426,60.5399802960245,Cloud_Experiment_FR_REAL,001,34,
pratique/fcloud65-35_D1.2_30,1.2,1,0,2,2,3,,,,,,,,,,,,,,,,,,,,,,,2,space,5.51072429999,1,0.901,,,,,,,,,,,,,,,,,,2019_Apr_11_1426,60.5399802960245,Cloud_Experiment_FR_REAL,001,34,
pratique/fcloud65-35_D1.9_29,1.9,1,0,3,3,7,,,,,,,,,,,,,,,,,,,,,,,1,space,5.62366769998,3,0.917,,,,,,,,,,,,,,,,,,2019_Apr_11_1426,60.5399802960245,Cloud_Experiment_FR_REAL,001,34,
pratique/fcloud80-20_D1_30,1.0,2,0,4,4,9,,,,,,,,,,,,,,,,,,,,,,,2,space,5.09539239999,5,5.648,,,,,,,,,,,,,,,,,,2019_Apr_11_1426,60.5399802960245,Cloud_Experiment_FR_REAL,001,34,
pratique/fcloud_D1.6_28,1.6,0,0,5,5,5,,,,,,,,,,,,,,,,,,,,,,,2,space,4.05395870001,3,4.633,,,,,,,,,,,,,,,,,,2019_Apr_11_1426,60.5399802960245,Cloud_Experiment_FR_REAL,001,34,
pratique/fcloud_D1.4_30,1.4,0,0,6,6,1,,,,,,,,,,,,,,,,,,,,,,,1,space,4.9872989,1,1.866,,,,,,,,,,,,,,,,,,2019_Apr_11_1426,60.5399802960245,Cloud_Experiment_FR_REAL,001,34,
pratique/fcloud65-35_D1.6_30,1.6,1,0,7,7,2,,,,,,,,,,,,,,,,,,,,,,,None,None,,None,11.241,,,,,,,,,,,,,,,,,,2019_Apr_11_1426,60.5399802960245,Cloud_Experiment_FR_REAL,001,34,
pratique/fcloud_D0.8_30,0.8,0,0,8,8,0,,,,,,,,,,,,,,,,,,,,,,,3,space,4.8646376,4,3.433,,,,,,,,,,,,,,,,,,2019_Apr_11_1426,60.5399802960245,Cloud_Experiment_FR_REAL,001,34,
pratique/fcloud80-20_D1.5_30,1.5,2,0,9,9,8,,,,,,,,,,,,,,,,,,,,,,,None,None,,None,13.424,,,,,,,,,,,,,,,,,,2019_Apr_11_1426,60.5399802960245,Cloud_Experiment_FR_REAL,001,34,
,,,,,,,,,,,,,,,,,,,,,,,,,,,,,,,,,,3,,,,,,,,,,,,,,,,,2019_Apr_11_1426,60.5399802960245,Cloud_Experiment_FR_REAL,001,34,
,,,,,,,,,,,,,,,,,,,,,,,,,,,,,,,,,,,3,,,,,,,,,,,,,,,,2019_Apr_11_1426,60.5399802960245,Cloud_Experiment_FR_REAL,001,34,
,,,,,,,,,,,,,,,,,,,,,,,,,,,,,,,,,,,,6,,,,,,,,,,,,,,,2019_Apr_11_1426,60.5399802960245,Cloud_Experiment_FR_REAL,001,34,
,,,,,,,,,,,,,,,,,,,,,,,,,,,,,,,,,,,,,3,,,,,,,,,,,,,,2019_Apr_11_1426,60.5399802960245,Cloud_Experiment_FR_REAL,001,34,
,,,,,,,,,,,,,,,,,,,,,,,,,,,,,,,,,,,,,,2,,,,,,,,,,,,,2019_Apr_11_1426,60.5399802960245,Cloud_Experiment_FR_REAL,001,34,
,,,,,,,,,,,,,,,,,,,,,,,,,,,,,,,,,,,,,,,4,,,,,,,,,,,,2019_Apr_11_1426,60.5399802960245,Cloud_Experiment_FR_REAL,001,34,
,,,,,,,,,,,,,,,,,,,,,,,,,,,,,,,,,,,,,,,,3,,,,,,,,,,,2019_Apr_11_1426,60.5399802960245,Cloud_Experiment_FR_REAL,001,34,
,,,,,,,,,,,,,,,,,,,,,,,,,,,,,,,,,,,,,,,,,7,,,,,,,,,,2019_Apr_11_1426,60.5399802960245,Cloud_Experiment_FR_REAL,001,34,
,,,,,,,,,,,,,,,,,,,,,,,,,,,,,,,,,,,,,,,,,,5,,,,,,,,,2019_Apr_11_1426,60.5399802960245,Cloud_Experiment_FR_REAL,001,34,
,,,,,,,,,,,,,,,,,,,,,,,,,,,,,,,,,,,,,,,,,,,3,,,,,,,,2019_Apr_11_1426,60.5399802960245,Cloud_Experiment_FR_REAL,001,34,
,,,,,,,,,,,,,,,,,,,,,,,,,,,,,,,,,,,,,,,,,,,,space,1.83311979999,,,,,,2019_Apr_11_1426,60.5399802960245,Cloud_Experiment_FR_REAL,001,34,
images/fcloud80-20_D1.1_3.tif,1.1,2,,,,,0,0,0,83,,,,,,,,,,,,,,,,,,,2,space,3.3369962,2,3.782,,,,,,,,,,,,,,,,,,2019_Apr_11_1426,60.5399802960245,Cloud_Experiment_FR_REAL,001,34,
images/fcloud80-20_D1.5_3.tif,1.5,2,,,,,0,1,1,95,,,,,,,,,,,,,,,,,,,None,None,,None,13.374,,,,,,,,,,,,,,,,,,2019_Apr_11_1426,60.5399802960245,Cloud_Experiment_FR_REAL,001,34,
images/fcloud80-20_D1.7_1.tif,1.7,2,,,,,0,2,2,99,,,,,,,,,,,,,,,,,,,2,space,4.05001870001,1,1.084,,,,,,,,,,,,,,,,,,2019_Apr_11_1426,60.5399802960245,Cloud_Experiment_FR_REAL,001,34,
images/fcloud80-20_D1.8_1.tif,1.8,2,,,,,0,3,3,102,,,,,,,,,,,,,,,,,,,None,None,,None,10.408,,,,,,,,,,,,,,,,,,2019_Apr_11_1426,60.5399802960245,Cloud_Experiment_FR_REAL,001,34,
images/fcloud_D1.8_3.tif,1.8,0,,,,,0,4,4,32,,,,,,,,,,,,,,,,,,,2,space,3.439682,4,2.833,,,,,,,,,,,,,,,,,,2019_Apr_11_1426,60.5399802960245,Cloud_Experiment_FR_REAL,001,34,
images/fcloud80-20_D1.3_2.tif,1.3,2,,,,,0,5,5,88,,,,,,,,,,,,,,,,,,,1,space,3.07691079998,1,0.835,,,,,,,,,,,,,,,,,,2019_Apr_11_1426,60.5399802960245,Cloud_Experiment_FR_REAL,001,34,
images/fcloud_D0.8_2.tif,0.8,0,,,,,0,6,6,1,,,,,,,,,,,,,,,,,,,2,space,1.57521320001,3,2.917,,,,,,,,,,,,,,,,,,2019_Apr_11_1426,60.5399802960245,Cloud_Experiment_FR_REAL,001,34,
images/fcloud80-20_D1.2_3.tif,1.2,2,,,,,0,7,7,86,,,,,,,,,,,,,,,,,,,3,space,2.6451271,3,2.448,,,,,,,,,,,,,,,,,,2019_Apr_11_1426,60.5399802960245,Cloud_Experiment_FR_REAL,001,34,
images/fcloud65-35_D1_2.tif,1.0,1,,,,,0,8,8,43,,,,,,,,,,,,,,,,,,,3,space,1.79471009999,3,1.318,,,,,,,,,,,,,,,,,,2019_Apr_11_1426,60.5399802960245,Cloud_Experiment_FR_REAL,001,34,
images/fcloud_D1.5_1.tif,1.5,0,,,,,0,9,9,21,,,,,,,,,,,,,,,,,,,1,space,6.4623931,1,1.682,,,,,,,,,,,,,,,,,,2019_Apr_11_1426,60.5399802960245,Cloud_Experiment_FR_REAL,001,34,
images/fcloud80-20_D0.8_1.tif,0.8,2,,,,,0,10,10,72,,,,,,,,,,,,,,,,,,,2,space,3.61340249999,2,1.287,,,,,,,,,,,,,,,,,,2019_Apr_11_1426,60.5399802960245,Cloud_Experiment_FR_REAL,001,34,
images/fcloud80-20_D1.2_2.tif,1.2,2,,,,,0,11,11,85,,,,,,,,,,,,,,,,,,,None,None,,None,10.526,,,,,,,,,,,,,,,,,,2019_Apr_11_1426,60.5399802960245,Cloud_Experiment_FR_REAL,001,34,
images/fcloud65-35_D1.4_2.tif,1.4,1,,,,,0,12,12,55,,,,,,,,,,,,,,,,,,,1,space,4.33667649998,1,0.869,,,,,,,,,,,,,,,,,,2019_Apr_11_1426,60.5399802960245,Cloud_Experiment_FR_REAL,001,34,
images/fcloud_D1_1.tif,1.0,0,,,,,0,13,13,6,,,,,,,,,,,,,,,,,,,None,None,,None,10.597,,,,,,,,,,,,,,,,,,2019_Apr_11_1426,60.5399802960245,Cloud_Experiment_FR_REAL,001,34,
images/fcloud80-20_D1.9_2.tif,1.9,2,,,,,0,14,14,106,,,,,,,,,,,,,,,,,,,None,None,,None,20.151,,,,,,,,,,,,,,,,,,2019_Apr_11_1426,60.5399802960245,Cloud_Experiment_FR_REAL,001,34,
images/fcloud_D1.5_3.tif,1.5,0,,,,,0,15,15,23,,,,,,,,,,,,,,,,,,,None,None,,None,29.542,,,,,,,,,,,,,,,,,,2019_Apr_11_1426,60.5399802960245,Cloud_Experiment_FR_REAL,001,34,
images/fcloud_D1.4_2.tif,1.4,0,,,,,0,16,16,19,,,,,,,,,,,,,,,,,,,2,space,3.3925546,3,1.051,,,,,,,,,,,,,,,,,,2019_Apr_11_1426,60.5399802960245,Cloud_Experiment_FR_REAL,001,34,
images/fcloud65-35_D1.8_1.tif,1.8,1,,,,,0,17,17,66,,,,,,,,,,,,,,,,,,,2,space,2.9680614,2,1.866,,,,,,,,,,,,,,,,,,2019_Apr_11_1426,60.5399802960245,Cloud_Experiment_FR_REAL,001,34,
images/fcloud_D1.9_3.tif,1.9,0,,,,,0,18,18,35,,,,,,,,,,,,,,,,,,,2,space,4.42057029999,1,0.785,,,,,,,,,,,,,,,,,,2019_Apr_11_1426,60.5399802960245,Cloud_Experiment_FR_REAL,001,34,
images/fcloud65-35_D1.9_1.tif,1.9,1,,,,,0,19,19,69,,,,,,,,,,,,,,,,,,,None,None,,None,10.427,,,,,,,,,,,,,,,,,,2019_Apr_11_1426,60.5399802960245,Cloud_Experiment_FR_REAL,001,34,
images/fcloud_D1.7_2.tif,1.7,0,,,,,0,20,20,28,,,,,,,,,,,,,,,,,,,2,space,1.87443660002,4,2.235,,,,,,,,,,,,,,,,,,2019_Apr_11_1426,60.5399802960245,Cloud_Experiment_FR_REAL,001,34,
images/fcloud80-20_D1.8_3.tif,1.8,2,,,,,0,21,21,104,,,,,,,,,,,,,,,,,,,None,None,,None,11.342,,,,,,,,,,,,,,,,,,2019_Apr_11_1426,60.5399802960245,Cloud_Experiment_FR_REAL,001,34,
images/fcloud80-20_D1.4_3.tif,1.4,2,,,,,0,22,22,92,,,,,,,,,,,,,,,,,,,1,None,,1,0.935,,,,,,,,,,,,,,,,,,2019_Apr_11_1426,60.5399802960245,Cloud_Experiment_FR_REAL,001,34,
images/fcloud65-35_D0.8_2.tif,0.8,1,,,,,0,23,23,37,,,,,,,,,,,,,,,,,,,None,None,,None,11.307,,,,,,,,,,,,,,,,,,2019_Apr_11_1426,60.5399802960245,Cloud_Experiment_FR_REAL,001,34,
images/fcloud_D1.6_3.tif,1.6,0,,,,,0,24,24,26,,,,,,,,,,,,,,,,,,,2,space,4.95991939999,2,2.883,,,,,,,,,,,,,,,,,,2019_Apr_11_1426,60.5399802960245,Cloud_Experiment_FR_REAL,001,34,
images/fcloud_D1.4_3.tif,1.4,0,,,,,0,25,25,20,,,,,,,,,,,,,,,,,,,2,space,4.15424789998,2,1.202,,,,,,,,,,,,,,,,,,2019_Apr_11_1426,60.5399802960245,Cloud_Experiment_FR_REAL,001,34,
images/fcloud65-35_D1.8_3.tif,1.8,1,,,,,0,26,26,68,,,,,,,,,,,,,,,,,,,1,space,5.74856510002,5,3.25,,,,,,,,,,,,,,,,,,2019_Apr_11_1426,60.5399802960245,Cloud_Experiment_FR_REAL,001,34,
images/fcloud_D1.2_1.tif,1.2,0,,,,,0,27,27,12,,,,,,,,,,,,,,,,,,,1,space,4.93097079999,1,0.884,,,,,,,,,,,,,,,,,,2019_Apr_11_1426,60.5399802960245,Cloud_Experiment_FR_REAL,001,34,
images/fcloud80-20_D1.5_2.tif,1.5,2,,,,,0,28,28,94,,,,,,,,,,,,,,,,,,,1,space,5.27962849999,1,0.937,,,,,,,,,,,,,,,,,,2019_Apr_11_1426,60.5399802960245,Cloud_Experiment_FR_REAL,001,34,
images/fcloud80-20_D0.9_3.tif,0.9,2,,,,,0,29,29,77,,,,,,,,,,,,,,,,,,,2,space,7.0023588,1,1.201,,,,,,,,,,,,,,,,,,2019_Apr_11_1426,60.5399802960245,Cloud_Experiment_FR_REAL,001,34,
images/fcloud80-20_D1.8_2.tif,1.8,2,,,,,0,30,30,103,,,,,,,,,,,,,,,,,,,2,space,3.9611059,1,1.068,,,,,,,,,,,,,,,,,,2019_Apr_11_1426,60.5399802960245,Cloud_Experiment_FR_REAL,001,34,
images/fcloud80-20_D1.3_1.tif,1.3,2,,,,,0,31,31,87,,,,,,,,,,,,,,,,,,,2,space,5.93488460002,1,1.468,,,,,,,,,,,,,,,,,,2019_Apr_11_1426,60.5399802960245,Cloud_Experiment_FR_REAL,001,34,
images/fcloud80-20_D1_3.tif,1.0,2,,,,,0,32,32,80,,,,,,,,,,,,,,,,,,,1,space,6.31664199999,1,0.785,,,,,,,,,,,,,,,,,,2019_Apr_11_1426,60.5399802960245,Cloud_Experiment_FR_REAL,001,34,
images/fcloud_D1_3.tif,1.0,0,,,,,0,33,33,8,,,,,,,,,,,,,,,,,,,None,None,,None,10.209,,,,,,,,,,,,,,,,,,2019_Apr_11_1426,60.5399802960245,Cloud_Experiment_FR_REAL,001,34,
images/fcloud_D0.8_1.tif,0.8,0,,,,,0,34,34,0,,,,,,,,,,,,,,,,,,,1,space,2.09750229999,5,2.85,,,,,,,,,,,,,,,,,,2019_Apr_11_1426,60.5399802960245,Cloud_Experiment_FR_REAL,001,34,
images/fcloud_D1.3_1.tif,1.3,0,,,,,0,35,35,15,,,,,,,,,,,,,,,,,,,1,space,5.89470450001,3,1.067,,,,,,,,,,,,,,,,,,2019_Apr_11_1426,60.5399802960245,Cloud_Experiment_FR_REAL,001,34,
images/fcloud_D1.3_3.tif,1.3,0,,,,,0,36,36,17,,,,,,,,,,,,,,,,,,,2,space,1.37772699998,4,2.649,,,,,,,,,,,,,,,,,,2019_Apr_11_1426,60.5399802960245,Cloud_Experiment_FR_REAL,001,34,
images/fcloud80-20_D1.4_2.tif,1.4,2,,,,,0,37,37,91,,,,,,,,,,,,,,,,,,,1,space,7.74867059998,1,0.802,,,,,,,,,,,,,,,,,,2019_Apr_11_1426,60.5399802960245,Cloud_Experiment_FR_REAL,001,34,
images/fcloud65-35_D0.8_3.tif,0.8,1,,,,,0,38,38,38,,,,,,,,,,,,,,,,,,,1,space,4.47506219998,1,0.768,,,,,,,,,,,,,,,,,,2019_Apr_11_1426,60.5399802960245,Cloud_Experiment_FR_REAL,001,34,
images/fcloud80-20_D1_2.tif,1.0,2,,,,,0,39,39,79,,,,,,,,,,,,,,,,,,,None,None,,None,10.51,,,,,,,,,,,,,,,,,,2019_Apr_11_1426,60.5399802960245,Cloud_Experiment_FR_REAL,001,34,
images/fcloud80-20_D1.1_1.tif,1.1,2,,,,,0,40,40,81,,,,,,,,,,,,,,,,,,,1,space,6.6334392,1,2.349,,,,,,,,,,,,,,,,,,2019_Apr_11_1426,60.5399802960245,Cloud_Experiment_FR_REAL,001,34,
images/fcloud_D0.9_1.tif,0.9,0,,,,,0,41,41,3,,,,,,,,,,,,,,,,,,,1,space,5.30675270001,4,1.319,,,,,,,,,,,,,,,,,,2019_Apr_11_1426,60.5399802960245,Cloud_Experiment_FR_REAL,001,34,
images/fcloud_D1.1_2.tif,1.1,0,,,,,0,42,42,10,,,,,,,,,,,,,,,,,,,1,space,2.65001889999,2,0.668,,,,,,,,,,,,,,,,,,2019_Apr_11_1426,60.5399802960245,Cloud_Experiment_FR_REAL,001,34,
images/fcloud65-35_D1.7_1.tif,1.7,1,,,,,0,43,43,63,,,,,,,,,,,,,,,,,,,1,space,1.95965779998,2,1.818,,,,,,,,,,,,,,,,,,2019_Apr_11_1426,60.5399802960245,Cloud_Experiment_FR_REAL,001,34,
images/fcloud_D1_2.tif,1.0,0,,,,,0,44,44,7,,,,,,,,,,,,,,,,,,,1,space,7.7061029,3,1.234,,,,,,,,,,,,,,,,,,2019_Apr_11_1426,60.5399802960245,Cloud_Experiment_FR_REAL,001,34,
images/fcloud_D1.2_2.tif,1.2,0,,,,,0,45,45,13,,,,,,,,,,,,,,,,,,,2,space,1.6787735,3,0.702,,,,,,,,,,,,,,,,,,2019_Apr_11_1426,60.5399802960245,Cloud_Experiment_FR_REAL,001,34,
images/fcloud65-35_D1.2_2.tif,1.2,1,,,,,0,46,46,49,,,,,,,,,,,,,,,,,,,3,space,4.87097620001,2,0.752,,,,,,,,,,,,,,,,,,2019_Apr_11_1426,60.5399802960245,Cloud_Experiment_FR_REAL,001,34,
images/fcloud80-20_D1.9_1.tif,1.9,2,,,,,0,47,47,105,,,,,,,,,,,,,,,,,,,None,None,,None,10.343,,,,,,,,,,,,,,,,,,2019_Apr_11_1426,60.5399802960245,Cloud_Experiment_FR_REAL,001,34,
images/fcloud80-20_D1.9_3.tif,1.9,2,,,,,0,48,48,107,,,,,,,,,,,,,,,,,,,None,None,,None,19.651,,,,,,,,,,,,,,,,,,2019_Apr_11_1426,60.5399802960245,Cloud_Experiment_FR_REAL,001,34,
images/fcloud65-35_D1.9_3.tif,1.9,1,,,,,0,49,49,71,,,,,,,,,,,,,,,,,,,2,space,4.7563066,1,0.667,,,,,,,,,,,,,,,,,,2019_Apr_11_1426,60.5399802960245,Cloud_Experiment_FR_REAL,001,34,
images/fcloud80-20_D0.8_3.tif,0.8,2,,,,,0,50,50,74,,,,,,,,,,,,,,,,,,,1,space,1.19430609999,1,0.703,,,,,,,,,,,,,,,,,,2019_Apr_11_1426,60.5399802960245,Cloud_Experiment_FR_REAL,001,34,
images/fcloud65-35_D1.3_1.tif,1.3,1,,,,,0,51,51,51,,,,,,,,,,,,,,,,,,,1,space,7.09232500001,2,0.966,,,,,,,,,,,,,,,,,,2019_Apr_11_1426,60.5399802960245,Cloud_Experiment_FR_REAL,001,34,
images/fcloud80-20_D1_1.tif,1.0,2,,,,,0,52,52,78,,,,,,,,,,,,,,,,,,,1,None,,2,1.552,,,,,,,,,,,,,,,,,,2019_Apr_11_1426,60.5399802960245,Cloud_Experiment_FR_REAL,001,34,
images/fcloud_D0.9_3.tif,0.9,0,,,,,0,53,53,5,,,,,,,,,,,,,,,,,,,2,space,5.1076468,3,2.333,,,,,,,,,,,,,,,,,,2019_Apr_11_1426,60.5399802960245,Cloud_Experiment_FR_REAL,001,34,
images/fcloud65-35_D1.5_3.tif,1.5,1,,,,,0,54,54,59,,,,,,,,,,,,,,,,,,,None,None,,None,12.123,,,,,,,,,,,,,,,,,,2019_Apr_11_1426,60.5399802960245,Cloud_Experiment_FR_REAL,001,34,
images/fcloud65-35_D1.1_1.tif,1.1,1,,,,,0,55,55,45,,,,,,,,,,,,,,,,,,,1,space,6.2083227,5,1.217,,,,,,,,,,,,,,,,,,2019_Apr_11_1426,60.5399802960245,Cloud_Experiment_FR_REAL,001,34,
images/fcloud65-35_D1.7_2.tif,1.7,1,,,,,0,56,56,64,,,,,,,,,,,,,,,,,,,None,None,,None,10.793,,,,,,,,,,,,,,,,,,2019_Apr_11_1426,60.5399802960245,Cloud_Experiment_FR_REAL,001,34,
images/fcloud65-35_D1.5_1.tif,1.5,1,,,,,0,57,57,57,,,,,,,,,,,,,,,,,,,None,None,,None,20.15,,,,,,,,,,,,,,,,,,2019_Apr_11_1426,60.5399802960245,Cloud_Experiment_FR_REAL,001,34,
images/fcloud80-20_D1.1_2.tif,1.1,2,,,,,0,58,58,82,,,,,,,,,,,,,,,,,,,None,None,,None,29.443,,,,,,,,,,,,,,,,,,2019_Apr_11_1426,60.5399802960245,Cloud_Experiment_FR_REAL,001,34,
images/fcloud80-20_D0.8_2.tif,0.8,2,,,,,0,59,59,73,,,,,,,,,,,,,,,,,,,2,space,4.7661827,2,0.768,,,,,,,,,,,,,,,,,,2019_Apr_11_1426,60.5399802960245,Cloud_Experiment_FR_REAL,001,34,
images/fcloud_D1.8_2.tif,1.8,0,,,,,0,60,60,31,,,,,,,,,,,,,,,,,,,2,space,4.30492119998,1,0.735,,,,,,,,,,,,,,,,,,2019_Apr_11_1426,60.5399802960245,Cloud_Experiment_FR_REAL,001,34,
images/fcloud80-20_D1.6_2.tif,1.6,2,,,,,0,61,61,97,,,,,,,,,,,,,,,,,,,3,space,2.69074329999,2,0.569,,,,,,,,,,,,,,,,,,2019_Apr_11_1426,60.5399802960245,Cloud_Experiment_FR_REAL,001,34,
images/fcloud65-35_D1.4_1.tif,1.4,1,,,,,0,62,62,54,,,,,,,,,,,,,,,,,,,2,space,1.4648627,3,0.751,,,,,,,,,,,,,,,,,,2019_Apr_11_1426,60.5399802960245,Cloud_Experiment_FR_REAL,001,34,
images/fcloud65-35_D1_3.tif,1.0,1,,,,,0,63,63,44,,,,,,,,,,,,,,,,,,,2,space,4.25843440002,4,1.267,,,,,,,,,,,,,,,,,,2019_Apr_11_1426,60.5399802960245,Cloud_Experiment_FR_REAL,001,34,
images/fcloud65-35_D1.1_3.tif,1.1,1,,,,,0,64,64,47,,,,,,,,,,,,,,,,,,,None,None,,None,10.624,,,,,,,,,,,,,,,,,,2019_Apr_11_1426,60.5399802960245,Cloud_Experiment_FR_REAL,001,34,
images/fcloud65-35_D0.9_2.tif,0.9,1,,,,,0,65,65,40,,,,,,,,,,,,,,,,,,,1,space,5.45666629999,4,1.068,,,,,,,,,,,,,,,,,,2019_Apr_11_1426,60.5399802960245,Cloud_Experiment_FR_REAL,001,34,
images/fcloud_D1.1_3.tif,1.1,0,,,,,0,66,66,11,,,,,,,,,,,,,,,,,,,1,space,5.85004650001,1,0.669,,,,,,,,,,,,,,,,,,2019_Apr_11_1426,60.5399802960245,Cloud_Experiment_FR_REAL,001,34,
images/fcloud_D1.8_1.tif,1.8,0,,,,,0,67,67,30,,,,,,,,,,,,,,,,,,,2,space,6.7435678,1,0.638,,,,,,,,,,,,,,,,,,2019_Apr_11_1426,60.5399802960245,Cloud_Experiment_FR_REAL,001,34,
images/fcloud_D1.6_2.tif,1.6,0,,,,,0,68,68,25,,,,,,,,,,,,,,,,,,,1,space,7.90794229999,1,0.768,,,,,,,,,,,,,,,,,,2019_Apr_11_1426,60.5399802960245,Cloud_Experiment_FR_REAL,001,34,
images/fcloud_D1.9_1.tif,1.9,0,,,,,0,69,69,33,,,,,,,,,,,,,,,,,,,2,space,1.93001400001,3,1.722,,,,,,,,,,,,,,,,,,2019_Apr_11_1426,60.5399802960245,Cloud_Experiment_FR_REAL,001,34,
images/fcloud80-20_D0.9_2.tif,0.9,2,,,,,0,70,70,76,,,,,,,,,,,,,,,,,,,1,space,5.2472633,1,0.684,,,,,,,,,,,,,,,,,,2019_Apr_11_1426,60.5399802960245,Cloud_Experiment_FR_REAL,001,34,
images/fcloud65-35_D1.3_3.tif,1.3,1,,,,,0,71,71,53,,,,,,,,,,,,,,,,,,,3,space,4.22739670001,1,1.517,,,,,,,,,,,,,,,,,,2019_Apr_11_1426,60.5399802960245,Cloud_Experiment_FR_REAL,001,34,
images/fcloud_D1.6_1.tif,1.6,0,,,,,0,72,72,24,,,,,,,,,,,,,,,,,,,1,space,3.53507360001,2,0.851,,,,,,,,,,,,,,,,,,2019_Apr_11_1426,60.5399802960245,Cloud_Experiment_FR_REAL,001,34,
images/fcloud65-35_D1.6_2.tif,1.6,1,,,,,0,73,73,61,,,,,,,,,,,,,,,,,,,None,None,,None,10.243,,,,,,,,,,,,,,,,,,2019_Apr_11_1426,60.5399802960245,Cloud_Experiment_FR_REAL,001,34,
images/fcloud_D1.5_2.tif,1.5,0,,,,,0,74,74,22,,,,,,,,,,,,,,,,,,,2,space,3.6762633,2,0.884,,,,,,,,,,,,,,,,,,2019_Apr_11_1426,60.5399802960245,Cloud_Experiment_FR_REAL,001,34,
images/fcloud_D1.2_3.tif,1.2,0,,,,,0,75,75,14,,,,,,,,,,,,,,,,,,,None,None,,None,10.31,,,,,,,,,,,,,,,,,,2019_Apr_11_1426,60.5399802960245,Cloud_Experiment_FR_REAL,001,34,
images/fcloud80-20_D1.7_3.tif,1.7,2,,,,,0,76,76,101,,,,,,,,,,,,,,,,,,,3,space,3.16344880001,1,1.02,,,,,,,,,,,,,,,,,,2019_Apr_11_1426,60.5399802960245,Cloud_Experiment_FR_REAL,001,34,
images/fcloud65-35_D0.9_1.tif,0.9,1,,,,,0,77,77,39,,,,,,,,,,,,,,,,,,,3,space,4.5004045,2,0.621,,,,,,,,,,,,,,,,,,2019_Apr_11_1426,60.5399802960245,Cloud_Experiment_FR_REAL,001,34,
images/fcloud65-35_D1.2_1.tif,1.2,1,,,,,0,78,78,48,,,,,,,,,,,,,,,,,,,2,space,2.88883370001,5,0.818,,,,,,,,,,,,,,,,,,2019_Apr_11_1426,60.5399802960245,Cloud_Experiment_FR_REAL,001,34,
images/fcloud80-20_D1.6_3.tif,1.6,2,,,,,0,79,79,98,,,,,,,,,,,,,,,,,,,None,None,,None,10.875,,,,,,,,,,,,,,,,,,2019_Apr_11_1426,60.5399802960245,Cloud_Experiment_FR_REAL,001,34,
images/fcloud65-35_D1_1.tif,1.0,1,,,,,0,80,80,42,,,,,,,,,,,,,,,,,,,None,None,,None,20.233,,,,,,,,,,,,,,,,,,2019_Apr_11_1426,60.5399802960245,Cloud_Experiment_FR_REAL,001,34,
images/fcloud65-35_D1.3_2.tif,1.3,1,,,,,0,81,81,52,,,,,,,,,,,,,,,,,,,2,space,3.1627741,1,0.718,,,,,,,,,,,,,,,,,,2019_Apr_11_1426,60.5399802960245,Cloud_Experiment_FR_REAL,001,34,
images/fcloud_D0.9_2.tif,0.9,0,,,,,0,82,82,4,,,,,,,,,,,,,,,,,,,1,None,,1,0.651,,,,,,,,,,,,,,,,,,2019_Apr_11_1426,60.5399802960245,Cloud_Experiment_FR_REAL,001,34,
images/fcloud65-35_D0.8_1.tif,0.8,1,,,,,0,83,83,36,,,,,,,,,,,,,,,,,,,3,space,4.15708450001,4,0.852,,,,,,,,,,,,,,,,,,2019_Apr_11_1426,60.5399802960245,Cloud_Experiment_FR_REAL,001,34,
images/fcloud_D0.8_3.tif,0.8,0,,,,,0,84,84,2,,,,,,,,,,,,,,,,,,,1,space,7.22062979999,1,0.603,,,,,,,,,,,,,,,,,,2019_Apr_11_1426,60.5399802960245,Cloud_Experiment_FR_REAL,001,34,
images/fcloud_D1.7_1.tif,1.7,0,,,,,0,85,85,27,,,,,,,,,,,,,,,,,,,None,None,,None,9.776,,,,,,,,,,,,,,,,,,2019_Apr_11_1426,60.5399802960245,Cloud_Experiment_FR_REAL,001,34,
images/fcloud80-20_D0.9_1.tif,0.9,2,,,,,0,86,86,75,,,,,,,,,,,,,,,,,,,2,space,3.35406509999,1,0.651,,,,,,,,,,,,,,,,,,2019_Apr_11_1426,60.5399802960245,Cloud_Experiment_FR_REAL,001,34,
images/fcloud65-35_D1.5_2.tif,1.5,1,,,,,0,87,87,58,,,,,,,,,,,,,,,,,,,1,space,5.80991849999,4,1.068,,,,,,,,,,,,,,,,,,2019_Apr_11_1426,60.5399802960245,Cloud_Experiment_FR_REAL,001,34,
images/fcloud65-35_D1.2_3.tif,1.2,1,,,,,0,88,88,50,,,,,,,,,,,,,,,,,,,1,None,,1,0.851,,,,,,,,,,,,,,,,,,2019_Apr_11_1426,60.5399802960245,Cloud_Experiment_FR_REAL,001,34,
images/fcloud65-35_D1.8_2.tif,1.8,1,,,,,0,89,89,67,,,,,,,,,,,,,,,,,,,None,None,,None,10.626,,,,,,,,,,,,,,,,,,2019_Apr_11_1426,60.5399802960245,Cloud_Experiment_FR_REAL,001,34,
images/fcloud80-20_D1.6_1.tif,1.6,2,,,,,0,90,90,96,,,,,,,,,,,,,,,,,,,1,space,2.33103959999,1,0.635,,,,,,,,,,,,,,,,,,2019_Apr_11_1426,60.5399802960245,Cloud_Experiment_FR_REAL,001,34,
images/fcloud_D1.3_2.tif,1.3,0,,,,,0,91,91,16,,,,,,,,,,,,,,,,,,,2,space,6.23214579999,4,1.37,,,,,,,,,,,,,,,,,,2019_Apr_11_1426,60.5399802960245,Cloud_Experiment_FR_REAL,001,34,
images/fcloud65-35_D1.9_2.tif,1.9,1,,,,,0,92,92,70,,,,,,,,,,,,,,,,,,,1,None,,1,0.503,,,,,,,,,,,,,,,,,,2019_Apr_11_1426,60.5399802960245,Cloud_Experiment_FR_REAL,001,34,
images/fcloud80-20_D1.3_3.tif,1.3,2,,,,,0,93,93,89,,,,,,,,,,,,,,,,,,,1,None,,3,1.768,,,,,,,,,,,,,,,,,,2019_Apr_11_1426,60.5399802960245,Cloud_Experiment_FR_REAL,001,34,
images/fcloud65-35_D1.6_1.tif,1.6,1,,,,,0,94,94,60,,,,,,,,,,,,,,,,,,,None,None,,None,11.357,,,,,,,,,,,,,,,,,,2019_Apr_11_1426,60.5399802960245,Cloud_Experiment_FR_REAL,001,34,
images/fcloud65-35_D1.6_3.tif,1.6,1,,,,,0,95,95,62,,,,,,,,,,,,,,,,,,,None,None,,None,20.533,,,,,,,,,,,,,,,,,,2019_Apr_11_1426,60.5399802960245,Cloud_Experiment_FR_REAL,001,34,
images/fcloud65-35_D0.9_3.tif,0.9,1,,,,,0,96,96,41,,,,,,,,,,,,,,,,,,,1,space,2.5615102,2,0.504,,,,,,,,,,,,,,,,,,2019_Apr_11_1426,60.5399802960245,Cloud_Experiment_FR_REAL,001,34,
images/fcloud65-35_D1.4_3.tif,1.4,1,,,,,0,97,97,56,,,,,,,,,,,,,,,,,,,2,space,5.49708949999,1,0.618,,,,,,,,,,,,,,,,,,2019_Apr_11_1426,60.5399802960245,Cloud_Experiment_FR_REAL,001,34,
images/fcloud_D1.9_2.tif,1.9,0,,,,,0,98,98,34,,,,,,,,,,,,,,,,,,,2,space,5.27523659999,5,1.118,,,,,,,,,,,,,,,,,,2019_Apr_11_1426,60.5399802960245,Cloud_Experiment_FR_REAL,001,34,
images/fcloud80-20_D1.7_2.tif,1.7,2,,,,,0,99,99,100,,,,,,,,,,,,,,,,,,,None,None,,None,13.406,,,,,,,,,,,,,,,,,,2019_Apr_11_1426,60.5399802960245,Cloud_Experiment_FR_REAL,001,34,
images/fcloud80-20_D1.4_1.tif,1.4,2,,,,,0,100,100,90,,,,,,,,,,,,,,,,,,,1,None,,1,0.718,,,,,,,,,,,,,,,,,,2019_Apr_11_1426,60.5399802960245,Cloud_Experiment_FR_REAL,001,34,
images/fcloud80-20_D1.2_1.tif,1.2,2,,,,,0,101,101,84,,,,,,,,,,,,,,,,,,,1,space,3.49975179997,3,0.585,,,,,,,,,,,,,,,,,,2019_Apr_11_1426,60.5399802960245,Cloud_Experiment_FR_REAL,001,34,
images/fcloud65-35_D1.7_3.tif,1.7,1,,,,,0,102,102,65,,,,,,,,,,,,,,,,,,,None,None,,None,9.959,,,,,,,,,,,,,,,,,,2019_Apr_11_1426,60.5399802960245,Cloud_Experiment_FR_REAL,001,34,
images/fcloud_D1.1_1.tif,1.1,0,,,,,0,103,103,9,,,,,,,,,,,,,,,,,,,3,space,3.44940480002,5,0.835,,,,,,,,,,,,,,,,,,2019_Apr_11_1426,60.5399802960245,Cloud_Experiment_FR_REAL,001,34,
images/fcloud80-20_D1.5_1.tif,1.5,2,,,,,0,104,104,93,,,,,,,,,,,,,,,,,,,2,space,4.16328089999,3,2.301,,,,,,,,,,,,,,,,,,2019_Apr_11_1426,60.5399802960245,Cloud_Experiment_FR_REAL,001,34,
images/fcloud_D1.4_1.tif,1.4,0,,,,,0,105,105,18,,,,,,,,,,,,,,,,,,,1,None,,1,0.988,,,,,,,,,,,,,,,,,,2019_Apr_11_1426,60.5399802960245,Cloud_Experiment_FR_REAL,001,34,
images/fcloud65-35_D1.1_2.tif,1.1,1,,,,,0,106,106,46,,,,,,,,,,,,,,,,,,,None,None,,None,10.01,,,,,,,,,,,,,,,,,,2019_Apr_11_1426,60.5399802960245,Cloud_Experiment_FR_REAL,001,34,
images/fcloud_D1.7_3.tif,1.7,0,,,,,0,107,107,29,,,,,,,,,,,,,,,,,,,1,space,2.21055319998,3,0.684,,,,,,,,,,,,,,,,,,2019_Apr_11_1426,60.5399802960245,Cloud_Experiment_FR_REAL,001,34,
,,,,,,,,,,,,,,,,,,,,,,,,,,,,,,,,,,,,,,,,,,,,,,space,5.96225879999,,,,2019_Apr_11_1426,60.5399802960245,Cloud_Experiment_FR_REAL,001,34,
,,,,,,,,,,,,,,,,,,,,,,,,,6,12.223,,,,,,,,,,,,,,,,,,,,,,,,,2019_Apr_11_1426,60.5399802960245,Cloud_Experiment_FR_REAL,001,34,
,,,,,,,,,,,,,,,,,,,,,,,,,,,,,,,,,,5,,,,,,,,,,,,,,,,,2019_Apr_11_1426,60.5399802960245,Cloud_Experiment_FR_REAL,001,34,
,,,,,,,,,,,,,,,,,,,,,,,,,,,,,,,,,,,3,,,,,,,,,,,,,,,,2019_Apr_11_1426,60.5399802960245,Cloud_Experiment_FR_REAL,001,34,
,,,,,,,,,,,,,,,,,,,,,,,,,,,,,,,,,,,,5,,,,,,,,,,,,,,,2019_Apr_11_1426,60.5399802960245,Cloud_Experiment_FR_REAL,001,34,
,,,,,,,,,,,,,,,,,,,,,,,,,,,,,,,,,,,,,4,,,,,,,,,,,,,,2019_Apr_11_1426,60.5399802960245,Cloud_Experiment_FR_REAL,001,34,
,,,,,,,,,,,,,,,,,,,,,,,,,,,,,,,,,,,,,,3,,,,,,,,,,,,,2019_Apr_11_1426,60.5399802960245,Cloud_Experiment_FR_REAL,001,34,
,,,,,,,,,,,,,,,,,,,,,,,,,,,,,,,,,,,,,,,4,,,,,,,,,,,,2019_Apr_11_1426,60.5399802960245,Cloud_Experiment_FR_REAL,001,34,
,,,,,,,,,,,,,,,,,,,,,,,,,,,,,,,,,,,,,,,,7,,,,,,,,,,,2019_Apr_11_1426,60.5399802960245,Cloud_Experiment_FR_REAL,001,34,
,,,,,,,,,,,,,,,,,,,,,,,,,,,,,,,,,,,,,,,,,7,,,,,,,,,,2019_Apr_11_1426,60.5399802960245,Cloud_Experiment_FR_REAL,001,34,
,,,,,,,,,,,,,,,,,,,,,,,,,,,,,,,,,,,,,,,,,,5,,,,,,,,,2019_Apr_11_1426,60.5399802960245,Cloud_Experiment_FR_REAL,001,34,
,,,,,,,,,,,,,,,,,,,,,,,,,,,,,,,,,,,,,,,,,,,4,,,,,,,,2019_Apr_11_1426,60.5399802960245,Cloud_Experiment_FR_REAL,001,34,
,,,,,,,,,,,,,,,,,,,,,,,,,,,,,,,,,,,,,,,,,,,,,,,,space,246.1025228,,2019_Apr_11_1426,60.5399802960245,Cloud_Experiment_FR_REAL,001,34,
images/fcloud65-35_D1.5_6.tif,1.5,1,,,,,,,,,0,0,0,59,,,,,,,,,,,,,,,2,space,6.01385059999,1,0.735,,,,,,,,,,,,,,,,,,2019_Apr_11_1426,60.5399802960245,Cloud_Experiment_FR_REAL,001,34,
images/fcloud65-35_D0.8_5.tif,0.8,1,,,,,,,,,0,1,1,37,,,,,,,,,,,,,,,1,space,7.4944041,3,1.051,,,,,,,,,,,,,,,,,,2019_Apr_11_1426,60.5399802960245,Cloud_Experiment_FR_REAL,001,34,
images/fcloud80-20_D0.8_5.tif,0.8,2,,,,,,,,,0,2,2,73,,,,,,,,,,,,,,,None,None,,None,10.193,,,,,,,,,,,,,,,,,,2019_Apr_11_1426,60.5399802960245,Cloud_Experiment_FR_REAL,001,34,
images/fcloud_D1.7_6.tif,1.7,0,,,,,,,,,0,3,3,29,,,,,,,,,,,,,,,1,space,6.55240310001,1,0.535,,,,,,,,,,,,,,,,,,2019_Apr_11_1426,60.5399802960245,Cloud_Experiment_FR_REAL,001,34,
images/fcloud65-35_D1.6_5.tif,1.6,1,,,,,,,,,0,4,4,61,,,,,,,,,,,,,,,None,None,,None,10.575,,,,,,,,,,,,,,,,,,2019_Apr_11_1426,60.5399802960245,Cloud_Experiment_FR_REAL,001,34,
images/fcloud80-20_D0.8_6.tif,0.8,2,,,,,,,,,0,5,5,74,,,,,,,,,,,,,,,2,space,4.99218250002,4,0.819,,,,,,,,,,,,,,,,,,2019_Apr_11_1426,60.5399802960245,Cloud_Experiment_FR_REAL,001,34,
images/fcloud_D0.8_5.tif,0.8,0,,,,,,,,,0,6,6,1,,,,,,,,,,,,,,,2,space,2.41886189999,2,0.901,,,,,,,,,,,,,,,,,,2019_Apr_11_1426,60.5399802960245,Cloud_Experiment_FR_REAL,001,34,
images/fcloud80-20_D1.9_5.tif,1.9,2,,,,,,,,,0,7,7,106,,,,,,,,,,,,,,,3,space,4.23902420001,1,0.603,,,,,,,,,,,,,,,,,,2019_Apr_11_1426,60.5399802960245,Cloud_Experiment_FR_REAL,001,34,
images/fcloud_D1.5_4.tif,1.5,0,,,,,,,,,0,8,8,21,,,,,,,,,,,,,,,1,space,5.67390339999,1,0.551,,,,,,,,,,,,,,,,,,2019_Apr_11_1426,60.5399802960245,Cloud_Experiment_FR_REAL,001,34,
images/fcloud65-35_D1.9_6.tif,1.9,1,,,,,,,,,0,9,9,71,,,,,,,,,,,,,,,None,None,,None,9.779,,,,,,,,,,,,,,,,,,2019_Apr_11_1426,60.5399802960245,Cloud_Experiment_FR_REAL,001,34,
images/fcloud_D0.9_4.tif,0.9,0,,,,,,,,,0,10,10,3,,,,,,,,,,,,,,,2,space,4.45704969999,2,0.818,,,,,,,,,,,,,,,,,,2019_Apr_11_1426,60.5399802960245,Cloud_Experiment_FR_REAL,001,34,
images/fcloud80-20_D1_5.tif,1.0,2,,,,,,,,,0,11,11,79,,,,,,,,,,,,,,,3,space,1.14483940002,5,0.685,,,,,,,,,,,,,,,,,,2019_Apr_11_1426,60.5399802960245,Cloud_Experiment_FR_REAL,001,34,
images/fcloud_D1.3_6.tif,1.3,0,,,,,,,,,0,12,12,17,,,,,,,,,,,,,,,None,None,,None,11.194,,,,,,,,,,,,,,,,,,2019_Apr_11_1426,60.5399802960245,Cloud_Experiment_FR_REAL,001,34,
images/fcloud80-20_D0.9_5.tif,0.9,2,,,,,,,,,0,13,13,76,,,,,,,,,,,,,,,1,None,,1,0.535,,,,,,,,,,,,,,,,,,2019_Apr_11_1426,60.5399802960245,Cloud_Experiment_FR_REAL,001,34,
images/fcloud80-20_D1.4_6.tif,1.4,2,,,,,,,,,0,14,14,92,,,,,,,,,,,,,,,3,space,5.50689820002,2,0.534,,,,,,,,,,,,,,,,,,2019_Apr_11_1426,60.5399802960245,Cloud_Experiment_FR_REAL,001,34,
images/fcloud80-20_D1.2_6.tif,1.2,2,,,,,,,,,0,15,15,86,,,,,,,,,,,,,,,1,None,,1,0.617,,,,,,,,,,,,,,,,,,2019_Apr_11_1426,60.5399802960245,Cloud_Experiment_FR_REAL,001,34,
images/fcloud65-35_D1.1_4.tif,1.1,1,,,,,,,,,0,16,16,45,,,,,,,,,,,,,,,2,space,5.04563139999,1,0.519,,,,,,,,,,,,,,,,,,2019_Apr_11_1426,60.5399802960245,Cloud_Experiment_FR_REAL,001,34,
images/fcloud_D1.4_4.tif,1.4,0,,,,,,,,,0,17,17,18,,,,,,,,,,,,,,,None,None,,None,9.692,,,,,,,,,,,,,,,,,,2019_Apr_11_1426,60.5399802960245,Cloud_Experiment_FR_REAL,001,34,
images/fcloud80-20_D1.5_4.tif,1.5,2,,,,,,,,,0,18,18,93,,,,,,,,,,,,,,,2,space,5.73162490001,2,0.819,,,,,,,,,,,,,,,,,,2019_Apr_11_1426,60.5399802960245,Cloud_Experiment_FR_REAL,001,34,
images/fcloud65-35_D0.8_4.tif,0.8,1,,,,,,,,,0,19,19,36,,,,,,,,,,,,,,,1,space,4.54867240001,2,0.636,,,,,,,,,,,,,,,,,,2019_Apr_11_1426,60.5399802960245,Cloud_Experiment_FR_REAL,001,34,
images/fcloud_D1.6_6.tif,1.6,0,,,,,,,,,0,20,20,26,,,,,,,,,,,,,,,None,None,,None,10.092,,,,,,,,,,,,,,,,,,2019_Apr_11_1426,60.5399802960245,Cloud_Experiment_FR_REAL,001,34,
images/fcloud_D1.1_4.tif,1.1,0,,,,,,,,,0,21,21,9,,,,,,,,,,,,,,,2,space,6.2383695,3,0.552,,,,,,,,,,,,,,,,,,2019_Apr_11_1426,60.5399802960245,Cloud_Experiment_FR_REAL,001,34,
images/fcloud80-20_D1_4.tif,1.0,2,,,,,,,,,0,22,22,78,,,,,,,,,,,,,,,None,None,,None,9.842,,,,,,,,,,,,,,,,,,2019_Apr_11_1426,60.5399802960245,Cloud_Experiment_FR_REAL,001,34,
images/fcloud65-35_D1.4_4.tif,1.4,1,,,,,,,,,0,23,23,54,,,,,,,,,,,,,,,1,space,5.5715963,3,0.451,,,,,,,,,,,,,,,,,,2019_Apr_11_1426,60.5399802960245,Cloud_Experiment_FR_REAL,001,34,
images/fcloud_D1.2_4.tif,1.2,0,,,,,,,,,0,24,24,12,,,,,,,,,,,,,,,1,space,5.24077590002,1,0.97,,,,,,,,,,,,,,,,,,2019_Apr_11_1426,60.5399802960245,Cloud_Experiment_FR_REAL,001,34,
images/fcloud_D1.8_5.tif,1.8,0,,,,,,,,,0,25,25,31,,,,,,,,,,,,,,,None,None,,None,10.241,,,,,,,,,,,,,,,,,,2019_Apr_11_1426,60.5399802960245,Cloud_Experiment_FR_REAL,001,34,
images/fcloud80-20_D1.3_6.tif,1.3,2,,,,,,,,,0,26,26,89,,,,,,,,,,,,,,,None,None,,None,19.117,,,,,,,,,,,,,,,,,,2019_Apr_11_1426,60.5399802960245,Cloud_Experiment_FR_REAL,001,34,
images/fcloud_D1_5.tif,1.0,0,,,,,,,,,0,27,27,7,,,,,,,,,,,,,,,3,space,7.67584010001,3,2.95,,,,,,,,,,,,,,,,,,2019_Apr_11_1426,60.5399802960245,Cloud_Experiment_FR_REAL,001,34,
images/fcloud80-20_D1.2_4.tif,1.2,2,,,,,,,,,0,28,28,84,,,,,,,,,,,,,,,1,space,6.07320779999,1,1.168,,,,,,,,,,,,,,,,,,2019_Apr_11_1426,60.5399802960245,Cloud_Experiment_FR_REAL,001,34,
images/fcloud80-20_D0.9_6.tif,0.9,2,,,,,,,,,0,29,29,77,,,,,,,,,,,,,,,None,None,,None,11.092,,,,,,,,,,,,,,,,,,2019_Apr_11_1426,60.5399802960245,Cloud_Experiment_FR_REAL,001,34,
images/fcloud65-35_D1.4_5.tif,1.4,1,,,,,,,,,0,30,30,55,,,,,,,,,,,,,,,1,space,3.61977729999,4,1.069,,,,,,,,,,,,,,,,,,2019_Apr_11_1426,60.5399802960245,Cloud_Experiment_FR_REAL,001,34,
images/fcloud65-35_D1.8_5.tif,1.8,1,,,,,,,,,0,31,31,67,,,,,,,,,,,,,,,1,space,6.61736,2,0.587,,,,,,,,,,,,,,,,,,2019_Apr_11_1426,60.5399802960245,Cloud_Experiment_FR_REAL,001,34,
images/fcloud65-35_D1.2_4.tif,1.2,1,,,,,,,,,0,32,32,48,,,,,,,,,,,,,,,1,space,3.71945920002,3,0.701,,,,,,,,,,,,,,,,,,2019_Apr_11_1426,60.5399802960245,Cloud_Experiment_FR_REAL,001,34,
images/fcloud_D1.4_5.tif,1.4,0,,,,,,,,,0,33,33,19,,,,,,,,,,,,,,,2,space,5.5247296,1,0.551,,,,,,,,,,,,,,,,,,2019_Apr_11_1426,60.5399802960245,Cloud_Experiment_FR_REAL,001,34,
images/fcloud80-20_D1.7_6.tif,1.7,2,,,,,,,,,0,34,34,101,,,,,,,,,,,,,,,None,None,,None,10.274,,,,,,,,,,,,,,,,,,2019_Apr_11_1426,60.5399802960245,Cloud_Experiment_FR_REAL,001,34,
images/fcloud80-20_D0.8_4.tif,0.8,2,,,,,,,,,0,35,35,72,,,,,,,,,,,,,,,None,None,,None,20.199,,,,,,,,,,,,,,,,,,2019_Apr_11_1426,60.5399802960245,Cloud_Experiment_FR_REAL,001,34,
images/fcloud65-35_D1.5_5.tif,1.5,1,,,,,,,,,0,36,36,58,,,,,,,,,,,,,,,3,space,3.19502849999,4,1.886,,,,,,,,,,,,,,,,,,2019_Apr_11_1426,60.5399802960245,Cloud_Experiment_FR_REAL,001,34,
images/fcloud80-20_D1.8_4.tif,1.8,2,,,,,,,,,0,37,37,102,,,,,,,,,,,,,,,None,None,,None,11.09,,,,,,,,,,,,,,,,,,2019_Apr_11_1426,60.5399802960245,Cloud_Experiment_FR_REAL,001,34,
images/fcloud65-35_D1.6_6.tif,1.6,1,,,,,,,,,0,38,38,62,,,,,,,,,,,,,,,2,space,4.67613090001,1,1.768,,,,,,,,,,,,,,,,,,2019_Apr_11_1426,60.5399802960245,Cloud_Experiment_FR_REAL,001,34,
images/fcloud_D1_6.tif,1.0,0,,,,,,,,,0,39,39,8,,,,,,,,,,,,,,,1,space,4.02249959999,2,0.485,,,,,,,,,,,,,,,,,,2019_Apr_11_1426,60.5399802960245,Cloud_Experiment_FR_REAL,001,34,
images/fcloud65-35_D0.9_5.tif,0.9,1,,,,,,,,,0,40,40,40,,,,,,,,,,,,,,,1,None,,1,0.602,,,,,,,,,,,,,,,,,,2019_Apr_11_1426,60.5399802960245,Cloud_Experiment_FR_REAL,001,34,
images/fcloud_D1.8_6.tif,1.8,0,,,,,,,,,0,41,41,32,,,,,,,,,,,,,,,2,None,,2,0.651,,,,,,,,,,,,,,,,,,2019_Apr_11_1426,60.5399802960245,Cloud_Experiment_FR_REAL,001,34,
images/fcloud80-20_D1.4_4.tif,1.4,2,,,,,,,,,0,42,42,90,,,,,,,,,,,,,,,1,None,,1,0.502,,,,,,,,,,,,,,,,,,2019_Apr_11_1426,60.5399802960245,Cloud_Experiment_FR_REAL,001,34,
images/fcloud80-20_D1.8_5.tif,1.8,2,,,,,,,,,0,43,43,103,,,,,,,,,,,,,,,None,None,,None,10.658,,,,,,,,,,,,,,,,,,2019_Apr_11_1426,60.5399802960245,Cloud_Experiment_FR_REAL,001,34,
images/fcloud80-20_D1.4_5.tif,1.4,2,,,,,,,,,0,44,44,91,,,,,,,,,,,,,,,3,space,3.8441897,3,1.001,,,,,,,,,,,,,,,,,,2019_Apr_11_1426,60.5399802960245,Cloud_Experiment_FR_REAL,001,34,
images/fcloud_D1.7_5.tif,1.7,0,,,,,,,,,0,45,45,28,,,,,,,,,,,,,,,1,None,,1,0.502,,,,,,,,,,,,,,,,,,2019_Apr_11_1426,60.5399802960245,Cloud_Experiment_FR_REAL,001,34,
images/fcloud65-35_D1_6.tif,1.0,1,,,,,,,,,0,46,46,44,,,,,,,,,,,,,,,2,space,4.8877207,1,0.602,,,,,,,,,,,,,,,,,,2019_Apr_11_1426,60.5399802960245,Cloud_Experiment_FR_REAL,001,34,
images/fcloud80-20_D1.9_6.tif,1.9,2,,,,,,,,,0,47,47,107,,,,,,,,,,,,,,,None,None,,None,9.809,,,,,,,,,,,,,,,,,,2019_Apr_11_1426,60.5399802960245,Cloud_Experiment_FR_REAL,001,34,
images/fcloud65-35_D1.8_6.tif,1.8,1,,,,,,,,,0,48,48,68,,,,,,,,,,,,,,,1,None,,1,0.719,,,,,,,,,,,,,,,,,,2019_Apr_11_1426,60.5399802960245,Cloud_Experiment_FR_REAL,001,34,
images/fcloud80-20_D1.3_4.tif,1.3,2,,,,,,,,,0,49,49,87,,,,,,,,,,,,,,,None,None,,None,12.558,,,,,,,,,,,,,,,,,,2019_Apr_11_1426,60.5399802960245,Cloud_Experiment_FR_REAL,001,34,
images/fcloud65-35_D1.2_5.tif,1.2,1,,,,,,,,,0,50,50,49,,,,,,,,,,,,,,,3,space,4.85684639998,2,0.669,,,,,,,,,,,,,,,,,,2019_Apr_11_1426,60.5399802960245,Cloud_Experiment_FR_REAL,001,34,
images/fcloud80-20_D1.7_4.tif,1.7,2,,,,,,,,,0,51,51,99,,,,,,,,,,,,,,,2,space,3.1972999,1,0.468,,,,,,,,,,,,,,,,,,2019_Apr_11_1426,60.5399802960245,Cloud_Experiment_FR_REAL,001,34,
images/fcloud65-35_D1.7_6.tif,1.7,1,,,,,,,,,0,52,52,65,,,,,,,,,,,,,,,1,None,,2,0.668,,,,,,,,,,,,,,,,,,2019_Apr_11_1426,60.5399802960245,Cloud_Experiment_FR_REAL,001,34,
images/fcloud80-20_D1.7_5.tif,1.7,2,,,,,,,,,0,53,53,100,,,,,,,,,,,,,,,None,None,,None,10.159,,,,,,,,,,,,,,,,,,2019_Apr_11_1426,60.5399802960245,Cloud_Experiment_FR_REAL,001,34,
images/fcloud_D0.8_4.tif,0.8,0,,,,,,,,,0,54,54,0,,,,,,,,,,,,,,,1,space,4.42568260001,3,0.919,,,,,,,,,,,,,,,,,,2019_Apr_11_1426,60.5399802960245,Cloud_Experiment_FR_REAL,001,34,
images/fcloud_D1.8_4.tif,1.8,0,,,,,,,,,0,55,55,30,,,,,,,,,,,,,,,None,None,,None,10.71,,,,,,,,,,,,,,,,,,2019_Apr_11_1426,60.5399802960245,Cloud_Experiment_FR_REAL,001,34,
images/fcloud_D0.9_5.tif,0.9,0,,,,,,,,,0,56,56,4,,,,,,,,,,,,,,,2,space,3.55482399999,1,0.719,,,,,,,,,,,,,,,,,,2019_Apr_11_1426,60.5399802960245,Cloud_Experiment_FR_REAL,001,34,
images/fcloud80-20_D1.6_6.tif,1.6,2,,,,,,,,,0,57,57,98,,,,,,,,,,,,,,,1,None,,1,0.985,,,,,,,,,,,,,,,,,,2019_Apr_11_1426,60.5399802960245,Cloud_Experiment_FR_REAL,001,34,
images/fcloud65-35_D1.3_6.tif,1.3,1,,,,,,,,,0,58,58,53,,,,,,,,,,,,,,,1,None,,1,0.719,,,,,,,,,,,,,,,,,,2019_Apr_11_1426,60.5399802960245,Cloud_Experiment_FR_REAL,001,34,
images/fcloud65-35_D1.5_4.tif,1.5,1,,,,,,,,,0,59,59,57,,,,,,,,,,,,,,,1,space,6.500978,4,0.685,,,,,,,,,,,,,,,,,,2019_Apr_11_1426,60.5399802960245,Cloud_Experiment_FR_REAL,001,34,
images/fcloud_D1.3_4.tif,1.3,0,,,,,,,,,0,60,60,15,,,,,,,,,,,,,,,None,None,,None,10.392,,,,,,,,,,,,,,,,,,2019_Apr_11_1426,60.5399802960245,Cloud_Experiment_FR_REAL,001,34,
images/fcloud_D1.7_4.tif,1.7,0,,,,,,,,,0,61,61,27,,,,,,,,,,,,,,,2,space,5.51872950001,1,0.652,,,,,,,,,,,,,,,,,,2019_Apr_11_1426,60.5399802960245,Cloud_Experiment_FR_REAL,001,34,
images/fcloud65-35_D1.4_6.tif,1.4,1,,,,,,,,,0,62,62,56,,,,,,,,,,,,,,,2,space,2.61692539998,3,3.067,,,,,,,,,,,,,,,,,,2019_Apr_11_1426,60.5399802960245,Cloud_Experiment_FR_REAL,001,34,
images/fcloud80-20_D1.1_4.tif,1.1,2,,,,,,,,,0,63,63,81,,,,,,,,,,,,,,,2,space,5.39305450002,2,0.435,,,,,,,,,,,,,,,,,,2019_Apr_11_1426,60.5399802960245,Cloud_Experiment_FR_REAL,001,34,
images/fcloud65-35_D1.7_5.tif,1.7,1,,,,,,,,,0,64,64,64,,,,,,,,,,,,,,,1,space,3.862115,1,3.799,,,,,,,,,,,,,,,,,,2019_Apr_11_1426,60.5399802960245,Cloud_Experiment_FR_REAL,001,34,
images/fcloud80-20_D1_6.tif,1.0,2,,,,,,,,,0,65,65,80,,,,,,,,,,,,,,,None,None,,None,13.005,,,,,,,,,,,,,,,,,,2019_Apr_11_1426,60.5399802960245,Cloud_Experiment_FR_REAL,001,34,
images/fcloud_D1.9_4.tif,1.9,0,,,,,,,,,0,66,66,33,,,,,,,,,,,,,,,1,space,5.15513260002,2,1.053,,,,,,,,,,,,,,,,,,2019_Apr_11_1426,60.5399802960245,Cloud_Experiment_FR_REAL,001,34,
images/fcloud65-35_D0.9_6.tif,0.9,1,,,,,,,,,0,67,67,41,,,,,,,,,,,,,,,1,space,6.00442310001,4,1.418,,,,,,,,,,,,,,,,,,2019_Apr_11_1426,60.5399802960245,Cloud_Experiment_FR_REAL,001,34,
images/fcloud_D1.9_5.tif,1.9,0,,,,,,,,,0,68,68,34,,,,,,,,,,,,,,,None,None,,None,11.29,,,,,,,,,,,,,,,,,,2019_Apr_11_1426,60.5399802960245,Cloud_Experiment_FR_REAL,001,34,
images/fcloud80-20_D1.8_6.tif,1.8,2,,,,,,,,,0,69,69,104,,,,,,,,,,,,,,,2,space,4.52806300001,1,0.951,,,,,,,,,,,,,,,,,,2019_Apr_11_1426,60.5399802960245,Cloud_Experiment_FR_REAL,001,34,
images/fcloud_D1.3_5.tif,1.3,0,,,,,,,,,0,70,70,16,,,,,,,,,,,,,,,1,None,,2,1.4,,,,,,,,,,,,,,,,,,2019_Apr_11_1426,60.5399802960245,Cloud_Experiment_FR_REAL,001,34,
images/fcloud65-35_D1.6_4.tif,1.6,1,,,,,,,,,0,71,71,60,,,,,,,,,,,,,,,None,None,,None,11.075,,,,,,,,,,,,,,,,,,2019_Apr_11_1426,60.5399802960245,Cloud_Experiment_FR_REAL,001,34,
images/fcloud80-20_D1.5_5.tif,1.5,2,,,,,,,,,0,72,72,94,,,,,,,,,,,,,,,1,space,5.80756249998,3,0.468,,,,,,,,,,,,,,,,,,2019_Apr_11_1426,60.5399802960245,Cloud_Experiment_FR_REAL,001,34,
images/fcloud_D1.2_6.tif,1.2,0,,,,,,,,,0,73,73,14,,,,,,,,,,,,,,,None,None,,None,10.242,,,,,,,,,,,,,,,,,,2019_Apr_11_1426,60.5399802960245,Cloud_Experiment_FR_REAL,001,34,
images/fcloud65-35_D1_4.tif,1.0,1,,,,,,,,,0,74,74,42,,,,,,,,,,,,,,,None,None,,None,19.818,,,,,,,,,,,,,,,,,,2019_Apr_11_1426,60.5399802960245,Cloud_Experiment_FR_REAL,001,34,
images/fcloud_D1.2_5.tif,1.2,0,,,,,,,,,0,75,75,13,,,,,,,,,,,,,,,2,space,3.11417719998,4,0.568,,,,,,,,,,,,,,,,,,2019_Apr_11_1426,60.5399802960245,Cloud_Experiment_FR_REAL,001,34,
images/fcloud65-35_D1.8_4.tif,1.8,1,,,,,,,,,0,76,76,66,,,,,,,,,,,,,,,None,None,,None,11.09,,,,,,,,,,,,,,,,,,2019_Apr_11_1426,60.5399802960245,Cloud_Experiment_FR_REAL,001,34,
images/fcloud65-35_D1.2_6.tif,1.2,1,,,,,,,,,0,77,77,50,,,,,,,,,,,,,,,2,space,6.3932548,1,0.65,,,,,,,,,,,,,,,,,,2019_Apr_11_1426,60.5399802960245,Cloud_Experiment_FR_REAL,001,34,
images/fcloud_D1.6_5.tif,1.6,0,,,,,,,,,0,78,78,25,,,,,,,,,,,,,,,2,space,6.59118700001,2,1.803,,,,,,,,,,,,,,,,,,2019_Apr_11_1426,60.5399802960245,Cloud_Experiment_FR_REAL,001,34,
images/fcloud80-20_D0.9_4.tif,0.9,2,,,,,,,,,0,79,79,75,,,,,,,,,,,,,,,2,space,4.80879740001,1,0.752,,,,,,,,,,,,,,,,,,2019_Apr_11_1426,60.5399802960245,Cloud_Experiment_FR_REAL,001,34,
images/fcloud65-35_D0.9_4.tif,0.9,1,,,,,,,,,0,80,80,39,,,,,,,,,,,,,,,None,None,,None,11.024,,,,,,,,,,,,,,,,,,2019_Apr_11_1426,60.5399802960245,Cloud_Experiment_FR_REAL,001,34,
images/fcloud80-20_D1.1_5.tif,1.1,2,,,,,,,,,0,81,81,82,,,,,,,,,,,,,,,4,space,3.45511469999,2,1.235,,,,,,,,,,,,,,,,,,2019_Apr_11_1426,60.5399802960245,Cloud_Experiment_FR_REAL,001,34,
images/fcloud65-35_D1.9_5.tif,1.9,1,,,,,,,,,0,82,82,70,,,,,,,,,,,,,,,None,None,,None,10.477,,,,,,,,,,,,,,,,,,2019_Apr_11_1426,60.5399802960245,Cloud_Experiment_FR_REAL,001,34,
images/fcloud_D1.5_6.tif,1.5,0,,,,,,,,,0,83,83,23,,,,,,,,,,,,,,,3,space,4.5886784,2,0.485,,,,,,,,,,,,,,,,,,2019_Apr_11_1426,60.5399802960245,Cloud_Experiment_FR_REAL,001,34,
images/fcloud_D1_4.tif,1.0,0,,,,,,,,,0,84,84,6,,,,,,,,,,,,,,,4,space,2.66469949999,4,0.585,,,,,,,,,,,,,,,,,,2019_Apr_11_1426,60.5399802960245,Cloud_Experiment_FR_REAL,001,34,
images/fcloud65-35_D1.9_4.tif,1.9,1,,,,,,,,,0,85,85,69,,,,,,,,,,,,,,,None,None,,None,11.676,,,,,,,,,,,,,,,,,,2019_Apr_11_1426,60.5399802960245,Cloud_Experiment_FR_REAL,001,34,
images/fcloud_D1.1_5.tif,1.1,0,,,,,,,,,0,86,86,10,,,,,,,,,,,,,,,4,space,3.63252769999,3,2.002,,,,,,,,,,,,,,,,,,2019_Apr_11_1426,60.5399802960245,Cloud_Experiment_FR_REAL,001,34,
images/fcloud_D1.4_6.tif,1.4,0,,,,,,,,,0,87,87,20,,,,,,,,,,,,,,,3,space,4.46011079999,2,0.536,,,,,,,,,,,,,,,,,,2019_Apr_11_1426,60.5399802960245,Cloud_Experiment_FR_REAL,001,34,
images/fcloud65-35_D1_5.tif,1.0,1,,,,,,,,,0,88,88,43,,,,,,,,,,,,,,,3,space,5.4553267,4,0.968,,,,,,,,,,,,,,,,,,2019_Apr_11_1426,60.5399802960245,Cloud_Experiment_FR_REAL,001,34,
images/fcloud_D1.6_4.tif,1.6,0,,,,,,,,,0,89,89,24,,,,,,,,,,,,,,,1,space,5.0035816,5,0.984,,,,,,,,,,,,,,,,,,2019_Apr_11_1426,60.5399802960245,Cloud_Experiment_FR_REAL,001,34,
images/fcloud80-20_D1.9_4.tif,1.9,2,,,,,,,,,0,90,90,105,,,,,,,,,,,,,,,None,None,,None,11.424,,,,,,,,,,,,,,,,,,2019_Apr_11_1426,60.5399802960245,Cloud_Experiment_FR_REAL,001,34,
images/fcloud65-35_D1.1_5.tif,1.1,1,,,,,,,,,0,91,91,46,,,,,,,,,,,,,,,None,None,,None,20.566,,,,,,,,,,,,,,,,,,2019_Apr_11_1426,60.5399802960245,Cloud_Experiment_FR_REAL,001,34,
images/fcloud_D1.5_5.tif,1.5,0,,,,,,,,,0,92,92,22,,,,,,,,,,,,,,,5,space,3.17461019999,2,0.919,,,,,,,,,,,,,,,,,,2019_Apr_11_1426,60.5399802960245,Cloud_Experiment_FR_REAL,001,34,
images/fcloud65-35_D1.3_4.tif,1.3,1,,,,,,,,,0,93,93,51,,,,,,,,,,,,,,,2,space,4.28751950001,1,0.902,,,,,,,,,,,,,,,,,,2019_Apr_11_1426,60.5399802960245,Cloud_Experiment_FR_REAL,001,34,
images/fcloud80-20_D1.6_5.tif,1.6,2,,,,,,,,,0,94,94,97,,,,,,,,,,,,,,,None,None,,None,10.508,,,,,,,,,,,,,,,,,,2019_Apr_11_1426,60.5399802960245,Cloud_Experiment_FR_REAL,001,34,
images/fcloud_D1.1_6.tif,1.1,0,,,,,,,,,0,95,95,11,,,,,,,,,,,,,,,4,space,4.94359769998,2,0.67,,,,,,,,,,,,,,,,,,2019_Apr_11_1426,60.5399802960245,Cloud_Experiment_FR_REAL,001,34,
images/fcloud80-20_D1.2_5.tif,1.2,2,,,,,,,,,0,96,96,85,,,,,,,,,,,,,,,1,None,,2,1.784,,,,,,,,,,,,,,,,,,2019_Apr_11_1426,60.5399802960245,Cloud_Experiment_FR_REAL,001,34,
images/fcloud65-35_D0.8_6.tif,0.8,1,,,,,,,,,0,97,97,38,,,,,,,,,,,,,,,2,space,5.743086,1,0.502,,,,,,,,,,,,,,,,,,2019_Apr_11_1426,60.5399802960245,Cloud_Experiment_FR_REAL,001,34,
images/fcloud_D0.9_6.tif,0.9,0,,,,,,,,,0,98,98,5,,,,,,,,,,,,,,,None,None,,None,9.794,,,,,,,,,,,,,,,,,,2019_Apr_11_1426,60.5399802960245,Cloud_Experiment_FR_REAL,001,34,
images/fcloud80-20_D1.3_5.tif,1.3,2,,,,,,,,,0,99,99,88,,,,,,,,,,,,,,,1,None,,1,0.554,,,,,,,,,,,,,,,,,,2019_Apr_11_1426,60.5399802960245,Cloud_Experiment_FR_REAL,001,34,
images/fcloud_D0.8_6.tif,0.8,0,,,,,,,,,0,100,100,2,,,,,,,,,,,,,,,1,space,4.8537215,1,0.603,,,,,,,,,,,,,,,,,,2019_Apr_11_1426,60.5399802960245,Cloud_Experiment_FR_REAL,001,34,
images/fcloud80-20_D1.6_4.tif,1.6,2,,,,,,,,,0,101,101,96,,,,,,,,,,,,,,,None,None,,None,10.344,,,,,,,,,,,,,,,,,,2019_Apr_11_1426,60.5399802960245,Cloud_Experiment_FR_REAL,001,34,
images/fcloud_D1.9_6.tif,1.9,0,,,,,,,,,0,102,102,35,,,,,,,,,,,,,,,2,space,4.88478180001,1,1.3,,,,,,,,,,,,,,,,,,2019_Apr_11_1426,60.5399802960245,Cloud_Experiment_FR_REAL,001,34,
images/fcloud80-20_D1.1_6.tif,1.1,2,,,,,,,,,0,103,103,83,,,,,,,,,,,,,,,1,space,7.57407249999,1,0.468,,,,,,,,,,,,,,,,,,2019_Apr_11_1426,60.5399802960245,Cloud_Experiment_FR_REAL,001,34,
images/fcloud80-20_D1.5_6.tif,1.5,2,,,,,,,,,0,104,104,95,,,,,,,,,,,,,,,None,None,,None,10.425,,,,,,,,,,,,,,,,,,2019_Apr_11_1426,60.5399802960245,Cloud_Experiment_FR_REAL,001,34,
images/fcloud65-35_D1.1_6.tif,1.1,1,,,,,,,,,0,105,105,47,,,,,,,,,,,,,,,4,space,1.6922656,5,0.569,,,,,,,,,,,,,,,,,,2019_Apr_11_1426,60.5399802960245,Cloud_Experiment_FR_REAL,001,34,
images/fcloud65-35_D1.3_5.tif,1.3,1,,,,,,,,,0,106,106,52,,,,,,,,,,,,,,,2,space,2.94476320001,1,0.451,,,,,,,,,,,,,,,,,,2019_Apr_11_1426,60.5399802960245,Cloud_Experiment_FR_REAL,001,34,
images/fcloud65-35_D1.7_4.tif,1.7,1,,,,,,,,,0,107,107,63,,,,,,,,,,,,,,,1,space,5.94245120001,1,0.552,,,,,,,,,,,,,,,,,,2019_Apr_11_1426,60.5399802960245,Cloud_Experiment_FR_REAL,001,34,
,,,,,,,,,,,,,,,,,,,,,,,,,,,,,,,,,,,,,,,,,,,,,,space,2.24936640001,,,,2019_Apr_11_1426,60.5399802960245,Cloud_Experiment_FR_REAL,001,34,
,,,,,,,,,,,,,,,,,,,,,,,,,4,9.604,,,,,,,,,,,,,,,,,,,,,,,,,2019_Apr_11_1426,60.5399802960245,Cloud_Experiment_FR_REAL,001,34,
,,,,,,,,,,,,,,,,,,,,,,,,,,,,,,,,,,5,,,,,,,,,,,,,,,,,2019_Apr_11_1426,60.5399802960245,Cloud_Experiment_FR_REAL,001,34,
,,,,,,,,,,,,,,,,,,,,,,,,,,,,,,,,,,,3,,,,,,,,,,,,,,,,2019_Apr_11_1426,60.5399802960245,Cloud_Experiment_FR_REAL,001,34,
,,,,,,,,,,,,,,,,,,,,,,,,,,,,,,,,,,,,3,,,,,,,,,,,,,,,2019_Apr_11_1426,60.5399802960245,Cloud_Experiment_FR_REAL,001,34,
,,,,,,,,,,,,,,,,,,,,,,,,,,,,,,,,,,,,,5,,,,,,,,,,,,,,2019_Apr_11_1426,60.5399802960245,Cloud_Experiment_FR_REAL,001,34,
,,,,,,,,,,,,,,,,,,,,,,,,,,,,,,,,,,,,,,3,,,,,,,,,,,,,2019_Apr_11_1426,60.5399802960245,Cloud_Experiment_FR_REAL,001,34,
,,,,,,,,,,,,,,,,,,,,,,,,,,,,,,,,,,,,,,,5,,,,,,,,,,,,2019_Apr_11_1426,60.5399802960245,Cloud_Experiment_FR_REAL,001,34,
,,,,,,,,,,,,,,,,,,,,,,,,,,,,,,,,,,,,,,,,5,,,,,,,,,,,2019_Apr_11_1426,60.5399802960245,Cloud_Experiment_FR_REAL,001,34,
,,,,,,,,,,,,,,,,,,,,,,,,,,,,,,,,,,,,,,,,,7,,,,,,,,,,2019_Apr_11_1426,60.5399802960245,Cloud_Experiment_FR_REAL,001,34,
,,,,,,,,,,,,,,,,,,,,,,,,,,,,,,,,,,,,,,,,,,5,,,,,,,,,2019_Apr_11_1426,60.5399802960245,Cloud_Experiment_FR_REAL,001,34,
,,,,,,,,,,,,,,,,,,,,,,,,,,,,,,,,,,,,,,,,,,,4,,,,,,,,2019_Apr_11_1426,60.5399802960245,Cloud_Experiment_FR_REAL,001,34,
,,,,,,,,,,,,,,,,,,,,,,,,,,,,,,,,,,,,,,,,,,,,,,,,space,5.7147825,,2019_Apr_11_1426,60.5399802960245,Cloud_Experiment_FR_REAL,001,34,
images/fcloud_D1.6_8.tif,1.6,0,,,,,,,,,,,,,0,0,0,33,,,,,,,,,,,4,space,4.1674796,3,2.433,,,,,,,,,,,,,,,,,,2019_Apr_11_1426,60.5399802960245,Cloud_Experiment_FR_REAL,001,34,
images/fcloud_D1.6_9.tif,1.6,0,,,,,,,,,,,,,0,1,1,34,,,,,,,,,,,1,space,6.04302160002,1,0.538,,,,,,,,,,,,,,,,,,2019_Apr_11_1426,60.5399802960245,Cloud_Experiment_FR_REAL,001,34,
images/fcloud80-20_D1.8_10.tif,1.8,2,,,,,,,,,,,,,0,2,2,139,,,,,,,,,,,None,None,,None,9.727,,,,,,,,,,,,,,,,,,2019_Apr_11_1426,60.5399802960245,Cloud_Experiment_FR_REAL,001,34,
images/fcloud80-20_D1.5_8.tif,1.5,2,,,,,,,,,,,,,0,3,3,125,,,,,,,,,,,2,space,5.66539419998,1,0.503,,,,,,,,,,,,,,,,,,2019_Apr_11_1426,60.5399802960245,Cloud_Experiment_FR_REAL,001,34,
images/fcloud65-35_D1.7_9.tif,1.7,1,,,,,,,,,,,,,0,4,4,86,,,,,,,,,,,None,None,,None,16.154,,,,,,,,,,,,,,,,,,2019_Apr_11_1426,60.5399802960245,Cloud_Experiment_FR_REAL,001,34,
images/fcloud_D0.8_9.tif,0.8,0,,,,,,,,,,,,,0,5,5,2,,,,,,,,,,,1,space,5.5655537,1,0.501,,,,,,,,,,,,,,,,,,2019_Apr_11_1426,60.5399802960245,Cloud_Experiment_FR_REAL,001,34,
images/fcloud80-20_D1.8_7.tif,1.8,2,,,,,,,,,,,,,0,6,6,136,,,,,,,,,,,None,None,,None,11.245,,,,,,,,,,,,,,,,,,2019_Apr_11_1426,60.5399802960245,Cloud_Experiment_FR_REAL,001,34,
images/fcloud_D1.6_7.tif,1.6,0,,,,,,,,,,,,,0,7,7,32,,,,,,,,,,,3,space,4.55776709999,2,0.901,,,,,,,,,,,,,,,,,,2019_Apr_11_1426,60.5399802960245,Cloud_Experiment_FR_REAL,001,34,
images/fcloud65-35_D1.9_7.tif,1.9,1,,,,,,,,,,,,,0,8,8,92,,,,,,,,,,,2,space,4.19135930002,3,0.435,,,,,,,,,,,,,,,,,,2019_Apr_11_1426,60.5399802960245,Cloud_Experiment_FR_REAL,001,34,
images/fcloud80-20_D1.6_10.tif,1.6,2,,,,,,,,,,,,,0,9,9,131,,,,,,,,,,,2,space,3.02379570002,1,0.719,,,,,,,,,,,,,,,,,,2019_Apr_11_1426,60.5399802960245,Cloud_Experiment_FR_REAL,001,34,
images/fcloud65-35_D1.2_7.tif,1.2,1,,,,,,,,,,,,,0,10,10,64,,,,,,,,,,,1,space,7.55969610001,5,1.818,,,,,,,,,,,,,,,,,,2019_Apr_11_1426,60.5399802960245,Cloud_Experiment_FR_REAL,001,34,
images/fcloud80-20_D1.4_10.tif,1.4,2,,,,,,,,,,,,,0,11,11,123,,,,,,,,,,,2,space,2.12613449999,2,0.786,,,,,,,,,,,,,,,,,,2019_Apr_11_1426,60.5399802960245,Cloud_Experiment_FR_REAL,001,34,
images/fcloud65-35_D1.6_9.tif,1.6,1,,,,,,,,,,,,,0,12,12,82,,,,,,,,,,,None,None,,None,9.226,,,,,,,,,,,,,,,,,,2019_Apr_11_1426,60.5399802960245,Cloud_Experiment_FR_REAL,001,34,
images/fcloud_D1.8_9.tif,1.8,0,,,,,,,,,,,,,0,13,13,42,,,,,,,,,,,None,None,,None,24.366,,,,,,,,,,,,,,,,,,2019_Apr_11_1426,60.5399802960245,Cloud_Experiment_FR_REAL,001,34,
images/fcloud_D1.4_9.tif,1.4,0,,,,,,,,,,,,,0,14,14,26,,,,,,,,,,,2,space,5.77743070002,1,0.702,,,,,,,,,,,,,,,,,,2019_Apr_11_1426,60.5399802960245,Cloud_Experiment_FR_REAL,001,34,
images/fcloud80-20_D0.8_7.tif,0.8,2,,,,,,,,,,,,,0,15,15,96,,,,,,,,,,,None,None,,None,10.044,,,,,,,,,,,,,,,,,,2019_Apr_11_1426,60.5399802960245,Cloud_Experiment_FR_REAL,001,34,
images/fcloud65-35_D0.8_8.tif,0.8,1,,,,,,,,,,,,,0,16,16,49,,,,,,,,,,,2,space,2.66028529999,4,0.936,,,,,,,,,,,,,,,,,,2019_Apr_11_1426,60.5399802960245,Cloud_Experiment_FR_REAL,001,34,
images/fcloud_D1_7.tif,1.0,0,,,,,,,,,,,,,0,17,17,8,,,,,,,,,,,1,space,2.32743459998,5,1.183,,,,,,,,,,,,,,,,,,2019_Apr_11_1426,60.5399802960245,Cloud_Experiment_FR_REAL,001,34,
images/fcloud65-35_D0.9_9.tif,0.9,1,,,,,,,,,,,,,0,18,18,54,,,,,,,,,,,None,None,,None,10.524,,,,,,,,,,,,,,,,,,2019_Apr_11_1426,60.5399802960245,Cloud_Experiment_FR_REAL,001,34,
images/fcloud65-35_D1.3_9.tif,1.3,1,,,,,,,,,,,,,0,19,19,70,,,,,,,,,,,3,None,,1,0.618,,,,,,,,,,,,,,,,,,2019_Apr_11_1426,60.5399802960245,Cloud_Experiment_FR_REAL,001,34,
images/fcloud80-20_D1.9_10.tif,1.9,2,,,,,,,,,,,,,0,20,20,143,,,,,,,,,,,None,None,,None,9.594,,,,,,,,,,,,,,,,,,2019_Apr_11_1426,60.5399802960245,Cloud_Experiment_FR_REAL,001,34,
images/fcloud_D1.5_8.tif,1.5,0,,,,,,,,,,,,,0,21,21,29,,,,,,,,,,,2,space,3.4251277,4,0.851,,,,,,,,,,,,,,,,,,2019_Apr_11_1426,60.5399802960245,Cloud_Experiment_FR_REAL,001,34,
images/fcloud65-35_D1.3_7.tif,1.3,1,,,,,,,,,,,,,0,22,22,68,,,,,,,,,,,None,None,,None,10.758,,,,,,,,,,,,,,,,,,2019_Apr_11_1426,60.5399802960245,Cloud_Experiment_FR_REAL,001,34,
images/fcloud65-35_D1.7_7.tif,1.7,1,,,,,,,,,,,,,0,23,23,84,,,,,,,,,,,3,space,3.16115629999,2,0.471,,,,,,,,,,,,,,,,,,2019_Apr_11_1426,60.5399802960245,Cloud_Experiment_FR_REAL,001,34,
images/fcloud65-35_D1.8_9.tif,1.8,1,,,,,,,,,,,,,0,24,24,90,,,,,,,,,,,1,space,6.2219569,3,0.452,,,,,,,,,,,,,,,,,,2019_Apr_11_1426,60.5399802960245,Cloud_Experiment_FR_REAL,001,34,
images/fcloud_D1.7_10.tif,1.7,0,,,,,,,,,,,,,0,25,25,39,,,,,,,,,,,1,space,6.82536270001,1,0.586,,,,,,,,,,,,,,,,,,2019_Apr_11_1426,60.5399802960245,Cloud_Experiment_FR_REAL,001,34,
images/fcloud_D1.3_7.tif,1.3,0,,,,,,,,,,,,,0,26,26,20,,,,,,,,,,,3,space,2.84799810001,4,0.718,,,,,,,,,,,,,,,,,,2019_Apr_11_1426,60.5399802960245,Cloud_Experiment_FR_REAL,001,34,
images/fcloud80-20_D1.5_10.tif,1.5,2,,,,,,,,,,,,,0,27,27,127,,,,,,,,,,,None,None,,None,10.144,,,,,,,,,,,,,,,,,,2019_Apr_11_1426,60.5399802960245,Cloud_Experiment_FR_REAL,001,34,
images/fcloud80-20_D1.5_7.tif,1.5,2,,,,,,,,,,,,,0,28,28,124,,,,,,,,,,,3,space,2.15203520001,1,1.268,,,,,,,,,,,,,,,,,,2019_Apr_11_1426,60.5399802960245,Cloud_Experiment_FR_REAL,001,34,
images/fcloud80-20_D1.3_10.tif,1.3,2,,,,,,,,,,,,,0,29,29,119,,,,,,,,,,,None,None,,None,11.291,,,,,,,,,,,,,,,,,,2019_Apr_11_1426,60.5399802960245,Cloud_Experiment_FR_REAL,001,34,
images/fcloud65-35_D1.9_9.tif,1.9,1,,,,,,,,,,,,,0,30,30,94,,,,,,,,,,,2,space,2.653231,3,0.569,,,,,,,,,,,,,,,,,,2019_Apr_11_1426,60.5399802960245,Cloud_Experiment_FR_REAL,001,34,
images/fcloud_D1.1_7.tif,1.1,0,,,,,,,,,,,,,0,31,31,12,,,,,,,,,,,2,None,,3,0.485,,,,,,,,,,,,,,,,,,2019_Apr_11_1426,60.5399802960245,Cloud_Experiment_FR_REAL,001,34,
images/fcloud65-35_D1.8_10.tif,1.8,1,,,,,,,,,,,,,0,32,32,91,,,,,,,,,,,1,space,7.0746466,1,0.552,,,,,,,,,,,,,,,,,,2019_Apr_11_1426,60.5399802960245,Cloud_Experiment_FR_REAL,001,34,
images/fcloud80-20_D1.2_9.tif,1.2,2,,,,,,,,,,,,,0,33,33,114,,,,,,,,,,,None,None,,None,13.773,,,,,,,,,,,,,,,,,,2019_Apr_11_1426,60.5399802960245,Cloud_Experiment_FR_REAL,001,34,
images/fcloud80-20_D1.1_8.tif,1.1,2,,,,,,,,,,,,,0,34,34,109,,,,,,,,,,,2,space,4.48736980002,5,1.502,,,,,,,,,,,,,,,,,,2019_Apr_11_1426,60.5399802960245,Cloud_Experiment_FR_REAL,001,34,
images/fcloud_D0.9_10.tif,0.9,0,,,,,,,,,,,,,0,35,35,7,,,,,,,,,,,1,space,6.716078,2,0.517,,,,,,,,,,,,,,,,,,2019_Apr_11_1426,60.5399802960245,Cloud_Experiment_FR_REAL,001,34,
images/fcloud65-35_D1.2_10.tif,1.2,1,,,,,,,,,,,,,0,36,36,67,,,,,,,,,,,None,None,,None,13.524,,,,,,,,,,,,,,,,,,2019_Apr_11_1426,60.5399802960245,Cloud_Experiment_FR_REAL,001,34,
images/fcloud_D1.9_7.tif,1.9,0,,,,,,,,,,,,,0,37,37,44,,,,,,,,,,,None,None,,None,23.479,,,,,,,,,,,,,,,,,,2019_Apr_11_1426,60.5399802960245,Cloud_Experiment_FR_REAL,001,34,
images/fcloud80-20_D1.8_8.tif,1.8,2,,,,,,,,,,,,,0,38,38,137,,,,,,,,,,,None,None,,None,32.772,,,,,,,,,,,,,,,,,,2019_Apr_11_1426,60.5399802960245,Cloud_Experiment_FR_REAL,001,34,
images/fcloud_D0.9_7.tif,0.9,0,,,,,,,,,,,,,0,39,39,4,,,,,,,,,,,4,space,1.97582250001,1,1.467,,,,,,,,,,,,,,,,,,2019_Apr_11_1426,60.5399802960245,Cloud_Experiment_FR_REAL,001,34,
images/fcloud_D1_8.tif,1.0,0,,,,,,,,,,,,,0,40,40,9,,,,,,,,,,,3,space,4.61117439999,2,1.052,,,,,,,,,,,,,,,,,,2019_Apr_11_1426,60.5399802960245,Cloud_Experiment_FR_REAL,001,34,
images/fcloud65-35_D1.7_10.tif,1.7,1,,,,,,,,,,,,,0,41,41,87,,,,,,,,,,,None,None,,None,16.571,,,,,,,,,,,,,,,,,,2019_Apr_11_1426,60.5399802960245,Cloud_Experiment_FR_REAL,001,34,
images/fcloud_D1.1_10.tif,1.1,0,,,,,,,,,,,,,0,42,42,15,,,,,,,,,,,4,space,3.4236298,4,1.717,,,,,,,,,,,,,,,,,,2019_Apr_11_1426,60.5399802960245,Cloud_Experiment_FR_REAL,001,34,
images/fcloud80-20_D1.4_9.tif,1.4,2,,,,,,,,,,,,,0,43,43,122,,,,,,,,,,,2,space,5.17776009999,3,0.635,,,,,,,,,,,,,,,,,,2019_Apr_11_1426,60.5399802960245,Cloud_Experiment_FR_REAL,001,34,
images/fcloud65-35_D0.9_8.tif,0.9,1,,,,,,,,,,,,,0,44,44,53,,,,,,,,,,,None,None,,None,9.961,,,,,,,,,,,,,,,,,,2019_Apr_11_1426,60.5399802960245,Cloud_Experiment_FR_REAL,001,34,
images/fcloud_D1.1_9.tif,1.1,0,,,,,,,,,,,,,0,45,45,14,,,,,,,,,,,4,space,4.387961,5,0.568,,,,,,,,,,,,,,,,,,2019_Apr_11_1426,60.5399802960245,Cloud_Experiment_FR_REAL,001,34,
images/fcloud65-35_D1.6_10.tif,1.6,1,,,,,,,,,,,,,0,46,46,83,,,,,,,,,,,2,space,4.74528040001,1,0.484,,,,,,,,,,,,,,,,,,2019_Apr_11_1426,60.5399802960245,Cloud_Experiment_FR_REAL,001,34,
images/fcloud_D1.8_8.tif,1.8,0,,,,,,,,,,,,,0,47,47,41,,,,,,,,,,,1,None,,1,0.403,,,,,,,,,,,,,,,,,,2019_Apr_11_1426,60.5399802960245,Cloud_Experiment_FR_REAL,001,34,
images/fcloud80-20_D1.3_7.tif,1.3,2,,,,,,,,,,,,,0,48,48,116,,,,,,,,,,,None,None,,None,9.511,,,,,,,,,,,,,,,,,,2019_Apr_11_1426,60.5399802960245,Cloud_Experiment_FR_REAL,001,34,
images/fcloud65-35_D1.5_8.tif,1.5,1,,,,,,,,,,,,,0,49,49,77,,,,,,,,,,,2,space,3.47692859999,1,0.469,,,,,,,,,,,,,,,,,,2019_Apr_11_1426,60.5399802960245,Cloud_Experiment_FR_REAL,001,34,
images/fcloud80-20_D0.9_10.tif,0.9,2,,,,,,,,,,,,,0,50,50,103,,,,,,,,,,,2,space,5.4920381,1,0.452,,,,,,,,,,,,,,,,,,2019_Apr_11_1426,60.5399802960245,Cloud_Experiment_FR_REAL,001,34,
images/fcloud_D1.3_10.tif,1.3,0,,,,,,,,,,,,,0,51,51,23,,,,,,,,,,,2,space,4.57335419999,4,0.77,,,,,,,,,,,,,,,,,,2019_Apr_11_1426,60.5399802960245,Cloud_Experiment_FR_REAL,001,34,
images/fcloud65-35_D1.5_7.tif,1.5,1,,,,,,,,,,,,,0,52,52,76,,,,,,,,,,,None,None,,None,9.845,,,,,,,,,,,,,,,,,,2019_Apr_11_1426,60.5399802960245,Cloud_Experiment_FR_REAL,001,34,
images/fcloud_D1.5_9.tif,1.5,0,,,,,,,,,,,,,0,53,53,30,,,,,,,,,,,2,space,4.0026677,3,0.451,,,,,,,,,,,,,,,,,,2019_Apr_11_1426,60.5399802960245,Cloud_Experiment_FR_REAL,001,34,
images/fcloud80-20_D1.5_9.tif,1.5,2,,,,,,,,,,,,,0,54,54,126,,,,,,,,,,,None,None,,None,10.759,,,,,,,,,,,,,,,,,,2019_Apr_11_1426,60.5399802960245,Cloud_Experiment_FR_REAL,001,34,
images/fcloud_D1.8_10.tif,1.8,0,,,,,,,,,,,,,0,55,55,43,,,,,,,,,,,2,space,7.3992628,4,0.835,,,,,,,,,,,,,,,,,,2019_Apr_11_1426,60.5399802960245,Cloud_Experiment_FR_REAL,001,34,
images/fcloud_D1_9.tif,1.0,0,,,,,,,,,,,,,0,56,56,10,,,,,,,,,,,None,None,,None,11.859,,,,,,,,,,,,,,,,,,2019_Apr_11_1426,60.5399802960245,Cloud_Experiment_FR_REAL,001,34,
images/fcloud80-20_D1.6_7.tif,1.6,2,,,,,,,,,,,,,0,57,57,128,,,,,,,,,,,None,None,,None,21.482,,,,,,,,,,,,,,,,,,2019_Apr_11_1426,60.5399802960245,Cloud_Experiment_FR_REAL,001,34,
images/fcloud65-35_D1.4_7.tif,1.4,1,,,,,,,,,,,,,0,58,58,72,,,,,,,,,,,1,None,,1,0.551,,,,,,,,,,,,,,,,,,2019_Apr_11_1426,60.5399802960245,Cloud_Experiment_FR_REAL,001,34,
images/fcloud80-20_D1.1_9.tif,1.1,2,,,,,,,,,,,,,0,59,59,110,,,,,,,,,,,2,space,3.62616180003,3,0.503,,,,,,,,,,,,,,,,,,2019_Apr_11_1426,60.5399802960245,Cloud_Experiment_FR_REAL,001,34,
images/fcloud_D1.7_8.tif,1.7,0,,,,,,,,,,,,,0,60,60,37,,,,,,,,,,,3,space,4.78292330002,2,1.105,,,,,,,,,,,,,,,,,,2019_Apr_11_1426,60.5399802960245,Cloud_Experiment_FR_REAL,001,34,
images/fcloud65-35_D1_10.tif,1.0,1,,,,,,,,,,,,,0,61,61,59,,,,,,,,,,,2,space,5.42925839999,1,0.467,,,,,,,,,,,,,,,,,,2019_Apr_11_1426,60.5399802960245,Cloud_Experiment_FR_REAL,001,34,
images/fcloud65-35_D1.5_10.tif,1.5,1,,,,,,,,,,,,,0,62,62,79,,,,,,,,,,,None,None,,None,9.977,,,,,,,,,,,,,,,,,,2019_Apr_11_1426,60.5399802960245,Cloud_Experiment_FR_REAL,001,34,
images/fcloud_D1.2_7.tif,1.2,0,,,,,,,,,,,,,0,63,63,16,,,,,,,,,,,4,space,3.64529750001,2,1.817,,,,,,,,,,,,,,,,,,2019_Apr_11_1426,60.5399802960245,Cloud_Experiment_FR_REAL,001,34,
images/fcloud80-20_D0.8_8.tif,0.8,2,,,,,,,,,,,,,0,64,64,97,,,,,,,,,,,2,space,4.33920250001,4,0.635,,,,,,,,,,,,,,,,,,2019_Apr_11_1426,60.5399802960245,Cloud_Experiment_FR_REAL,001,34,
images/fcloud65-35_D1.8_7.tif,1.8,1,,,,,,,,,,,,,0,65,65,88,,,,,,,,,,,None,None,,None,10.06,,,,,,,,,,,,,,,,,,2019_Apr_11_1426,60.5399802960245,Cloud_Experiment_FR_REAL,001,34,
images/fcloud65-35_D1.6_7.tif,1.6,1,,,,,,,,,,,,,0,66,66,80,,,,,,,,,,,2,space,2.07748140002,4,0.551,,,,,,,,,,,,,,,,,,2019_Apr_11_1426,60.5399802960245,Cloud_Experiment_FR_REAL,001,34,
images/fcloud80-20_D1.7_9.tif,1.7,2,,,,,,,,,,,,,0,67,67,134,,,,,,,,,,,1,None,,1,0.983,,,,,,,,,,,,,,,,,,2019_Apr_11_1426,60.5399802960245,Cloud_Experiment_FR_REAL,001,34,
images/fcloud80-20_D1.2_7.tif,1.2,2,,,,,,,,,,,,,0,68,68,112,,,,,,,,,,,2,space,7.0796118,2,0.718,,,,,,,,,,,,,,,,,,2019_Apr_11_1426,60.5399802960245,Cloud_Experiment_FR_REAL,001,34,
images/fcloud80-20_D1_9.tif,1.0,2,,,,,,,,,,,,,0,69,69,106,,,,,,,,,,,3,space,4.10468009999,1,0.436,,,,,,,,,,,,,,,,,,2019_Apr_11_1426,60.5399802960245,Cloud_Experiment_FR_REAL,001,34,
images/fcloud_D1.8_7.tif,1.8,0,,,,,,,,,,,,,0,70,70,40,,,,,,,,,,,4,None,,3,2.616,,,,,,,,,,,,,,,,,,2019_Apr_11_1426,60.5399802960245,Cloud_Experiment_FR_REAL,001,34,
images/fcloud80-20_D1.1_10.tif,1.1,2,,,,,,,,,,,,,0,71,71,111,,,,,,,,,,,None,None,,None,12.34,,,,,,,,,,,,,,,,,,2019_Apr_11_1426,60.5399802960245,Cloud_Experiment_FR_REAL,001,34,
images/fcloud80-20_D1.9_7.tif,1.9,2,,,,,,,,,,,,,0,72,72,140,,,,,,,,,,,None,None,,None,22.181,,,,,,,,,,,,,,,,,,2019_Apr_11_1426,60.5399802960245,Cloud_Experiment_FR_REAL,001,34,
images/fcloud_D1.5_10.tif,1.5,0,,,,,,,,,,,,,0,73,73,31,,,,,,,,,,,5,space,4.6206274,2,1.002,,,,,,,,,,,,,,,,,,2019_Apr_11_1426,60.5399802960245,Cloud_Experiment_FR_REAL,001,34,
images/fcloud65-35_D0.8_10.tif,0.8,1,,,,,,,,,,,,,0,74,74,51,,,,,,,,,,,1,space,4.6576416,1,0.919,,,,,,,,,,,,,,,,,,2019_Apr_11_1426,60.5399802960245,Cloud_Experiment_FR_REAL,001,34,
images/fcloud_D1.4_7.tif,1.4,0,,,,,,,,,,,,,0,75,75,24,,,,,,,,,,,5,space,4.21928279998,1,0.701,,,,,,,,,,,,,,,,,,2019_Apr_11_1426,60.5399802960245,Cloud_Experiment_FR_REAL,001,34,
images/fcloud80-20_D1.3_9.tif,1.3,2,,,,,,,,,,,,,0,76,76,118,,,,,,,,,,,3,space,6.8581935,1,0.418,,,,,,,,,,,,,,,,,,2019_Apr_11_1426,60.5399802960245,Cloud_Experiment_FR_REAL,001,34,
images/fcloud80-20_D1.3_8.tif,1.3,2,,,,,,,,,,,,,0,77,77,117,,,,,,,,,,,2,None,,1,0.503,,,,,,,,,,,,,,,,,,2019_Apr_11_1426,60.5399802960245,Cloud_Experiment_FR_REAL,001,34,
images/fcloud_D0.8_7.tif,0.8,0,,,,,,,,,,,,,0,78,78,0,,,,,,,,,,,2,space,5.07780249999,1,0.502,,,,,,,,,,,,,,,,,,2019_Apr_11_1426,60.5399802960245,Cloud_Experiment_FR_REAL,001,34,
images/fcloud_D1.4_10.tif,1.4,0,,,,,,,,,,,,,0,79,79,27,,,,,,,,,,,2,space,3.0960239,2,0.719,,,,,,,,,,,,,,,,,,2019_Apr_11_1426,60.5399802960245,Cloud_Experiment_FR_REAL,001,34,
images/fcloud_D0.8_8.tif,0.8,0,,,,,,,,,,,,,0,80,80,1,,,,,,,,,,,None,None,,None,10.025,,,,,,,,,,,,,,,,,,2019_Apr_11_1426,60.5399802960245,Cloud_Experiment_FR_REAL,001,34,
images/fcloud80-20_D1.8_9.tif,1.8,2,,,,,,,,,,,,,0,81,81,138,,,,,,,,,,,1,space,5.1767679,2,1.435,,,,,,,,,,,,,,,,,,2019_Apr_11_1426,60.5399802960245,Cloud_Experiment_FR_REAL,001,34,
images/fcloud80-20_D1_8.tif,1.0,2,,,,,,,,,,,,,0,82,82,105,,,,,,,,,,,1,None,,2,1.501,,,,,,,,,,,,,,,,,,2019_Apr_11_1426,60.5399802960245,Cloud_Experiment_FR_REAL,001,34,
images/fcloud80-20_D1.7_8.tif,1.7,2,,,,,,,,,,,,,0,83,83,133,,,,,,,,,,,None,None,,None,10.724,,,,,,,,,,,,,,,,,,2019_Apr_11_1426,60.5399802960245,Cloud_Experiment_FR_REAL,001,34,
images/fcloud65-35_D1.9_8.tif,1.9,1,,,,,,,,,,,,,0,84,84,93,,,,,,,,,,,2,None,,1,0.601,,,,,,,,,,,,,,,,,,2019_Apr_11_1426,60.5399802960245,Cloud_Experiment_FR_REAL,001,34,
images/fcloud_D1.3_9.tif,1.3,0,,,,,,,,,,,,,0,85,85,22,,,,,,,,,,,3,space,4.62625489998,3,1.484,,,,,,,,,,,,,,,,,,2019_Apr_11_1426,60.5399802960245,Cloud_Experiment_FR_REAL,001,34,
images/fcloud_D1.2_9.tif,1.2,0,,,,,,,,,,,,,0,86,86,18,,,,,,,,,,,1,space,7.9226245,5,1.6,,,,,,,,,,,,,,,,,,2019_Apr_11_1426,60.5399802960245,Cloud_Experiment_FR_REAL,001,34,
images/fcloud_D1.9_8.tif,1.9,0,,,,,,,,,,,,,0,87,87,45,,,,,,,,,,,3,space,4.1446111,2,1.218,,,,,,,,,,,,,,,,,,2019_Apr_11_1426,60.5399802960245,Cloud_Experiment_FR_REAL,001,34,
images/fcloud80-20_D0.9_9.tif,0.9,2,,,,,,,,,,,,,0,88,88,102,,,,,,,,,,,None,None,,None,14.872,,,,,,,,,,,,,,,,,,2019_Apr_11_1426,60.5399802960245,Cloud_Experiment_FR_REAL,001,34,
images/fcloud80-20_D1.6_8.tif,1.6,2,,,,,,,,,,,,,0,89,89,129,,,,,,,,,,,None,None,,None,24.079,,,,,,,,,,,,,,,,,,2019_Apr_11_1426,60.5399802960245,Cloud_Experiment_FR_REAL,001,34,
images/fcloud80-20_D1_10.tif,1.0,2,,,,,,,,,,,,,0,90,90,107,,,,,,,,,,,None,None,,None,35.77,,,,,,,,,,,,,,,,,,2019_Apr_11_1426,60.5399802960245,Cloud_Experiment_FR_REAL,001,34,
images/fcloud65-35_D1.3_10.tif,1.3,1,,,,,,,,,,,,,0,91,91,71,,,,,,,,,,,3,space,3.25909119999,1,2.002,,,,,,,,,,,,,,,,,,2019_Apr_11_1426,60.5399802960245,Cloud_Experiment_FR_REAL,001,34,
images/fcloud65-35_D1_8.tif,1.0,1,,,,,,,,,,,,,0,92,92,57,,,,,,,,,,,None,None,,None,13.289,,,,,,,,,,,,,,,,,,2019_Apr_11_1426,60.5399802960245,Cloud_Experiment_FR_REAL,001,34,
images/fcloud65-35_D0.8_7.tif,0.8,1,,,,,,,,,,,,,0,93,93,48,,,,,,,,,,,1,space,4.85258000001,4,2.418,,,,,,,,,,,,,,,,,,2019_Apr_11_1426,60.5399802960245,Cloud_Experiment_FR_REAL,001,34,
images/fcloud_D1_10.tif,1.0,0,,,,,,,,,,,,,0,94,94,11,,,,,,,,,,,2,space,4.39396679998,1,0.484,,,,,,,,,,,,,,,,,,2019_Apr_11_1426,60.5399802960245,Cloud_Experiment_FR_REAL,001,34,
images/fcloud65-35_D1.4_8.tif,1.4,1,,,,,,,,,,,,,0,95,95,73,,,,,,,,,,,2,None,,1,0.486,,,,,,,,,,,,,,,,,,2019_Apr_11_1426,60.5399802960245,Cloud_Experiment_FR_REAL,001,34,
images/fcloud65-35_D0.9_7.tif,0.9,1,,,,,,,,,,,,,0,96,96,52,,,,,,,,,,,None,None,,None,9.825,,,,,,,,,,,,,,,,,,2019_Apr_11_1426,60.5399802960245,Cloud_Experiment_FR_REAL,001,34,
images/fcloud80-20_D0.8_10.tif,0.8,2,,,,,,,,,,,,,0,97,97,99,,,,,,,,,,,None,None,,None,19.35,,,,,,,,,,,,,,,,,,2019_Apr_11_1426,60.5399802960245,Cloud_Experiment_FR_REAL,001,34,
images/fcloud80-20_D0.8_9.tif,0.8,2,,,,,,,,,,,,,0,98,98,98,,,,,,,,,,,1,None,,1,0.721,,,,,,,,,,,,,,,,,,2019_Apr_11_1426,60.5399802960245,Cloud_Experiment_FR_REAL,001,34,
images/fcloud_D1.9_9.tif,1.9,0,,,,,,,,,,,,,0,99,99,46,,,,,,,,,,,1,space,4.91488880001,1,0.637,,,,,,,,,,,,,,,,,,2019_Apr_11_1426,60.5399802960245,Cloud_Experiment_FR_REAL,001,34,
images/fcloud65-35_D1_9.tif,1.0,1,,,,,,,,,,,,,0,100,100,58,,,,,,,,,,,None,None,,None,9.693,,,,,,,,,,,,,,,,,,2019_Apr_11_1426,60.5399802960245,Cloud_Experiment_FR_REAL,001,34,
images/fcloud65-35_D1.1_7.tif,1.1,1,,,,,,,,,,,,,0,101,101,60,,,,,,,,,,,2,space,3.22394619999,4,0.535,,,,,,,,,,,,,,,,,,2019_Apr_11_1426,60.5399802960245,Cloud_Experiment_FR_REAL,001,34,
images/fcloud65-35_D1.9_10.tif,1.9,1,,,,,,,,,,,,,0,102,102,95,,,,,,,,,,,2,space,3.34582589997,1,0.571,,,,,,,,,,,,,,,,,,2019_Apr_11_1426,60.5399802960245,Cloud_Experiment_FR_REAL,001,34,
images/fcloud65-35_D1.1_10.tif,1.1,1,,,,,,,,,,,,,0,103,103,63,,,,,,,,,,,1,space,5.37785309998,1,0.518,,,,,,,,,,,,,,,,,,2019_Apr_11_1426,60.5399802960245,Cloud_Experiment_FR_REAL,001,34,
images/fcloud_D0.9_9.tif,0.9,0,,,,,,,,,,,,,0,104,104,6,,,,,,,,,,,2,None,,5,3.733,,,,,,,,,,,,,,,,,,2019_Apr_11_1426,60.5399802960245,Cloud_Experiment_FR_REAL,001,34,
images/fcloud65-35_D1.1_8.tif,1.1,1,,,,,,,,,,,,,0,105,105,61,,,,,,,,,,,2,space,2.7857523,1,0.536,,,,,,,,,,,,,,,,,,2019_Apr_11_1426,60.5399802960245,Cloud_Experiment_FR_REAL,001,34,
images/fcloud65-35_D1.2_8.tif,1.2,1,,,,,,,,,,,,,0,106,106,65,,,,,,,,,,,1,None,,1,0.486,,,,,,,,,,,,,,,,,,2019_Apr_11_1426,60.5399802960245,Cloud_Experiment_FR_REAL,001,34,
images/fcloud_D1.4_8.tif,1.4,0,,,,,,,,,,,,,0,107,107,25,,,,,,,,,,,None,None,,None,10.125,,,,,,,,,,,,,,,,,,2019_Apr_11_1426,60.5399802960245,Cloud_Experiment_FR_REAL,001,34,
images/fcloud80-20_D1.9_9.tif,1.9,2,,,,,,,,,,,,,0,108,108,142,,,,,,,,,,,None,None,,None,19.433,,,,,,,,,,,,,,,,,,2019_Apr_11_1426,60.5399802960245,Cloud_Experiment_FR_REAL,001,34,
images/fcloud80-20_D1_7.tif,1.0,2,,,,,,,,,,,,,0,109,109,104,,,,,,,,,,,1,space,1.8628497,3,0.651,,,,,,,,,,,,,,,,,,2019_Apr_11_1426,60.5399802960245,Cloud_Experiment_FR_REAL,001,34,
images/fcloud65-35_D1.7_8.tif,1.7,1,,,,,,,,,,,,,0,110,110,85,,,,,,,,,,,3,space,3.67505760002,1,1.084,,,,,,,,,,,,,,,,,,2019_Apr_11_1426,60.5399802960245,Cloud_Experiment_FR_REAL,001,34,
images/fcloud65-35_D1_7.tif,1.0,1,,,,,,,,,,,,,0,111,111,56,,,,,,,,,,,2,None,,1,0.568,,,,,,,,,,,,,,,,,,2019_Apr_11_1426,60.5399802960245,Cloud_Experiment_FR_REAL,001,34,
images/fcloud80-20_D1.6_9.tif,1.6,2,,,,,,,,,,,,,0,112,112,130,,,,,,,,,,,None,None,,None,9.828,,,,,,,,,,,,,,,,,,2019_Apr_11_1426,60.5399802960245,Cloud_Experiment_FR_REAL,001,34,
images/fcloud80-20_D1.1_7.tif,1.1,2,,,,,,,,,,,,,0,113,113,108,,,,,,,,,,,2,space,3.09369199999,4,0.569,,,,,,,,,,,,,,,,,,2019_Apr_11_1426,60.5399802960245,Cloud_Experiment_FR_REAL,001,34,
images/fcloud80-20_D0.9_7.tif,0.9,2,,,,,,,,,,,,,0,114,114,100,,,,,,,,,,,1,None,,1,0.453,,,,,,,,,,,,,,,,,,2019_Apr_11_1426,60.5399802960245,Cloud_Experiment_FR_REAL,001,34,
images/fcloud_D1.1_8.tif,1.1,0,,,,,,,,,,,,,0,115,115,13,,,,,,,,,,,None,None,,None,9.693,,,,,,,,,,,,,,,,,,2019_Apr_11_1426,60.5399802960245,Cloud_Experiment_FR_REAL,001,34,
images/fcloud_D1.6_10.tif,1.6,0,,,,,,,,,,,,,0,116,116,35,,,,,,,,,,,2,space,2.05497230001,1,0.818,,,,,,,,,,,,,,,,,,2019_Apr_11_1426,60.5399802960245,Cloud_Experiment_FR_REAL,001,34,
images/fcloud80-20_D0.9_8.tif,0.9,2,,,,,,,,,,,,,0,117,117,101,,,,,,,,,,,1,None,,1,0.503,,,,,,,,,,,,,,,,,,2019_Apr_11_1426,60.5399802960245,Cloud_Experiment_FR_REAL,001,34,
images/fcloud80-20_D1.7_7.tif,1.7,2,,,,,,,,,,,,,0,118,118,132,,,,,,,,,,,None,None,,None,9.844,,,,,,,,,,,,,,,,,,2019_Apr_11_1426,60.5399802960245,Cloud_Experiment_FR_REAL,001,34,
images/fcloud_D1.3_8.tif,1.3,0,,,,,,,,,,,,,0,119,119,21,,,,,,,,,,,1,space,7.3690909,5,3.15,,,,,,,,,,,,,,,,,,2019_Apr_11_1426,60.5399802960245,Cloud_Experiment_FR_REAL,001,34,
images/fcloud65-35_D1.5_9.tif,1.5,1,,,,,,,,,,,,,0,120,120,78,,,,,,,,,,,None,None,,None,12.741,,,,,,,,,,,,,,,,,,2019_Apr_11_1426,60.5399802960245,Cloud_Experiment_FR_REAL,001,34,
images/fcloud65-35_D0.8_9.tif,0.8,1,,,,,,,,,,,,,0,121,121,50,,,,,,,,,,,2,space,5.23164860002,1,0.452,,,,,,,,,,,,,,,,,,2019_Apr_11_1426,60.5399802960245,Cloud_Experiment_FR_REAL,001,34,
images/fcloud_D1.2_8.tif,1.2,0,,,,,,,,,,,,,0,122,122,17,,,,,,,,,,,3,space,6.78233290001,3,1.036,,,,,,,,,,,,,,,,,,2019_Apr_11_1426,60.5399802960245,Cloud_Experiment_FR_REAL,001,34,
images/fcloud_D0.9_8.tif,0.9,0,,,,,,,,,,,,,0,123,123,5,,,,,,,,,,,3,space,4.17753709998,2,0.703,,,,,,,,,,,,,,,,,,2019_Apr_11_1426,60.5399802960245,Cloud_Experiment_FR_REAL,001,34,
images/fcloud65-35_D1.4_9.tif,1.4,1,,,,,,,,,,,,,0,124,124,74,,,,,,,,,,,2,space,2.6154143,1,1.252,,,,,,,,,,,,,,,,,,2019_Apr_11_1426,60.5399802960245,Cloud_Experiment_FR_REAL,001,34,
images/fcloud65-35_D0.9_10.tif,0.9,1,,,,,,,,,,,,,0,125,125,55,,,,,,,,,,,3,space,4.19368510001,2,0.535,,,,,,,,,,,,,,,,,,2019_Apr_11_1426,60.5399802960245,Cloud_Experiment_FR_REAL,001,34,
images/fcloud65-35_D1.2_9.tif,1.2,1,,,,,,,,,,,,,0,126,126,66,,,,,,,,,,,None,None,,None,9.893,,,,,,,,,,,,,,,,,,2019_Apr_11_1426,60.5399802960245,Cloud_Experiment_FR_REAL,001,34,
images/fcloud65-35_D1.6_8.tif,1.6,1,,,,,,,,,,,,,0,127,127,81,,,,,,,,,,,2,space,3.08114189998,1,0.636,,,,,,,,,,,,,,,,,,2019_Apr_11_1426,60.5399802960245,Cloud_Experiment_FR_REAL,001,34,
images/fcloud80-20_D1.4_7.tif,1.4,2,,,,,,,,,,,,,0,128,128,120,,,,,,,,,,,3,space,3.09113709998,1,0.519,,,,,,,,,,,,,,,,,,2019_Apr_11_1426,60.5399802960245,Cloud_Experiment_FR_REAL,001,34,
images/fcloud65-35_D1.1_9.tif,1.1,1,,,,,,,,,,,,,0,129,129,62,,,,,,,,,,,2,None,,3,1.333,,,,,,,,,,,,,,,,,,2019_Apr_11_1426,60.5399802960245,Cloud_Experiment_FR_REAL,001,34,
images/fcloud_D0.8_10.tif,0.8,0,,,,,,,,,,,,,0,130,130,3,,,,,,,,,,,None,None,,None,11.141,,,,,,,,,,,,,,,,,,2019_Apr_11_1426,60.5399802960245,Cloud_Experiment_FR_REAL,001,34,
images/fcloud80-20_D1.7_10.tif,1.7,2,,,,,,,,,,,,,0,131,131,135,,,,,,,,,,,None,None,,None,20.486,,,,,,,,,,,,,,,,,,2019_Apr_11_1426,60.5399802960245,Cloud_Experiment_FR_REAL,001,34,
images/fcloud_D1.9_10.tif,1.9,0,,,,,,,,,,,,,0,132,132,47,,,,,,,,,,,None,None,,None,29.974,,,,,,,,,,,,,,,,,,2019_Apr_11_1426,60.5399802960245,Cloud_Experiment_FR_REAL,001,34,
images/fcloud80-20_D1.2_8.tif,1.2,2,,,,,,,,,,,,,0,133,133,113,,,,,,,,,,,2,space,1.57523810002,1,1.018,,,,,,,,,,,,,,,,,,2019_Apr_11_1426,60.5399802960245,Cloud_Experiment_FR_REAL,001,34,
images/fcloud65-35_D1.4_10.tif,1.4,1,,,,,,,,,,,,,0,134,134,75,,,,,,,,,,,None,None,,None,16.652,,,,,,,,,,,,,,,,,,2019_Apr_11_1426,60.5399802960245,Cloud_Experiment_FR_REAL,001,34,
images/fcloud_D1.2_10.tif,1.2,0,,,,,,,,,,,,,0,135,135,19,,,,,,,,,,,1,space,6.77773639999,1,1.085,,,,,,,,,,,,,,,,,,2019_Apr_11_1426,60.5399802960245,Cloud_Experiment_FR_REAL,001,34,
images/fcloud80-20_D1.9_8.tif,1.9,2,,,,,,,,,,,,,0,136,136,141,,,,,,,,,,,1,None,,1,0.436,,,,,,,,,,,,,,,,,,2019_Apr_11_1426,60.5399802960245,Cloud_Experiment_FR_REAL,001,34,
images/fcloud65-35_D1.3_8.tif,1.3,1,,,,,,,,,,,,,0,137,137,69,,,,,,,,,,,None,None,,None,10.226,,,,,,,,,,,,,,,,,,2019_Apr_11_1426,60.5399802960245,Cloud_Experiment_FR_REAL,001,34,
images/fcloud80-20_D1.2_10.tif,1.2,2,,,,,,,,,,,,,0,138,138,115,,,,,,,,,,,2,space,4.60318459998,4,0.652,,,,,,,,,,,,,,,,,,2019_Apr_11_1426,60.5399802960245,Cloud_Experiment_FR_REAL,001,34,
images/fcloud80-20_D1.4_8.tif,1.4,2,,,,,,,,,,,,,0,139,139,121,,,,,,,,,,,2,space,2.8442622,1,0.451,,,,,,,,,,,,,,,,,,2019_Apr_11_1426,60.5399802960245,Cloud_Experiment_FR_REAL,001,34,
images/fcloud_D1.7_7.tif,1.7,0,,,,,,,,,,,,,0,140,140,36,,,,,,,,,,,3,space,2.74406289999,3,0.985,,,,,,,,,,,,,,,,,,2019_Apr_11_1426,60.5399802960245,Cloud_Experiment_FR_REAL,001,34,
images/fcloud_D1.5_7.tif,1.5,0,,,,,,,,,,,,,0,141,141,28,,,,,,,,,,,2,space,5.8562414,1,0.435,,,,,,,,,,,,,,,,,,2019_Apr_11_1426,60.5399802960245,Cloud_Experiment_FR_REAL,001,34,
images/fcloud_D1.7_9.tif,1.7,0,,,,,,,,,,,,,0,142,142,38,,,,,,,,,,,None,None,,None,10.463,,,,,,,,,,,,,,,,,,2019_Apr_11_1426,60.5399802960245,Cloud_Experiment_FR_REAL,001,34,
images/fcloud65-35_D1.8_8.tif,1.8,1,,,,,,,,,,,,,0,143,143,89,,,,,,,,,,,2,space,7.29288779999,1,0.485,,,,,,,,,,,,,,,,,,2019_Apr_11_1426,60.5399802960245,Cloud_Experiment_FR_REAL,001,34,
,,,,,,,,,,,,,,,,,,,,,,,,,8,24.123,,,,,,,,,,,,,,,,,,,,,,,,,2019_Apr_11_1426,60.5399802960245,Cloud_Experiment_FR_REAL,001,34,
,,,,,,,,,,,,,,,,,,,,,,,,,,,,,,,,,,5,,,,,,,,,,,,,,,,,2019_Apr_11_1426,60.5399802960245,Cloud_Experiment_FR_REAL,001,34,
,,,,,,,,,,,,,,,,,,,,,,,,,,,,,,,,,,,2,,,,,,,,,,,,,,,,2019_Apr_11_1426,60.5399802960245,Cloud_Experiment_FR_REAL,001,34,
,,,,,,,,,,,,,,,,,,,,,,,,,,,,,,,,,,,,2,,,,,,,,,,,,,,,2019_Apr_11_1426,60.5399802960245,Cloud_Experiment_FR_REAL,001,34,
,,,,,,,,,,,,,,,,,,,,,,,,,,,,,,,,,,,,,3,,,,,,,,,,,,,,2019_Apr_11_1426,60.5399802960245,Cloud_Experiment_FR_REAL,001,34,
,,,,,,,,,,,,,,,,,,,,,,,,,,,,,,,,,,,,,,4,,,,,,,,,,,,,2019_Apr_11_1426,60.5399802960245,Cloud_Experiment_FR_REAL,001,34,
,,,,,,,,,,,,,,,,,,,,,,,,,,,,,,,,,,,,,,,3,,,,,,,,,,,,2019_Apr_11_1426,60.5399802960245,Cloud_Experiment_FR_REAL,001,34,
,,,,,,,,,,,,,,,,,,,,,,,,,,,,,,,,,,,,,,,,7,,,,,,,,,,,2019_Apr_11_1426,60.5399802960245,Cloud_Experiment_FR_REAL,001,34,
,,,,,,,,,,,,,,,,,,,,,,,,,,,,,,,,,,,,,,,,,7,,,,,,,,,,2019_Apr_11_1426,60.5399802960245,Cloud_Experiment_FR_REAL,001,34,
,,,,,,,,,,,,,,,,,,,,,,,,,,,,,,,,,,,,,,,,,,5,,,,,,,,,2019_Apr_11_1426,60.5399802960245,Cloud_Experiment_FR_REAL,001,34,
,,,,,,,,,,,,,,,,,,,,,,,,,,,,,,,,,,,,,,,,,,,6,,,,,,,,2019_Apr_11_1426,60.5399802960245,Cloud_Experiment_FR_REAL,001,34,
,,,,,,,,,,,,,,,,,,,,,,,,,,,,,,,,,,,,,,,,,,,,,,,,,,6,2019_Apr_11_1426,60.5399802960245,Cloud_Experiment_FR_REAL,001,34,
