ImageFile,FD,Contrast,trials_4.thisRepN,trials_4.thisTrialN,trials_4.thisN,trials_4.thisIndex,trials.thisRepN,trials.thisTrialN,trials.thisN,trials.thisIndex,trials_2.thisRepN,trials_2.thisTrialN,trials_2.thisN,trials_2.thisIndex,trials_3.thisRepN,trials_3.thisTrialN,trials_3.thisN,trials_3.thisIndex,end_instructions.keys,end_instructions.rt,key_resp_4.keys,key_resp_4.rt,key_resp_6.keys,key_resp_6.rt,Fatigue.response,Fatigue.rt,key_resp_5.keys,key_resp_5.rt,n_objets.response,reaction_time.keys,reaction_time.rt,vividness.response,vividness.rt,Flow01.response,Flow02.response,Flow03.response,Flow04.response,Flow05.response,Flow06.response,Flow07.response,Flow08.response,Flow09.response,Flow10.response,key_resp_2.keys,key_resp_2.rt,key_resp_8.keys,key_resp_8.rt,key_resp_3.keys,key_resp_3.rt,Redondance_question.response,date,frameRate,expName,session,participant,
,,,,,,,,,,,,,,,,,,,space,13.7080151,,,,,,,,,,,,,,,,,,,,,,,,,,,,,,,2019_Apr_11_1611,61.11050000679343,Cloud_Experiment_FR_REAL,001,35,
,,,,,,,,,,,,,,,,,,,,,space,102.3790634,,,,,,,,,,,,,,,,,,,,,,,,,,,,,2019_Apr_11_1611,61.11050000679343,Cloud_Experiment_FR_REAL,001,35,
,,,,,,,,,,,,,,,,,,,,,,,space,66.2418921,,,,,,,,,,,,,,,,,,,,,,,,,,,2019_Apr_11_1611,61.11050000679343,Cloud_Experiment_FR_REAL,001,35,
,,,,,,,,,,,,,,,,,,,,,,,,,8,22.531,,,,,,,,,,,,,,,,,,,,,,,,,2019_Apr_11_1611,61.11050000679343,Cloud_Experiment_FR_REAL,001,35,
,,,,,,,,,,,,,,,,,,,,,,,,,,,space,3.76378500002,,,,,,,,,,,,,,,,,,,,,,,2019_Apr_11_1611,61.11050000679343,Cloud_Experiment_FR_REAL,001,35,
pratique/fcloud65-35_D1.6_30,1.6,1,0,0,0,2,,,,,,,,,,,,,,,,,,,,,,,1,space,3.54511219999,2,14.74,,,,,,,,,,,,,,,,,,2019_Apr_11_1611,61.11050000679343,Cloud_Experiment_FR_REAL,001,35,
pratique/fcloud_D1.6_28,1.6,0,0,1,1,5,,,,,,,,,,,,,,,,,,,,,,,1,space,2.57859409999,4,3.816,,,,,,,,,,,,,,,,,,2019_Apr_11_1611,61.11050000679343,Cloud_Experiment_FR_REAL,001,35,
pratique/fcloud80-20_D1.5_30,1.5,2,0,2,2,8,,,,,,,,,,,,,,,,,,,,,,,None,None,,None,13.576,,,,,,,,,,,,,,,,,,2019_Apr_11_1611,61.11050000679343,Cloud_Experiment_FR_REAL,001,35,
pratique/fcloud_D1.4_30,1.4,0,0,3,3,1,,,,,,,,,,,,,,,,,,,,,,,2,space,5.71814090002,1,1.552,,,,,,,,,,,,,,,,,,2019_Apr_11_1611,61.11050000679343,Cloud_Experiment_FR_REAL,001,35,
pratique/fcloud65-35_D1.2_30,1.2,1,0,4,4,3,,,,,,,,,,,,,,,,,,,,,,,1,space,2.42304739999,2,3.116,,,,,,,,,,,,,,,,,,2019_Apr_11_1611,61.11050000679343,Cloud_Experiment_FR_REAL,001,35,
pratique/fcloud65-35_D1.3_30,1.3,1,0,5,5,6,,,,,,,,,,,,,,,,,,,,,,,None,None,,None,12.791,,,,,,,,,,,,,,,,,,2019_Apr_11_1611,61.11050000679343,Cloud_Experiment_FR_REAL,001,35,
pratique/fcloud_D0.8_30,0.8,0,0,6,6,0,,,,,,,,,,,,,,,,,,,,,,,None,None,,None,22.683,,,,,,,,,,,,,,,,,,2019_Apr_11_1611,61.11050000679343,Cloud_Experiment_FR_REAL,001,35,
pratique/fcloud65-35_D1.9_29,1.9,1,0,7,7,7,,,,,,,,,,,,,,,,,,,,,,,None,None,,None,42.933,,,,,,,,,,,,,,,,,,2019_Apr_11_1611,61.11050000679343,Cloud_Experiment_FR_REAL,001,35,
pratique/fcloud80-20_D1.8_30,1.8,2,0,8,8,4,,,,,,,,,,,,,,,,,,,,,,,None,None,,None,68.959,,,,,,,,,,,,,,,,,,2019_Apr_11_1611,61.11050000679343,Cloud_Experiment_FR_REAL,001,35,
pratique/fcloud80-20_D1_30,1.0,2,0,9,9,9,,,,,,,,,,,,,,,,,,,,,,,1,space,8.1970322,1,1.7,,,,,,,,,,,,,,,,,,2019_Apr_11_1611,61.11050000679343,Cloud_Experiment_FR_REAL,001,35,
,,,,,,,,,,,,,,,,,,,,,,,,,,,,,,,,,,7,,,,,,,,,,,,,,,,,2019_Apr_11_1611,61.11050000679343,Cloud_Experiment_FR_REAL,001,35,
,,,,,,,,,,,,,,,,,,,,,,,,,,,,,,,,,,,7,,,,,,,,,,,,,,,,2019_Apr_11_1611,61.11050000679343,Cloud_Experiment_FR_REAL,001,35,
,,,,,,,,,,,,,,,,,,,,,,,,,,,,,,,,,,,,7,,,,,,,,,,,,,,,2019_Apr_11_1611,61.11050000679343,Cloud_Experiment_FR_REAL,001,35,
,,,,,,,,,,,,,,,,,,,,,,,,,,,,,,,,,,,,,6,,,,,,,,,,,,,,2019_Apr_11_1611,61.11050000679343,Cloud_Experiment_FR_REAL,001,35,
,,,,,,,,,,,,,,,,,,,,,,,,,,,,,,,,,,,,,,6,,,,,,,,,,,,,2019_Apr_11_1611,61.11050000679343,Cloud_Experiment_FR_REAL,001,35,
,,,,,,,,,,,,,,,,,,,,,,,,,,,,,,,,,,,,,,,7,,,,,,,,,,,,2019_Apr_11_1611,61.11050000679343,Cloud_Experiment_FR_REAL,001,35,
,,,,,,,,,,,,,,,,,,,,,,,,,,,,,,,,,,,,,,,,7,,,,,,,,,,,2019_Apr_11_1611,61.11050000679343,Cloud_Experiment_FR_REAL,001,35,
,,,,,,,,,,,,,,,,,,,,,,,,,,,,,,,,,,,,,,,,,7,,,,,,,,,,2019_Apr_11_1611,61.11050000679343,Cloud_Experiment_FR_REAL,001,35,
,,,,,,,,,,,,,,,,,,,,,,,,,,,,,,,,,,,,,,,,,,6,,,,,,,,,2019_Apr_11_1611,61.11050000679343,Cloud_Experiment_FR_REAL,001,35,
,,,,,,,,,,,,,,,,,,,,,,,,,,,,,,,,,,,,,,,,,,,1,,,,,,,,2019_Apr_11_1611,61.11050000679343,Cloud_Experiment_FR_REAL,001,35,
,,,,,,,,,,,,,,,,,,,,,,,,,,,,,,,,,,,,,,,,,,,,space,5.8456877,,,,,,2019_Apr_11_1611,61.11050000679343,Cloud_Experiment_FR_REAL,001,35,
images/fcloud80-20_D1.4_1.tif,1.4,2,,,,,0,0,0,90,,,,,,,,,,,,,,,,,,,2,space,2.9151556,3,6.596,,,,,,,,,,,,,,,,,,2019_Apr_11_1611,61.11050000679343,Cloud_Experiment_FR_REAL,001,35,
images/fcloud_D1_3.tif,1.0,0,,,,,0,1,1,8,,,,,,,,,,,,,,,,,,,2,space,2.3287594,4,4.7,,,,,,,,,,,,,,,,,,2019_Apr_11_1611,61.11050000679343,Cloud_Experiment_FR_REAL,001,35,
images/fcloud_D1.2_2.tif,1.2,0,,,,,0,2,2,13,,,,,,,,,,,,,,,,,,,1,space,5.8189286,2,2.851,,,,,,,,,,,,,,,,,,2019_Apr_11_1611,61.11050000679343,Cloud_Experiment_FR_REAL,001,35,
images/fcloud_D1.1_3.tif,1.1,0,,,,,0,3,3,11,,,,,,,,,,,,,,,,,,,None,None,,None,12.69,,,,,,,,,,,,,,,,,,2019_Apr_11_1611,61.11050000679343,Cloud_Experiment_FR_REAL,001,35,
images/fcloud80-20_D1.2_1.tif,1.2,2,,,,,0,4,4,84,,,,,,,,,,,,,,,,,,,None,None,,None,22.548,,,,,,,,,,,,,,,,,,2019_Apr_11_1611,61.11050000679343,Cloud_Experiment_FR_REAL,001,35,
images/fcloud_D1.4_1.tif,1.4,0,,,,,0,5,5,18,,,,,,,,,,,,,,,,,,,1,space,3.8420495,1,2.918,,,,,,,,,,,,,,,,,,2019_Apr_11_1611,61.11050000679343,Cloud_Experiment_FR_REAL,001,35,
images/fcloud65-35_D1_3.tif,1.0,1,,,,,0,6,6,44,,,,,,,,,,,,,,,,,,,None,None,,None,12.257,,,,,,,,,,,,,,,,,,2019_Apr_11_1611,61.11050000679343,Cloud_Experiment_FR_REAL,001,35,
images/fcloud_D1.3_1.tif,1.3,0,,,,,0,7,7,15,,,,,,,,,,,,,,,,,,,None,None,,None,23.615,,,,,,,,,,,,,,,,,,2019_Apr_11_1611,61.11050000679343,Cloud_Experiment_FR_REAL,001,35,
images/fcloud65-35_D0.8_1.tif,0.8,1,,,,,0,8,8,36,,,,,,,,,,,,,,,,,,,1,space,3.6476812,3,0.636,,,,,,,,,,,,,,,,,,2019_Apr_11_1611,61.11050000679343,Cloud_Experiment_FR_REAL,001,35,
images/fcloud_D1.6_2.tif,1.6,0,,,,,0,9,9,25,,,,,,,,,,,,,,,,,,,1,space,5.33167079999,2,1.833,,,,,,,,,,,,,,,,,,2019_Apr_11_1611,61.11050000679343,Cloud_Experiment_FR_REAL,001,35,
images/fcloud80-20_D1.7_1.tif,1.7,2,,,,,0,10,10,99,,,,,,,,,,,,,,,,,,,None,None,,None,11.575,,,,,,,,,,,,,,,,,,2019_Apr_11_1611,61.11050000679343,Cloud_Experiment_FR_REAL,001,35,
images/fcloud80-20_D1.3_3.tif,1.3,2,,,,,0,11,11,89,,,,,,,,,,,,,,,,,,,None,None,,None,21.333,,,,,,,,,,,,,,,,,,2019_Apr_11_1611,61.11050000679343,Cloud_Experiment_FR_REAL,001,35,
images/fcloud65-35_D1.8_3.tif,1.8,1,,,,,0,12,12,68,,,,,,,,,,,,,,,,,,,1,None,,1,0.718,,,,,,,,,,,,,,,,,,2019_Apr_11_1611,61.11050000679343,Cloud_Experiment_FR_REAL,001,35,
images/fcloud80-20_D1.9_3.tif,1.9,2,,,,,0,13,13,107,,,,,,,,,,,,,,,,,,,1,None,,1,10.626,,,,,,,,,,,,,,,,,,2019_Apr_11_1611,61.11050000679343,Cloud_Experiment_FR_REAL,001,35,
images/fcloud65-35_D1.6_3.tif,1.6,1,,,,,0,14,14,62,,,,,,,,,,,,,,,,,,,1,space,4.96378809999,2,2.799,,,,,,,,,,,,,,,,,,2019_Apr_11_1611,61.11050000679343,Cloud_Experiment_FR_REAL,001,35,
images/fcloud_D0.9_3.tif,0.9,0,,,,,0,15,15,5,,,,,,,,,,,,,,,,,,,1,space,4.86092439998,2,0.685,,,,,,,,,,,,,,,,,,2019_Apr_11_1611,61.11050000679343,Cloud_Experiment_FR_REAL,001,35,
images/fcloud_D0.8_2.tif,0.8,0,,,,,0,16,16,1,,,,,,,,,,,,,,,,,,,2,space,1.8894023,4,1.768,,,,,,,,,,,,,,,,,,2019_Apr_11_1611,61.11050000679343,Cloud_Experiment_FR_REAL,001,35,
images/fcloud80-20_D1.6_3.tif,1.6,2,,,,,0,17,17,98,,,,,,,,,,,,,,,,,,,1,space,5.99167600001,2,0.57,,,,,,,,,,,,,,,,,,2019_Apr_11_1611,61.11050000679343,Cloud_Experiment_FR_REAL,001,35,
images/fcloud80-20_D1.5_3.tif,1.5,2,,,,,0,18,18,95,,,,,,,,,,,,,,,,,,,1,space,5.75904889998,2,0.617,,,,,,,,,,,,,,,,,,2019_Apr_11_1611,61.11050000679343,Cloud_Experiment_FR_REAL,001,35,
images/fcloud65-35_D1.9_2.tif,1.9,1,,,,,0,19,19,70,,,,,,,,,,,,,,,,,,,1,space,6.69382090002,2,1.434,,,,,,,,,,,,,,,,,,2019_Apr_11_1611,61.11050000679343,Cloud_Experiment_FR_REAL,001,35,
images/fcloud65-35_D0.9_2.tif,0.9,1,,,,,0,20,20,40,,,,,,,,,,,,,,,,,,,1,space,7.80810650002,1,2.134,,,,,,,,,,,,,,,,,,2019_Apr_11_1611,61.11050000679343,Cloud_Experiment_FR_REAL,001,35,
images/fcloud80-20_D1.1_2.tif,1.1,2,,,,,0,21,21,82,,,,,,,,,,,,,,,,,,,1,space,6.83778559999,2,0.984,,,,,,,,,,,,,,,,,,2019_Apr_11_1611,61.11050000679343,Cloud_Experiment_FR_REAL,001,35,
images/fcloud80-20_D1.3_1.tif,1.3,2,,,,,0,22,22,87,,,,,,,,,,,,,,,,,,,None,None,,None,10.543,,,,,,,,,,,,,,,,,,2019_Apr_11_1611,61.11050000679343,Cloud_Experiment_FR_REAL,001,35,
images/fcloud80-20_D0.8_2.tif,0.8,2,,,,,0,23,23,73,,,,,,,,,,,,,,,,,,,None,None,,None,20.082,,,,,,,,,,,,,,,,,,2019_Apr_11_1611,61.11050000679343,Cloud_Experiment_FR_REAL,001,35,
images/fcloud_D0.9_2.tif,0.9,0,,,,,0,24,24,4,,,,,,,,,,,,,,,,,,,1,space,3.36196380001,3,0.92,,,,,,,,,,,,,,,,,,2019_Apr_11_1611,61.11050000679343,Cloud_Experiment_FR_REAL,001,35,
images/fcloud_D1.5_1.tif,1.5,0,,,,,0,25,25,21,,,,,,,,,,,,,,,,,,,None,None,,None,10.325,,,,,,,,,,,,,,,,,,2019_Apr_11_1611,61.11050000679343,Cloud_Experiment_FR_REAL,001,35,
images/fcloud_D1.1_1.tif,1.1,0,,,,,0,26,26,9,,,,,,,,,,,,,,,,,,,1,space,6.65781419998,2,4.264,,,,,,,,,,,,,,,,,,2019_Apr_11_1611,61.11050000679343,Cloud_Experiment_FR_REAL,001,35,
images/fcloud_D1.1_2.tif,1.1,0,,,,,0,27,27,10,,,,,,,,,,,,,,,,,,,None,None,,None,14.571,,,,,,,,,,,,,,,,,,2019_Apr_11_1611,61.11050000679343,Cloud_Experiment_FR_REAL,001,35,
images/fcloud_D1.2_3.tif,1.2,0,,,,,0,28,28,14,,,,,,,,,,,,,,,,,,,None,None,,None,23.817,,,,,,,,,,,,,,,,,,2019_Apr_11_1611,61.11050000679343,Cloud_Experiment_FR_REAL,001,35,
images/fcloud_D1.2_1.tif,1.2,0,,,,,0,29,29,12,,,,,,,,,,,,,,,,,,,1,space,4.8192308,5,3.216,,,,,,,,,,,,,,,,,,2019_Apr_11_1611,61.11050000679343,Cloud_Experiment_FR_REAL,001,35,
images/fcloud80-20_D1.1_3.tif,1.1,2,,,,,0,30,30,83,,,,,,,,,,,,,,,,,,,1,space,7.14391779999,2,1.201,,,,,,,,,,,,,,,,,,2019_Apr_11_1611,61.11050000679343,Cloud_Experiment_FR_REAL,001,35,
images/fcloud_D1.3_2.tif,1.3,0,,,,,0,31,31,16,,,,,,,,,,,,,,,,,,,None,None,,None,10.741,,,,,,,,,,,,,,,,,,2019_Apr_11_1611,61.11050000679343,Cloud_Experiment_FR_REAL,001,35,
images/fcloud_D1.8_1.tif,1.8,0,,,,,0,32,32,30,,,,,,,,,,,,,,,,,,,None,None,,None,20.784,,,,,,,,,,,,,,,,,,2019_Apr_11_1611,61.11050000679343,Cloud_Experiment_FR_REAL,001,35,
images/fcloud80-20_D1.4_2.tif,1.4,2,,,,,0,33,33,91,,,,,,,,,,,,,,,,,,,None,None,,None,30.591,,,,,,,,,,,,,,,,,,2019_Apr_11_1611,61.11050000679343,Cloud_Experiment_FR_REAL,001,35,
images/fcloud_D1.7_1.tif,1.7,0,,,,,0,34,34,27,,,,,,,,,,,,,,,,,,,2,space,5.66373110001,2,0.685,,,,,,,,,,,,,,,,,,2019_Apr_11_1611,61.11050000679343,Cloud_Experiment_FR_REAL,001,35,
images/fcloud65-35_D1.2_1.tif,1.2,1,,,,,0,35,35,48,,,,,,,,,,,,,,,,,,,None,None,,None,13.738,,,,,,,,,,,,,,,,,,2019_Apr_11_1611,61.11050000679343,Cloud_Experiment_FR_REAL,001,35,
images/fcloud_D1.8_2.tif,1.8,0,,,,,0,36,36,31,,,,,,,,,,,,,,,,,,,1,space,5.2915927,2,7.878,,,,,,,,,,,,,,,,,,2019_Apr_11_1611,61.11050000679343,Cloud_Experiment_FR_REAL,001,35,
images/fcloud80-20_D1.5_1.tif,1.5,2,,,,,0,37,37,93,,,,,,,,,,,,,,,,,,,None,None,,None,17.768,,,,,,,,,,,,,,,,,,2019_Apr_11_1611,61.11050000679343,Cloud_Experiment_FR_REAL,001,35,
images/fcloud80-20_D1.3_2.tif,1.3,2,,,,,0,38,38,88,,,,,,,,,,,,,,,,,,,None,None,,None,27.278,,,,,,,,,,,,,,,,,,2019_Apr_11_1611,61.11050000679343,Cloud_Experiment_FR_REAL,001,35,
images/fcloud_D1.3_3.tif,1.3,0,,,,,0,39,39,17,,,,,,,,,,,,,,,,,,,1,space,6.09349960001,2,0.984,,,,,,,,,,,,,,,,,,2019_Apr_11_1611,61.11050000679343,Cloud_Experiment_FR_REAL,001,35,
images/fcloud65-35_D1.1_2.tif,1.1,1,,,,,0,40,40,46,,,,,,,,,,,,,,,,,,,None,None,,None,10.327,,,,,,,,,,,,,,,,,,2019_Apr_11_1611,61.11050000679343,Cloud_Experiment_FR_REAL,001,35,
images/fcloud65-35_D1.5_1.tif,1.5,1,,,,,0,41,41,57,,,,,,,,,,,,,,,,,,,1,space,7.44355649999,2,1.419,,,,,,,,,,,,,,,,,,2019_Apr_11_1611,61.11050000679343,Cloud_Experiment_FR_REAL,001,35,
images/fcloud80-20_D1.7_3.tif,1.7,2,,,,,0,42,42,101,,,,,,,,,,,,,,,,,,,1,None,,1,5.201,,,,,,,,,,,,,,,,,,2019_Apr_11_1611,61.11050000679343,Cloud_Experiment_FR_REAL,001,35,
images/fcloud65-35_D1.7_3.tif,1.7,1,,,,,0,43,43,65,,,,,,,,,,,,,,,,,,,None,None,,None,14.871,,,,,,,,,,,,,,,,,,2019_Apr_11_1611,61.11050000679343,Cloud_Experiment_FR_REAL,001,35,
images/fcloud_D1.9_2.tif,1.9,0,,,,,0,44,44,34,,,,,,,,,,,,,,,,,,,2,space,3.3160657,2,1.318,,,,,,,,,,,,,,,,,,2019_Apr_11_1611,61.11050000679343,Cloud_Experiment_FR_REAL,001,35,
images/fcloud80-20_D1.4_3.tif,1.4,2,,,,,0,45,45,92,,,,,,,,,,,,,,,,,,,1,space,3.4822841,2,1.735,,,,,,,,,,,,,,,,,,2019_Apr_11_1611,61.11050000679343,Cloud_Experiment_FR_REAL,001,35,
images/fcloud_D1_1.tif,1.0,0,,,,,0,46,46,6,,,,,,,,,,,,,,,,,,,1,space,4.43144640001,3,1.9,,,,,,,,,,,,,,,,,,2019_Apr_11_1611,61.11050000679343,Cloud_Experiment_FR_REAL,001,35,
images/fcloud65-35_D1.4_2.tif,1.4,1,,,,,0,47,47,55,,,,,,,,,,,,,,,,,,,1,space,8.83005440002,1,0.786,,,,,,,,,,,,,,,,,,2019_Apr_11_1611,61.11050000679343,Cloud_Experiment_FR_REAL,001,35,
images/fcloud65-35_D1.5_3.tif,1.5,1,,,,,0,48,48,59,,,,,,,,,,,,,,,,,,,None,None,,None,10.127,,,,,,,,,,,,,,,,,,2019_Apr_11_1611,61.11050000679343,Cloud_Experiment_FR_REAL,001,35,
images/fcloud_D0.8_1.tif,0.8,0,,,,,0,49,49,0,,,,,,,,,,,,,,,,,,,1,space,7.03808170001,2,1.983,,,,,,,,,,,,,,,,,,2019_Apr_11_1611,61.11050000679343,Cloud_Experiment_FR_REAL,001,35,
images/fcloud_D0.8_3.tif,0.8,0,,,,,0,50,50,2,,,,,,,,,,,,,,,,,,,None,None,,None,11.306,,,,,,,,,,,,,,,,,,2019_Apr_11_1611,61.11050000679343,Cloud_Experiment_FR_REAL,001,35,
images/fcloud80-20_D1.8_1.tif,1.8,2,,,,,0,51,51,102,,,,,,,,,,,,,,,,,,,None,None,,None,20.984,,,,,,,,,,,,,,,,,,2019_Apr_11_1611,61.11050000679343,Cloud_Experiment_FR_REAL,001,35,
images/fcloud_D0.9_1.tif,0.9,0,,,,,0,52,52,3,,,,,,,,,,,,,,,,,,,1,None,,1,1.335,,,,,,,,,,,,,,,,,,2019_Apr_11_1611,61.11050000679343,Cloud_Experiment_FR_REAL,001,35,
images/fcloud65-35_D0.9_3.tif,0.9,1,,,,,0,53,53,41,,,,,,,,,,,,,,,,,,,None,None,,None,11.31,,,,,,,,,,,,,,,,,,2019_Apr_11_1611,61.11050000679343,Cloud_Experiment_FR_REAL,001,35,
images/fcloud65-35_D1.3_3.tif,1.3,1,,,,,0,54,54,53,,,,,,,,,,,,,,,,,,,1,space,4.77995660002,2,0.988,,,,,,,,,,,,,,,,,,2019_Apr_11_1611,61.11050000679343,Cloud_Experiment_FR_REAL,001,35,
images/fcloud65-35_D1.9_1.tif,1.9,1,,,,,0,55,55,69,,,,,,,,,,,,,,,,,,,None,None,,None,10.509,,,,,,,,,,,,,,,,,,2019_Apr_11_1611,61.11050000679343,Cloud_Experiment_FR_REAL,001,35,
images/fcloud80-20_D1.8_2.tif,1.8,2,,,,,0,56,56,103,,,,,,,,,,,,,,,,,,,1,space,5.8213718,3,4.347,,,,,,,,,,,,,,,,,,2019_Apr_11_1611,61.11050000679343,Cloud_Experiment_FR_REAL,001,35,
images/fcloud80-20_D1.5_2.tif,1.5,2,,,,,0,57,57,94,,,,,,,,,,,,,,,,,,,None,None,,None,14.471,,,,,,,,,,,,,,,,,,2019_Apr_11_1611,61.11050000679343,Cloud_Experiment_FR_REAL,001,35,
images/fcloud_D1.7_2.tif,1.7,0,,,,,0,58,58,28,,,,,,,,,,,,,,,,,,,1,space,3.53963829999,3,1.534,,,,,,,,,,,,,,,,,,2019_Apr_11_1611,61.11050000679343,Cloud_Experiment_FR_REAL,001,35,
images/fcloud_D1.9_3.tif,1.9,0,,,,,0,59,59,35,,,,,,,,,,,,,,,,,,,1,None,,2,1.617,,,,,,,,,,,,,,,,,,2019_Apr_11_1611,61.11050000679343,Cloud_Experiment_FR_REAL,001,35,
images/fcloud65-35_D1.5_2.tif,1.5,1,,,,,0,60,60,58,,,,,,,,,,,,,,,,,,,1,space,4.03631560001,3,1.618,,,,,,,,,,,,,,,,,,2019_Apr_11_1611,61.11050000679343,Cloud_Experiment_FR_REAL,001,35,
images/fcloud80-20_D1.1_1.tif,1.1,2,,,,,0,61,61,81,,,,,,,,,,,,,,,,,,,None,None,,None,12.806,,,,,,,,,,,,,,,,,,2019_Apr_11_1611,61.11050000679343,Cloud_Experiment_FR_REAL,001,35,
images/fcloud80-20_D1_2.tif,1.0,2,,,,,0,62,62,79,,,,,,,,,,,,,,,,,,,None,None,,None,22.431,,,,,,,,,,,,,,,,,,2019_Apr_11_1611,61.11050000679343,Cloud_Experiment_FR_REAL,001,35,
images/fcloud80-20_D1.8_3.tif,1.8,2,,,,,0,63,63,104,,,,,,,,,,,,,,,,,,,1,space,6.7317716,1,2.4,,,,,,,,,,,,,,,,,,2019_Apr_11_1611,61.11050000679343,Cloud_Experiment_FR_REAL,001,35,
images/fcloud80-20_D0.8_3.tif,0.8,2,,,,,0,64,64,74,,,,,,,,,,,,,,,,,,,None,None,,None,12.108,,,,,,,,,,,,,,,,,,2019_Apr_11_1611,61.11050000679343,Cloud_Experiment_FR_REAL,001,35,
images/fcloud80-20_D1_1.tif,1.0,2,,,,,0,65,65,78,,,,,,,,,,,,,,,,,,,None,None,,None,21.216,,,,,,,,,,,,,,,,,,2019_Apr_11_1611,61.11050000679343,Cloud_Experiment_FR_REAL,001,35,
images/fcloud65-35_D1_1.tif,1.0,1,,,,,0,66,66,42,,,,,,,,,,,,,,,,,,,None,None,,None,31.074,,,,,,,,,,,,,,,,,,2019_Apr_11_1611,61.11050000679343,Cloud_Experiment_FR_REAL,001,35,
images/fcloud_D1_2.tif,1.0,0,,,,,0,67,67,7,,,,,,,,,,,,,,,,,,,1,space,2.42561620002,3,0.469,,,,,,,,,,,,,,,,,,2019_Apr_11_1611,61.11050000679343,Cloud_Experiment_FR_REAL,001,35,
images/fcloud65-35_D1.9_3.tif,1.9,1,,,,,0,68,68,71,,,,,,,,,,,,,,,,,,,None,None,,None,9.791,,,,,,,,,,,,,,,,,,2019_Apr_11_1611,61.11050000679343,Cloud_Experiment_FR_REAL,001,35,
images/fcloud65-35_D0.8_2.tif,0.8,1,,,,,0,69,69,37,,,,,,,,,,,,,,,,,,,None,None,,None,18.985,,,,,,,,,,,,,,,,,,2019_Apr_11_1611,61.11050000679343,Cloud_Experiment_FR_REAL,001,35,
images/fcloud65-35_D1.1_1.tif,1.1,1,,,,,0,70,70,45,,,,,,,,,,,,,,,,,,,2,space,4.84969100001,2,4.531,,,,,,,,,,,,,,,,,,2019_Apr_11_1611,61.11050000679343,Cloud_Experiment_FR_REAL,001,35,
images/fcloud80-20_D1.9_1.tif,1.9,2,,,,,0,71,71,105,,,,,,,,,,,,,,,,,,,1,space,5.07240050001,2,1.053,,,,,,,,,,,,,,,,,,2019_Apr_11_1611,61.11050000679343,Cloud_Experiment_FR_REAL,001,35,
images/fcloud65-35_D0.9_1.tif,0.9,1,,,,,0,72,72,39,,,,,,,,,,,,,,,,,,,None,None,,None,10.758,,,,,,,,,,,,,,,,,,2019_Apr_11_1611,61.11050000679343,Cloud_Experiment_FR_REAL,001,35,
images/fcloud65-35_D1.1_3.tif,1.1,1,,,,,0,73,73,47,,,,,,,,,,,,,,,,,,,None,None,,None,20.032,,,,,,,,,,,,,,,,,,2019_Apr_11_1611,61.11050000679343,Cloud_Experiment_FR_REAL,001,35,
images/fcloud80-20_D0.9_2.tif,0.9,2,,,,,0,74,74,76,,,,,,,,,,,,,,,,,,,None,None,,None,29.242,,,,,,,,,,,,,,,,,,2019_Apr_11_1611,61.11050000679343,Cloud_Experiment_FR_REAL,001,35,
images/fcloud80-20_D1.2_2.tif,1.2,2,,,,,0,75,75,85,,,,,,,,,,,,,,,,,,,1,space,7.17121860001,2,1.867,,,,,,,,,,,,,,,,,,2019_Apr_11_1611,61.11050000679343,Cloud_Experiment_FR_REAL,001,35,
images/fcloud80-20_D0.9_1.tif,0.9,2,,,,,0,76,76,75,,,,,,,,,,,,,,,,,,,None,None,,None,11.195,,,,,,,,,,,,,,,,,,2019_Apr_11_1611,61.11050000679343,Cloud_Experiment_FR_REAL,001,35,
images/fcloud65-35_D1.3_1.tif,1.3,1,,,,,0,77,77,51,,,,,,,,,,,,,,,,,,,1,space,6.5965783,1,1.168,,,,,,,,,,,,,,,,,,2019_Apr_11_1611,61.11050000679343,Cloud_Experiment_FR_REAL,001,35,
images/fcloud_D1.9_1.tif,1.9,0,,,,,0,78,78,33,,,,,,,,,,,,,,,,,,,2,space,3.61669350002,2,1.202,,,,,,,,,,,,,,,,,,2019_Apr_11_1611,61.11050000679343,Cloud_Experiment_FR_REAL,001,35,
images/fcloud65-35_D1.4_3.tif,1.4,1,,,,,0,79,79,56,,,,,,,,,,,,,,,,,,,1,space,2.73726250001,4,1.7,,,,,,,,,,,,,,,,,,2019_Apr_11_1611,61.11050000679343,Cloud_Experiment_FR_REAL,001,35,
images/fcloud65-35_D1.2_3.tif,1.2,1,,,,,0,80,80,50,,,,,,,,,,,,,,,,,,,None,None,,None,11.207,,,,,,,,,,,,,,,,,,2019_Apr_11_1611,61.11050000679343,Cloud_Experiment_FR_REAL,001,35,
images/fcloud80-20_D1.2_3.tif,1.2,2,,,,,0,81,81,86,,,,,,,,,,,,,,,,,,,1,space,7.3508288,1,1.185,,,,,,,,,,,,,,,,,,2019_Apr_11_1611,61.11050000679343,Cloud_Experiment_FR_REAL,001,35,
images/fcloud80-20_D0.8_1.tif,0.8,2,,,,,0,82,82,72,,,,,,,,,,,,,,,,,,,1,space,3.92113629999,3,0.617,,,,,,,,,,,,,,,,,,2019_Apr_11_1611,61.11050000679343,Cloud_Experiment_FR_REAL,001,35,
images/fcloud65-35_D1_2.tif,1.0,1,,,,,0,83,83,43,,,,,,,,,,,,,,,,,,,1,space,5.11683680001,2,2.966,,,,,,,,,,,,,,,,,,2019_Apr_11_1611,61.11050000679343,Cloud_Experiment_FR_REAL,001,35,
images/fcloud65-35_D1.3_2.tif,1.3,1,,,,,0,84,84,52,,,,,,,,,,,,,,,,,,,1,None,,2,1.453,,,,,,,,,,,,,,,,,,2019_Apr_11_1611,61.11050000679343,Cloud_Experiment_FR_REAL,001,35,
images/fcloud_D1.8_3.tif,1.8,0,,,,,0,85,85,32,,,,,,,,,,,,,,,,,,,1,space,6.25577309998,2,1.102,,,,,,,,,,,,,,,,,,2019_Apr_11_1611,61.11050000679343,Cloud_Experiment_FR_REAL,001,35,
images/fcloud80-20_D1.7_2.tif,1.7,2,,,,,0,86,86,100,,,,,,,,,,,,,,,,,,,4,space,4.21898000001,4,8.779,,,,,,,,,,,,,,,,,,2019_Apr_11_1611,61.11050000679343,Cloud_Experiment_FR_REAL,001,35,
images/fcloud_D1.7_3.tif,1.7,0,,,,,0,87,87,29,,,,,,,,,,,,,,,,,,,3,space,4.15216900001,3,2.151,,,,,,,,,,,,,,,,,,2019_Apr_11_1611,61.11050000679343,Cloud_Experiment_FR_REAL,001,35,
images/fcloud_D1.6_3.tif,1.6,0,,,,,0,88,88,26,,,,,,,,,,,,,,,,,,,2,space,7.442648,2,1.634,,,,,,,,,,,,,,,,,,2019_Apr_11_1611,61.11050000679343,Cloud_Experiment_FR_REAL,001,35,
images/fcloud65-35_D1.6_1.tif,1.6,1,,,,,0,89,89,60,,,,,,,,,,,,,,,,,,,1,space,5.5280999,1,1.071,,,,,,,,,,,,,,,,,,2019_Apr_11_1611,61.11050000679343,Cloud_Experiment_FR_REAL,001,35,
images/fcloud65-35_D1.6_2.tif,1.6,1,,,,,0,90,90,61,,,,,,,,,,,,,,,,,,,None,None,,None,10.377,,,,,,,,,,,,,,,,,,2019_Apr_11_1611,61.11050000679343,Cloud_Experiment_FR_REAL,001,35,
images/fcloud80-20_D1_3.tif,1.0,2,,,,,0,91,91,80,,,,,,,,,,,,,,,,,,,1,None,,1,1.717,,,,,,,,,,,,,,,,,,2019_Apr_11_1611,61.11050000679343,Cloud_Experiment_FR_REAL,001,35,
images/fcloud80-20_D1.6_1.tif,1.6,2,,,,,0,92,92,96,,,,,,,,,,,,,,,,,,,1,space,5.00630149999,1,0.634,,,,,,,,,,,,,,,,,,2019_Apr_11_1611,61.11050000679343,Cloud_Experiment_FR_REAL,001,35,
images/fcloud80-20_D1.6_2.tif,1.6,2,,,,,0,93,93,97,,,,,,,,,,,,,,,,,,,1,space,3.04223970001,3,0.817,,,,,,,,,,,,,,,,,,2019_Apr_11_1611,61.11050000679343,Cloud_Experiment_FR_REAL,001,35,
images/fcloud65-35_D1.7_2.tif,1.7,1,,,,,0,94,94,64,,,,,,,,,,,,,,,,,,,None,None,,None,10.51,,,,,,,,,,,,,,,,,,2019_Apr_11_1611,61.11050000679343,Cloud_Experiment_FR_REAL,001,35,
images/fcloud_D1.4_3.tif,1.4,0,,,,,0,95,95,20,,,,,,,,,,,,,,,,,,,1,space,2.70776789999,4,1.635,,,,,,,,,,,,,,,,,,2019_Apr_11_1611,61.11050000679343,Cloud_Experiment_FR_REAL,001,35,
images/fcloud65-35_D0.8_3.tif,0.8,1,,,,,0,96,96,38,,,,,,,,,,,,,,,,,,,1,space,6.45076899999,1,0.801,,,,,,,,,,,,,,,,,,2019_Apr_11_1611,61.11050000679343,Cloud_Experiment_FR_REAL,001,35,
images/fcloud80-20_D0.9_3.tif,0.9,2,,,,,0,97,97,77,,,,,,,,,,,,,,,,,,,None,None,,None,10.193,,,,,,,,,,,,,,,,,,2019_Apr_11_1611,61.11050000679343,Cloud_Experiment_FR_REAL,001,35,
images/fcloud80-20_D1.9_2.tif,1.9,2,,,,,0,98,98,106,,,,,,,,,,,,,,,,,,,None,None,,None,19.452,,,,,,,,,,,,,,,,,,2019_Apr_11_1611,61.11050000679343,Cloud_Experiment_FR_REAL,001,35,
images/fcloud_D1.4_2.tif,1.4,0,,,,,0,99,99,19,,,,,,,,,,,,,,,,,,,1,space,7.6240861,2,3.816,,,,,,,,,,,,,,,,,,2019_Apr_11_1611,61.11050000679343,Cloud_Experiment_FR_REAL,001,35,
images/fcloud_D1.5_2.tif,1.5,0,,,,,0,100,100,22,,,,,,,,,,,,,,,,,,,3,space,4.48318439999,2,1.252,,,,,,,,,,,,,,,,,,2019_Apr_11_1611,61.11050000679343,Cloud_Experiment_FR_REAL,001,35,
images/fcloud_D1.5_3.tif,1.5,0,,,,,0,101,101,23,,,,,,,,,,,,,,,,,,,1,space,6.53479790001,2,1.35,,,,,,,,,,,,,,,,,,2019_Apr_11_1611,61.11050000679343,Cloud_Experiment_FR_REAL,001,35,
images/fcloud65-35_D1.8_1.tif,1.8,1,,,,,0,102,102,66,,,,,,,,,,,,,,,,,,,1,space,7.26926580002,1,1.533,,,,,,,,,,,,,,,,,,2019_Apr_11_1611,61.11050000679343,Cloud_Experiment_FR_REAL,001,35,
images/fcloud65-35_D1.4_1.tif,1.4,1,,,,,0,103,103,54,,,,,,,,,,,,,,,,,,,None,None,,None,13.756,,,,,,,,,,,,,,,,,,2019_Apr_11_1611,61.11050000679343,Cloud_Experiment_FR_REAL,001,35,
images/fcloud65-35_D1.7_1.tif,1.7,1,,,,,0,104,104,63,,,,,,,,,,,,,,,,,,,1,space,3.4899553,5,0.418,,,,,,,,,,,,,,,,,,2019_Apr_11_1611,61.11050000679343,Cloud_Experiment_FR_REAL,001,35,
images/fcloud65-35_D1.2_2.tif,1.2,1,,,,,0,105,105,49,,,,,,,,,,,,,,,,,,,None,None,,None,9.848,,,,,,,,,,,,,,,,,,2019_Apr_11_1611,61.11050000679343,Cloud_Experiment_FR_REAL,001,35,
images/fcloud65-35_D1.8_2.tif,1.8,1,,,,,0,106,106,67,,,,,,,,,,,,,,,,,,,1,space,3.22374309998,2,1.9,,,,,,,,,,,,,,,,,,2019_Apr_11_1611,61.11050000679343,Cloud_Experiment_FR_REAL,001,35,
images/fcloud_D1.6_1.tif,1.6,0,,,,,0,107,107,24,,,,,,,,,,,,,,,,,,,1,space,5.828083,1,1.135,,,,,,,,,,,,,,,,,,2019_Apr_11_1611,61.11050000679343,Cloud_Experiment_FR_REAL,001,35,
,,,,,,,,,,,,,,,,,,,,,,,,,,,,,,,,,,,,,,,,,,,,,,space,3.13048950001,,,,2019_Apr_11_1611,61.11050000679343,Cloud_Experiment_FR_REAL,001,35,
,,,,,,,,,,,,,,,,,,,,,,,,,7,16.522,,,,,,,,,,,,,,,,,,,,,,,,,2019_Apr_11_1611,61.11050000679343,Cloud_Experiment_FR_REAL,001,35,
,,,,,,,,,,,,,,,,,,,,,,,,,,,,,,,,,,6,,,,,,,,,,,,,,,,,2019_Apr_11_1611,61.11050000679343,Cloud_Experiment_FR_REAL,001,35,
,,,,,,,,,,,,,,,,,,,,,,,,,,,,,,,,,,,6,,,,,,,,,,,,,,,,2019_Apr_11_1611,61.11050000679343,Cloud_Experiment_FR_REAL,001,35,
,,,,,,,,,,,,,,,,,,,,,,,,,,,,,,,,,,,,5,,,,,,,,,,,,,,,2019_Apr_11_1611,61.11050000679343,Cloud_Experiment_FR_REAL,001,35,
,,,,,,,,,,,,,,,,,,,,,,,,,,,,,,,,,,,,,5,,,,,,,,,,,,,,2019_Apr_11_1611,61.11050000679343,Cloud_Experiment_FR_REAL,001,35,
,,,,,,,,,,,,,,,,,,,,,,,,,,,,,,,,,,,,,,5,,,,,,,,,,,,,2019_Apr_11_1611,61.11050000679343,Cloud_Experiment_FR_REAL,001,35,
,,,,,,,,,,,,,,,,,,,,,,,,,,,,,,,,,,,,,,,5,,,,,,,,,,,,2019_Apr_11_1611,61.11050000679343,Cloud_Experiment_FR_REAL,001,35,
,,,,,,,,,,,,,,,,,,,,,,,,,,,,,,,,,,,,,,,,5,,,,,,,,,,,2019_Apr_11_1611,61.11050000679343,Cloud_Experiment_FR_REAL,001,35,
,,,,,,,,,,,,,,,,,,,,,,,,,,,,,,,,,,,,,,,,,7,,,,,,,,,,2019_Apr_11_1611,61.11050000679343,Cloud_Experiment_FR_REAL,001,35,
,,,,,,,,,,,,,,,,,,,,,,,,,,,,,,,,,,,,,,,,,,6,,,,,,,,,2019_Apr_11_1611,61.11050000679343,Cloud_Experiment_FR_REAL,001,35,
,,,,,,,,,,,,,,,,,,,,,,,,,,,,,,,,,,,,,,,,,,,3,,,,,,,,2019_Apr_11_1611,61.11050000679343,Cloud_Experiment_FR_REAL,001,35,
,,,,,,,,,,,,,,,,,,,,,,,,,,,,,,,,,,,,,,,,,,,,,,,,space,1.33331620001,,2019_Apr_11_1611,61.11050000679343,Cloud_Experiment_FR_REAL,001,35,
images/fcloud_D1.8_6.tif,1.8,0,,,,,,,,,0,0,0,32,,,,,,,,,,,,,,,None,None,,None,98.481,,,,,,,,,,,,,,,,,,2019_Apr_11_1611,61.11050000679343,Cloud_Experiment_FR_REAL,001,35,
images/fcloud65-35_D1.3_5.tif,1.3,1,,,,,,,,,0,1,1,52,,,,,,,,,,,,,,,None,None,,None,111.238,,,,,,,,,,,,,,,,,,2019_Apr_11_1611,61.11050000679343,Cloud_Experiment_FR_REAL,001,35,
images/fcloud_D1.4_6.tif,1.4,0,,,,,,,,,0,2,2,20,,,,,,,,,,,,,,,1,space,6.75112830001,1,1.418,,,,,,,,,,,,,,,,,,2019_Apr_11_1611,61.11050000679343,Cloud_Experiment_FR_REAL,001,35,
images/fcloud_D1.7_6.tif,1.7,0,,,,,,,,,0,3,3,29,,,,,,,,,,,,,,,1,space,3.7629763,2,1.001,,,,,,,,,,,,,,,,,,2019_Apr_11_1611,61.11050000679343,Cloud_Experiment_FR_REAL,001,35,
images/fcloud_D1.8_4.tif,1.8,0,,,,,,,,,0,4,4,30,,,,,,,,,,,,,,,1,space,6.89819159999,1,1.003,,,,,,,,,,,,,,,,,,2019_Apr_11_1611,61.11050000679343,Cloud_Experiment_FR_REAL,001,35,
images/fcloud80-20_D1.9_6.tif,1.9,2,,,,,,,,,0,5,5,107,,,,,,,,,,,,,,,2,space,4.03396579999,3,1.068,,,,,,,,,,,,,,,,,,2019_Apr_11_1611,61.11050000679343,Cloud_Experiment_FR_REAL,001,35,
images/fcloud65-35_D1.9_4.tif,1.9,1,,,,,,,,,0,6,6,69,,,,,,,,,,,,,,,None,None,,None,10.393,,,,,,,,,,,,,,,,,,2019_Apr_11_1611,61.11050000679343,Cloud_Experiment_FR_REAL,001,35,
images/fcloud80-20_D1.7_6.tif,1.7,2,,,,,,,,,0,7,7,101,,,,,,,,,,,,,,,None,None,,None,20.216,,,,,,,,,,,,,,,,,,2019_Apr_11_1611,61.11050000679343,Cloud_Experiment_FR_REAL,001,35,
images/fcloud65-35_D1.4_4.tif,1.4,1,,,,,,,,,0,8,8,54,,,,,,,,,,,,,,,1,space,5.67366939998,2,0.784,,,,,,,,,,,,,,,,,,2019_Apr_11_1611,61.11050000679343,Cloud_Experiment_FR_REAL,001,35,
images/fcloud_D1.1_6.tif,1.1,0,,,,,,,,,0,9,9,11,,,,,,,,,,,,,,,None,None,,None,10.376,,,,,,,,,,,,,,,,,,2019_Apr_11_1611,61.11050000679343,Cloud_Experiment_FR_REAL,001,35,
images/fcloud65-35_D1.1_5.tif,1.1,1,,,,,,,,,0,10,10,46,,,,,,,,,,,,,,,2,space,3.7250674,2,2.683,,,,,,,,,,,,,,,,,,2019_Apr_11_1611,61.11050000679343,Cloud_Experiment_FR_REAL,001,35,
images/fcloud80-20_D1.2_5.tif,1.2,2,,,,,,,,,0,11,11,85,,,,,,,,,,,,,,,1,space,3.16217979998,1,1.084,,,,,,,,,,,,,,,,,,2019_Apr_11_1611,61.11050000679343,Cloud_Experiment_FR_REAL,001,35,
images/fcloud65-35_D1.1_4.tif,1.1,1,,,,,,,,,0,12,12,45,,,,,,,,,,,,,,,None,None,,None,10.825,,,,,,,,,,,,,,,,,,2019_Apr_11_1611,61.11050000679343,Cloud_Experiment_FR_REAL,001,35,
images/fcloud80-20_D1.6_5.tif,1.6,2,,,,,,,,,0,13,13,97,,,,,,,,,,,,,,,1,space,3.7912603,1,0.883,,,,,,,,,,,,,,,,,,2019_Apr_11_1611,61.11050000679343,Cloud_Experiment_FR_REAL,001,35,
images/fcloud_D1.7_5.tif,1.7,0,,,,,,,,,0,14,14,28,,,,,,,,,,,,,,,1,space,6.41148389998,1,3.15,,,,,,,,,,,,,,,,,,2019_Apr_11_1611,61.11050000679343,Cloud_Experiment_FR_REAL,001,35,
images/fcloud80-20_D1.3_6.tif,1.3,2,,,,,,,,,0,15,15,89,,,,,,,,,,,,,,,None,None,,None,12.475,,,,,,,,,,,,,,,,,,2019_Apr_11_1611,61.11050000679343,Cloud_Experiment_FR_REAL,001,35,
images/fcloud80-20_D1.5_4.tif,1.5,2,,,,,,,,,0,16,16,93,,,,,,,,,,,,,,,None,None,,None,21.749,,,,,,,,,,,,,,,,,,2019_Apr_11_1611,61.11050000679343,Cloud_Experiment_FR_REAL,001,35,
images/fcloud65-35_D1.2_4.tif,1.2,1,,,,,,,,,0,17,17,48,,,,,,,,,,,,,,,None,None,,None,31.157,,,,,,,,,,,,,,,,,,2019_Apr_11_1611,61.11050000679343,Cloud_Experiment_FR_REAL,001,35,
images/fcloud65-35_D1.8_6.tif,1.8,1,,,,,,,,,0,18,18,68,,,,,,,,,,,,,,,2,space,4.34720640001,1,0.966,,,,,,,,,,,,,,,,,,2019_Apr_11_1611,61.11050000679343,Cloud_Experiment_FR_REAL,001,35,
images/fcloud_D1.9_4.tif,1.9,0,,,,,,,,,0,19,19,33,,,,,,,,,,,,,,,None,None,,None,10.792,,,,,,,,,,,,,,,,,,2019_Apr_11_1611,61.11050000679343,Cloud_Experiment_FR_REAL,001,35,
images/fcloud65-35_D0.8_4.tif,0.8,1,,,,,,,,,0,20,20,36,,,,,,,,,,,,,,,None,None,,None,20.683,,,,,,,,,,,,,,,,,,2019_Apr_11_1611,61.11050000679343,Cloud_Experiment_FR_REAL,001,35,
images/fcloud80-20_D1_6.tif,1.0,2,,,,,,,,,0,21,21,80,,,,,,,,,,,,,,,None,None,,None,30.19,,,,,,,,,,,,,,,,,,2019_Apr_11_1611,61.11050000679343,Cloud_Experiment_FR_REAL,001,35,
images/fcloud65-35_D1.8_4.tif,1.8,1,,,,,,,,,0,22,22,66,,,,,,,,,,,,,,,None,None,,None,39.981,,,,,,,,,,,,,,,,,,2019_Apr_11_1611,61.11050000679343,Cloud_Experiment_FR_REAL,001,35,
images/fcloud80-20_D1_4.tif,1.0,2,,,,,,,,,0,23,23,78,,,,,,,,,,,,,,,None,None,,None,49.357,,,,,,,,,,,,,,,,,,2019_Apr_11_1611,61.11050000679343,Cloud_Experiment_FR_REAL,001,35,
images/fcloud80-20_D1.1_4.tif,1.1,2,,,,,,,,,0,24,24,81,,,,,,,,,,,,,,,None,None,,None,59.065,,,,,,,,,,,,,,,,,,2019_Apr_11_1611,61.11050000679343,Cloud_Experiment_FR_REAL,001,35,
images/fcloud65-35_D1_5.tif,1.0,1,,,,,,,,,0,25,25,43,,,,,,,,,,,,,,,None,None,,None,69.422,,,,,,,,,,,,,,,,,,2019_Apr_11_1611,61.11050000679343,Cloud_Experiment_FR_REAL,001,35,
images/fcloud_D1.6_6.tif,1.6,0,,,,,,,,,0,26,26,26,,,,,,,,,,,,,,,1,None,,1,1.818,,,,,,,,,,,,,,,,,,2019_Apr_11_1611,61.11050000679343,Cloud_Experiment_FR_REAL,001,35,
images/fcloud80-20_D1.6_6.tif,1.6,2,,,,,,,,,0,27,27,98,,,,,,,,,,,,,,,None,None,,None,12.257,,,,,,,,,,,,,,,,,,2019_Apr_11_1611,61.11050000679343,Cloud_Experiment_FR_REAL,001,35,
images/fcloud80-20_D1.1_6.tif,1.1,2,,,,,,,,,0,28,28,83,,,,,,,,,,,,,,,1,space,6.44388030001,3,3.334,,,,,,,,,,,,,,,,,,2019_Apr_11_1611,61.11050000679343,Cloud_Experiment_FR_REAL,001,35,
images/fcloud80-20_D0.8_5.tif,0.8,2,,,,,,,,,0,29,29,73,,,,,,,,,,,,,,,None,None,,None,12.773,,,,,,,,,,,,,,,,,,2019_Apr_11_1611,61.11050000679343,Cloud_Experiment_FR_REAL,001,35,
images/fcloud_D1.2_4.tif,1.2,0,,,,,,,,,0,30,30,12,,,,,,,,,,,,,,,None,None,,None,22.232,,,,,,,,,,,,,,,,,,2019_Apr_11_1611,61.11050000679343,Cloud_Experiment_FR_REAL,001,35,
images/fcloud_D1.5_4.tif,1.5,0,,,,,,,,,0,31,31,21,,,,,,,,,,,,,,,1,space,6.8946916,1,6.545,,,,,,,,,,,,,,,,,,2019_Apr_11_1611,61.11050000679343,Cloud_Experiment_FR_REAL,001,35,
images/fcloud_D1.3_5.tif,1.3,0,,,,,,,,,0,32,32,16,,,,,,,,,,,,,,,None,None,,None,15.936,,,,,,,,,,,,,,,,,,2019_Apr_11_1611,61.11050000679343,Cloud_Experiment_FR_REAL,001,35,
images/fcloud80-20_D1.8_6.tif,1.8,2,,,,,,,,,0,33,33,104,,,,,,,,,,,,,,,1,space,5.8748161,2,1.102,,,,,,,,,,,,,,,,,,2019_Apr_11_1611,61.11050000679343,Cloud_Experiment_FR_REAL,001,35,
images/fcloud_D1.1_4.tif,1.1,0,,,,,,,,,0,34,34,9,,,,,,,,,,,,,,,None,None,,None,11.008,,,,,,,,,,,,,,,,,,2019_Apr_11_1611,61.11050000679343,Cloud_Experiment_FR_REAL,001,35,
images/fcloud65-35_D1.8_5.tif,1.8,1,,,,,,,,,0,35,35,67,,,,,,,,,,,,,,,None,None,,None,20.368,,,,,,,,,,,,,,,,,,2019_Apr_11_1611,61.11050000679343,Cloud_Experiment_FR_REAL,001,35,
images/fcloud65-35_D1.6_4.tif,1.6,1,,,,,,,,,0,36,36,60,,,,,,,,,,,,,,,1,None,,1,1.017,,,,,,,,,,,,,,,,,,2019_Apr_11_1611,61.11050000679343,Cloud_Experiment_FR_REAL,001,35,
images/fcloud_D0.8_6.tif,0.8,0,,,,,,,,,0,37,37,2,,,,,,,,,,,,,,,None,None,,None,10.276,,,,,,,,,,,,,,,,,,2019_Apr_11_1611,61.11050000679343,Cloud_Experiment_FR_REAL,001,35,
images/fcloud65-35_D1.6_6.tif,1.6,1,,,,,,,,,0,38,38,62,,,,,,,,,,,,,,,1,space,3.61938250001,2,0.885,,,,,,,,,,,,,,,,,,2019_Apr_11_1611,61.11050000679343,Cloud_Experiment_FR_REAL,001,35,
images/fcloud_D1_4.tif,1.0,0,,,,,,,,,0,39,39,6,,,,,,,,,,,,,,,None,None,,None,10.442,,,,,,,,,,,,,,,,,,2019_Apr_11_1611,61.11050000679343,Cloud_Experiment_FR_REAL,001,35,
images/fcloud_D1.6_5.tif,1.6,0,,,,,,,,,0,40,40,25,,,,,,,,,,,,,,,None,None,,None,19.934,,,,,,,,,,,,,,,,,,2019_Apr_11_1611,61.11050000679343,Cloud_Experiment_FR_REAL,001,35,
images/fcloud80-20_D1_5.tif,1.0,2,,,,,,,,,0,41,41,79,,,,,,,,,,,,,,,None,None,,None,29.078,,,,,,,,,,,,,,,,,,2019_Apr_11_1611,61.11050000679343,Cloud_Experiment_FR_REAL,001,35,
images/fcloud80-20_D1.5_6.tif,1.5,2,,,,,,,,,0,42,42,95,,,,,,,,,,,,,,,1,space,7.363617,1,0.534,,,,,,,,,,,,,,,,,,2019_Apr_11_1611,61.11050000679343,Cloud_Experiment_FR_REAL,001,35,
images/fcloud65-35_D1.3_4.tif,1.3,1,,,,,,,,,0,43,43,51,,,,,,,,,,,,,,,None,None,,None,9.792,,,,,,,,,,,,,,,,,,2019_Apr_11_1611,61.11050000679343,Cloud_Experiment_FR_REAL,001,35,
images/fcloud65-35_D0.9_5.tif,0.9,1,,,,,,,,,0,44,44,40,,,,,,,,,,,,,,,1,None,,1,0.468,,,,,,,,,,,,,,,,,,2019_Apr_11_1611,61.11050000679343,Cloud_Experiment_FR_REAL,001,35,
images/fcloud_D0.8_5.tif,0.8,0,,,,,,,,,0,45,45,1,,,,,,,,,,,,,,,None,None,,None,9.759,,,,,,,,,,,,,,,,,,2019_Apr_11_1611,61.11050000679343,Cloud_Experiment_FR_REAL,001,35,
images/fcloud80-20_D1.9_5.tif,1.9,2,,,,,,,,,0,46,46,106,,,,,,,,,,,,,,,1,space,8.02604330002,1,3.349,,,,,,,,,,,,,,,,,,2019_Apr_11_1611,61.11050000679343,Cloud_Experiment_FR_REAL,001,35,
images/fcloud65-35_D0.8_6.tif,0.8,1,,,,,,,,,0,47,47,38,,,,,,,,,,,,,,,None,None,,None,12.606,,,,,,,,,,,,,,,,,,2019_Apr_11_1611,61.11050000679343,Cloud_Experiment_FR_REAL,001,35,
images/fcloud65-35_D1.5_6.tif,1.5,1,,,,,,,,,0,48,48,59,,,,,,,,,,,,,,,None,None,,None,22.081,,,,,,,,,,,,,,,,,,2019_Apr_11_1611,61.11050000679343,Cloud_Experiment_FR_REAL,001,35,
images/fcloud80-20_D1.2_4.tif,1.2,2,,,,,,,,,0,49,49,84,,,,,,,,,,,,,,,None,None,,None,30.94,,,,,,,,,,,,,,,,,,2019_Apr_11_1611,61.11050000679343,Cloud_Experiment_FR_REAL,001,35,
images/fcloud80-20_D1.7_5.tif,1.7,2,,,,,,,,,0,50,50,100,,,,,,,,,,,,,,,1,space,3.2777266,3,0.785,,,,,,,,,,,,,,,,,,2019_Apr_11_1611,61.11050000679343,Cloud_Experiment_FR_REAL,001,35,
images/fcloud80-20_D0.9_6.tif,0.9,2,,,,,,,,,0,51,51,77,,,,,,,,,,,,,,,1,space,4.65852629999,1,1.369,,,,,,,,,,,,,,,,,,2019_Apr_11_1611,61.11050000679343,Cloud_Experiment_FR_REAL,001,35,
images/fcloud65-35_D1.2_5.tif,1.2,1,,,,,,,,,0,52,52,49,,,,,,,,,,,,,,,None,None,,None,11.058,,,,,,,,,,,,,,,,,,2019_Apr_11_1611,61.11050000679343,Cloud_Experiment_FR_REAL,001,35,
images/fcloud80-20_D0.9_4.tif,0.9,2,,,,,,,,,0,53,53,75,,,,,,,,,,,,,,,None,None,,None,20.402,,,,,,,,,,,,,,,,,,2019_Apr_11_1611,61.11050000679343,Cloud_Experiment_FR_REAL,001,35,
images/fcloud65-35_D0.9_4.tif,0.9,1,,,,,,,,,0,54,54,39,,,,,,,,,,,,,,,None,None,,None,30.625,,,,,,,,,,,,,,,,,,2019_Apr_11_1611,61.11050000679343,Cloud_Experiment_FR_REAL,001,35,
images/fcloud80-20_D1.3_5.tif,1.3,2,,,,,,,,,0,55,55,88,,,,,,,,,,,,,,,None,None,,None,41.765,,,,,,,,,,,,,,,,,,2019_Apr_11_1611,61.11050000679343,Cloud_Experiment_FR_REAL,001,35,
images/fcloud_D1.4_5.tif,1.4,0,,,,,,,,,0,56,56,19,,,,,,,,,,,,,,,None,None,,None,51.289,,,,,,,,,,,,,,,,,,2019_Apr_11_1611,61.11050000679343,Cloud_Experiment_FR_REAL,001,35,
images/fcloud_D1_5.tif,1.0,0,,,,,,,,,0,57,57,7,,,,,,,,,,,,,,,1,space,7.03426859999,1,0.456,,,,,,,,,,,,,,,,,,2019_Apr_11_1611,61.11050000679343,Cloud_Experiment_FR_REAL,001,35,
images/fcloud80-20_D1.5_5.tif,1.5,2,,,,,,,,,0,58,58,94,,,,,,,,,,,,,,,1,space,1.8098246,3,4.119,,,,,,,,,,,,,,,,,,2019_Apr_11_1611,61.11050000679343,Cloud_Experiment_FR_REAL,001,35,
images/fcloud65-35_D1.4_6.tif,1.4,1,,,,,,,,,0,59,59,56,,,,,,,,,,,,,,,1,space,6.2845178,1,1.867,,,,,,,,,,,,,,,,,,2019_Apr_11_1611,61.11050000679343,Cloud_Experiment_FR_REAL,001,35,
images/fcloud80-20_D0.9_5.tif,0.9,2,,,,,,,,,0,60,60,76,,,,,,,,,,,,,,,1,space,4.4683871,1,0.901,,,,,,,,,,,,,,,,,,2019_Apr_11_1611,61.11050000679343,Cloud_Experiment_FR_REAL,001,35,
images/fcloud80-20_D1.7_4.tif,1.7,2,,,,,,,,,0,61,61,99,,,,,,,,,,,,,,,1,space,5.68551910002,1,0.985,,,,,,,,,,,,,,,,,,2019_Apr_11_1611,61.11050000679343,Cloud_Experiment_FR_REAL,001,35,
images/fcloud_D1.8_5.tif,1.8,0,,,,,,,,,0,62,62,31,,,,,,,,,,,,,,,1,space,7.91504930001,1,1.301,,,,,,,,,,,,,,,,,,2019_Apr_11_1611,61.11050000679343,Cloud_Experiment_FR_REAL,001,35,
images/fcloud80-20_D1.8_5.tif,1.8,2,,,,,,,,,0,63,63,103,,,,,,,,,,,,,,,1,space,4.82225270002,1,1.702,,,,,,,,,,,,,,,,,,2019_Apr_11_1611,61.11050000679343,Cloud_Experiment_FR_REAL,001,35,
images/fcloud80-20_D1.3_4.tif,1.3,2,,,,,,,,,0,64,64,87,,,,,,,,,,,,,,,None,None,,None,11.257,,,,,,,,,,,,,,,,,,2019_Apr_11_1611,61.11050000679343,Cloud_Experiment_FR_REAL,001,35,
images/fcloud_D1.6_4.tif,1.6,0,,,,,,,,,0,65,65,24,,,,,,,,,,,,,,,None,None,,None,21.802,,,,,,,,,,,,,,,,,,2019_Apr_11_1611,61.11050000679343,Cloud_Experiment_FR_REAL,001,35,
images/fcloud80-20_D1.4_4.tif,1.4,2,,,,,,,,,0,66,66,90,,,,,,,,,,,,,,,None,None,,None,33.755,,,,,,,,,,,,,,,,,,2019_Apr_11_1611,61.11050000679343,Cloud_Experiment_FR_REAL,001,35,
images/fcloud_D0.9_5.tif,0.9,0,,,,,,,,,0,67,67,4,,,,,,,,,,,,,,,None,None,,None,43.418,,,,,,,,,,,,,,,,,,2019_Apr_11_1611,61.11050000679343,Cloud_Experiment_FR_REAL,001,35,
images/fcloud_D1.3_6.tif,1.3,0,,,,,,,,,0,68,68,17,,,,,,,,,,,,,,,2,space,4.74814370001,2,1.784,,,,,,,,,,,,,,,,,,2019_Apr_11_1611,61.11050000679343,Cloud_Experiment_FR_REAL,001,35,
images/fcloud_D1.5_5.tif,1.5,0,,,,,,,,,0,69,69,22,,,,,,,,,,,,,,,1,space,3.37924480002,2,1.035,,,,,,,,,,,,,,,,,,2019_Apr_11_1611,61.11050000679343,Cloud_Experiment_FR_REAL,001,35,
images/fcloud_D0.9_6.tif,0.9,0,,,,,,,,,0,70,70,5,,,,,,,,,,,,,,,None,None,,None,12.94,,,,,,,,,,,,,,,,,,2019_Apr_11_1611,61.11050000679343,Cloud_Experiment_FR_REAL,001,35,
images/fcloud80-20_D0.8_4.tif,0.8,2,,,,,,,,,0,71,71,72,,,,,,,,,,,,,,,1,space,7.04543579998,1,1.501,,,,,,,,,,,,,,,,,,2019_Apr_11_1611,61.11050000679343,Cloud_Experiment_FR_REAL,001,35,
images/fcloud65-35_D1.6_5.tif,1.6,1,,,,,,,,,0,72,72,61,,,,,,,,,,,,,,,None,None,,None,11.192,,,,,,,,,,,,,,,,,,2019_Apr_11_1611,61.11050000679343,Cloud_Experiment_FR_REAL,001,35,
images/fcloud_D1.5_6.tif,1.5,0,,,,,,,,,0,73,73,23,,,,,,,,,,,,,,,None,None,,None,21.848,,,,,,,,,,,,,,,,,,2019_Apr_11_1611,61.11050000679343,Cloud_Experiment_FR_REAL,001,35,
images/fcloud65-35_D1.5_4.tif,1.5,1,,,,,,,,,0,74,74,57,,,,,,,,,,,,,,,1,space,5.02631769999,2,3.082,,,,,,,,,,,,,,,,,,2019_Apr_11_1611,61.11050000679343,Cloud_Experiment_FR_REAL,001,35,
images/fcloud65-35_D1.3_6.tif,1.3,1,,,,,,,,,0,75,75,53,,,,,,,,,,,,,,,None,None,,None,12.124,,,,,,,,,,,,,,,,,,2019_Apr_11_1611,61.11050000679343,Cloud_Experiment_FR_REAL,001,35,
images/fcloud65-35_D0.8_5.tif,0.8,1,,,,,,,,,0,76,76,37,,,,,,,,,,,,,,,None,None,,None,21.332,,,,,,,,,,,,,,,,,,2019_Apr_11_1611,61.11050000679343,Cloud_Experiment_FR_REAL,001,35,
images/fcloud_D1.3_4.tif,1.3,0,,,,,,,,,0,77,77,15,,,,,,,,,,,,,,,None,None,,None,30.491,,,,,,,,,,,,,,,,,,2019_Apr_11_1611,61.11050000679343,Cloud_Experiment_FR_REAL,001,35,
images/fcloud80-20_D1.9_4.tif,1.9,2,,,,,,,,,0,78,78,105,,,,,,,,,,,,,,,1,space,5.3947645,1,1.017,,,,,,,,,,,,,,,,,,2019_Apr_11_1611,61.11050000679343,Cloud_Experiment_FR_REAL,001,35,
images/fcloud_D1.9_5.tif,1.9,0,,,,,,,,,0,79,79,34,,,,,,,,,,,,,,,None,None,,None,10.376,,,,,,,,,,,,,,,,,,2019_Apr_11_1611,61.11050000679343,Cloud_Experiment_FR_REAL,001,35,
images/fcloud65-35_D1.7_5.tif,1.7,1,,,,,,,,,0,80,80,64,,,,,,,,,,,,,,,2,space,2.29353609998,3,1.169,,,,,,,,,,,,,,,,,,2019_Apr_11_1611,61.11050000679343,Cloud_Experiment_FR_REAL,001,35,
images/fcloud_D1.2_6.tif,1.2,0,,,,,,,,,0,81,81,14,,,,,,,,,,,,,,,1,None,,1,1.369,,,,,,,,,,,,,,,,,,2019_Apr_11_1611,61.11050000679343,Cloud_Experiment_FR_REAL,001,35,
images/fcloud80-20_D1.6_4.tif,1.6,2,,,,,,,,,0,82,82,96,,,,,,,,,,,,,,,1,space,6.59371450002,1,5.431,,,,,,,,,,,,,,,,,,2019_Apr_11_1611,61.11050000679343,Cloud_Experiment_FR_REAL,001,35,
images/fcloud_D1.9_6.tif,1.9,0,,,,,,,,,0,83,83,35,,,,,,,,,,,,,,,None,None,,None,15.803,,,,,,,,,,,,,,,,,,2019_Apr_11_1611,61.11050000679343,Cloud_Experiment_FR_REAL,001,35,
images/fcloud65-35_D1.2_6.tif,1.2,1,,,,,,,,,0,84,84,50,,,,,,,,,,,,,,,1,space,2.37466490001,3,1.866,,,,,,,,,,,,,,,,,,2019_Apr_11_1611,61.11050000679343,Cloud_Experiment_FR_REAL,001,35,
images/fcloud65-35_D1.7_6.tif,1.7,1,,,,,,,,,0,85,85,65,,,,,,,,,,,,,,,None,None,,None,11.756,,,,,,,,,,,,,,,,,,2019_Apr_11_1611,61.11050000679343,Cloud_Experiment_FR_REAL,001,35,
images/fcloud_D1.4_4.tif,1.4,0,,,,,,,,,0,86,86,18,,,,,,,,,,,,,,,1,space,7.23694460001,1,4.231,,,,,,,,,,,,,,,,,,2019_Apr_11_1611,61.11050000679343,Cloud_Experiment_FR_REAL,001,35,
images/fcloud80-20_D1.2_6.tif,1.2,2,,,,,,,,,0,87,87,86,,,,,,,,,,,,,,,None,None,,None,13.423,,,,,,,,,,,,,,,,,,2019_Apr_11_1611,61.11050000679343,Cloud_Experiment_FR_REAL,001,35,
images/fcloud_D1.7_4.tif,1.7,0,,,,,,,,,0,88,88,27,,,,,,,,,,,,,,,None,None,,None,22.248,,,,,,,,,,,,,,,,,,2019_Apr_11_1611,61.11050000679343,Cloud_Experiment_FR_REAL,001,35,
images/fcloud80-20_D1.4_5.tif,1.4,2,,,,,,,,,0,89,89,91,,,,,,,,,,,,,,,None,None,,None,31.723,,,,,,,,,,,,,,,,,,2019_Apr_11_1611,61.11050000679343,Cloud_Experiment_FR_REAL,001,35,
images/fcloud65-35_D1.9_5.tif,1.9,1,,,,,,,,,0,90,90,70,,,,,,,,,,,,,,,2,space,2.55641230001,3,1.268,,,,,,,,,,,,,,,,,,2019_Apr_11_1611,61.11050000679343,Cloud_Experiment_FR_REAL,001,35,
images/fcloud_D1.2_5.tif,1.2,0,,,,,,,,,0,91,91,13,,,,,,,,,,,,,,,2,space,5.5717001,2,1.284,,,,,,,,,,,,,,,,,,2019_Apr_11_1611,61.11050000679343,Cloud_Experiment_FR_REAL,001,35,
images/fcloud_D0.9_4.tif,0.9,0,,,,,,,,,0,92,92,3,,,,,,,,,,,,,,,None,None,,None,10.544,,,,,,,,,,,,,,,,,,2019_Apr_11_1611,61.11050000679343,Cloud_Experiment_FR_REAL,001,35,
images/fcloud80-20_D1.4_6.tif,1.4,2,,,,,,,,,0,93,93,92,,,,,,,,,,,,,,,1,space,4.710724,2,1.518,,,,,,,,,,,,,,,,,,2019_Apr_11_1611,61.11050000679343,Cloud_Experiment_FR_REAL,001,35,
images/fcloud65-35_D1.9_6.tif,1.9,1,,,,,,,,,0,94,94,71,,,,,,,,,,,,,,,None,None,,None,11.608,,,,,,,,,,,,,,,,,,2019_Apr_11_1611,61.11050000679343,Cloud_Experiment_FR_REAL,001,35,
images/fcloud_D1.1_5.tif,1.1,0,,,,,,,,,0,95,95,10,,,,,,,,,,,,,,,None,None,,None,21.116,,,,,,,,,,,,,,,,,,2019_Apr_11_1611,61.11050000679343,Cloud_Experiment_FR_REAL,001,35,
images/fcloud80-20_D1.8_4.tif,1.8,2,,,,,,,,,0,96,96,102,,,,,,,,,,,,,,,None,None,,None,30.41,,,,,,,,,,,,,,,,,,2019_Apr_11_1611,61.11050000679343,Cloud_Experiment_FR_REAL,001,35,
images/fcloud65-35_D1.1_6.tif,1.1,1,,,,,,,,,0,97,97,47,,,,,,,,,,,,,,,None,None,,None,39.749,,,,,,,,,,,,,,,,,,2019_Apr_11_1611,61.11050000679343,Cloud_Experiment_FR_REAL,001,35,
images/fcloud_D0.8_4.tif,0.8,0,,,,,,,,,0,98,98,0,,,,,,,,,,,,,,,None,None,,None,49.091,,,,,,,,,,,,,,,,,,2019_Apr_11_1611,61.11050000679343,Cloud_Experiment_FR_REAL,001,35,
images/fcloud80-20_D0.8_6.tif,0.8,2,,,,,,,,,0,99,99,74,,,,,,,,,,,,,,,None,None,,None,58.601,,,,,,,,,,,,,,,,,,2019_Apr_11_1611,61.11050000679343,Cloud_Experiment_FR_REAL,001,35,
images/fcloud80-20_D1.1_5.tif,1.1,2,,,,,,,,,0,100,100,82,,,,,,,,,,,,,,,None,None,,None,68.508,,,,,,,,,,,,,,,,,,2019_Apr_11_1611,61.11050000679343,Cloud_Experiment_FR_REAL,001,35,
images/fcloud65-35_D1.4_5.tif,1.4,1,,,,,,,,,0,101,101,55,,,,,,,,,,,,,,,None,None,,None,78.118,,,,,,,,,,,,,,,,,,2019_Apr_11_1611,61.11050000679343,Cloud_Experiment_FR_REAL,001,35,
images/fcloud65-35_D1_6.tif,1.0,1,,,,,,,,,0,102,102,44,,,,,,,,,,,,,,,None,None,,None,87.376,,,,,,,,,,,,,,,,,,2019_Apr_11_1611,61.11050000679343,Cloud_Experiment_FR_REAL,001,35,
images/fcloud65-35_D1.5_5.tif,1.5,1,,,,,,,,,0,103,103,58,,,,,,,,,,,,,,,1,None,,1,1.868,,,,,,,,,,,,,,,,,,2019_Apr_11_1611,61.11050000679343,Cloud_Experiment_FR_REAL,001,35,
images/fcloud65-35_D0.9_6.tif,0.9,1,,,,,,,,,0,104,104,41,,,,,,,,,,,,,,,1,space,3.83270629999,1,1.368,,,,,,,,,,,,,,,,,,2019_Apr_11_1611,61.11050000679343,Cloud_Experiment_FR_REAL,001,35,
images/fcloud65-35_D1.7_4.tif,1.7,1,,,,,,,,,0,105,105,63,,,,,,,,,,,,,,,None,None,,None,10.359,,,,,,,,,,,,,,,,,,2019_Apr_11_1611,61.11050000679343,Cloud_Experiment_FR_REAL,001,35,
images/fcloud65-35_D1_4.tif,1.0,1,,,,,,,,,0,106,106,42,,,,,,,,,,,,,,,1,space,3.77257440001,1,1.217,,,,,,,,,,,,,,,,,,2019_Apr_11_1611,61.11050000679343,Cloud_Experiment_FR_REAL,001,35,
images/fcloud_D1_6.tif,1.0,0,,,,,,,,,0,107,107,8,,,,,,,,,,,,,,,1,space,7.60337199998,1,1.351,,,,,,,,,,,,,,,,,,2019_Apr_11_1611,61.11050000679343,Cloud_Experiment_FR_REAL,001,35,
,,,,,,,,,,,,,,,,,,,,,,,,,,,,,,,,,,,,,,,,,,,,,,space,3.3311936,,,,2019_Apr_11_1611,61.11050000679343,Cloud_Experiment_FR_REAL,001,35,
,,,,,,,,,,,,,,,,,,,,,,,,,4,11.284,,,,,,,,,,,,,,,,,,,,,,,,,2019_Apr_11_1611,61.11050000679343,Cloud_Experiment_FR_REAL,001,35,
,,,,,,,,,,,,,,,,,,,,,,,,,,,,,,,,,,4,,,,,,,,,,,,,,,,,2019_Apr_11_1611,61.11050000679343,Cloud_Experiment_FR_REAL,001,35,
,,,,,,,,,,,,,,,,,,,,,,,,,,,,,,,,,,,4,,,,,,,,,,,,,,,,2019_Apr_11_1611,61.11050000679343,Cloud_Experiment_FR_REAL,001,35,
,,,,,,,,,,,,,,,,,,,,,,,,,,,,,,,,,,,,3,,,,,,,,,,,,,,,2019_Apr_11_1611,61.11050000679343,Cloud_Experiment_FR_REAL,001,35,
,,,,,,,,,,,,,,,,,,,,,,,,,,,,,,,,,,,,,3,,,,,,,,,,,,,,2019_Apr_11_1611,61.11050000679343,Cloud_Experiment_FR_REAL,001,35,
,,,,,,,,,,,,,,,,,,,,,,,,,,,,,,,,,,,,,,3,,,,,,,,,,,,,2019_Apr_11_1611,61.11050000679343,Cloud_Experiment_FR_REAL,001,35,
,,,,,,,,,,,,,,,,,,,,,,,,,,,,,,,,,,,,,,,2,,,,,,,,,,,,2019_Apr_11_1611,61.11050000679343,Cloud_Experiment_FR_REAL,001,35,
,,,,,,,,,,,,,,,,,,,,,,,,,,,,,,,,,,,,,,,,3,,,,,,,,,,,2019_Apr_11_1611,61.11050000679343,Cloud_Experiment_FR_REAL,001,35,
,,,,,,,,,,,,,,,,,,,,,,,,,,,,,,,,,,,,,,,,,7,,,,,,,,,,2019_Apr_11_1611,61.11050000679343,Cloud_Experiment_FR_REAL,001,35,
,,,,,,,,,,,,,,,,,,,,,,,,,,,,,,,,,,,,,,,,,,3,,,,,,,,,2019_Apr_11_1611,61.11050000679343,Cloud_Experiment_FR_REAL,001,35,
,,,,,,,,,,,,,,,,,,,,,,,,,,,,,,,,,,,,,,,,,,,6,,,,,,,,2019_Apr_11_1611,61.11050000679343,Cloud_Experiment_FR_REAL,001,35,
,,,,,,,,,,,,,,,,,,,,,,,,,,,,,,,,,,,,,,,,,,,,,,,,space,1.69953319998,,2019_Apr_11_1611,61.11050000679343,Cloud_Experiment_FR_REAL,001,35,
images/fcloud65-35_D1_10.tif,1.0,1,,,,,,,,,,,,,0,0,0,59,,,,,,,,,,,None,None,,None,93.122,,,,,,,,,,,,,,,,,,2019_Apr_11_1611,61.11050000679343,Cloud_Experiment_FR_REAL,001,35,
images/fcloud80-20_D0.9_7.tif,0.9,2,,,,,,,,,,,,,0,1,1,100,,,,,,,,,,,None,None,,None,101.611,,,,,,,,,,,,,,,,,,2019_Apr_11_1611,61.11050000679343,Cloud_Experiment_FR_REAL,001,35,
images/fcloud_D1.3_8.tif,1.3,0,,,,,,,,,,,,,0,2,2,21,,,,,,,,,,,None,None,,None,110.169,,,,,,,,,,,,,,,,,,2019_Apr_11_1611,61.11050000679343,Cloud_Experiment_FR_REAL,001,35,
images/fcloud_D1.6_10.tif,1.6,0,,,,,,,,,,,,,0,3,3,35,,,,,,,,,,,1,space,5.885718,1,0.486,,,,,,,,,,,,,,,,,,2019_Apr_11_1611,61.11050000679343,Cloud_Experiment_FR_REAL,001,35,
images/fcloud_D1.6_7.tif,1.6,0,,,,,,,,,,,,,0,4,4,32,,,,,,,,,,,1,space,6.4092655,1,2.817,,,,,,,,,,,,,,,,,,2019_Apr_11_1611,61.11050000679343,Cloud_Experiment_FR_REAL,001,35,
images/fcloud80-20_D1.5_9.tif,1.5,2,,,,,,,,,,,,,0,5,5,126,,,,,,,,,,,None,None,,None,11.676,,,,,,,,,,,,,,,,,,2019_Apr_11_1611,61.11050000679343,Cloud_Experiment_FR_REAL,001,35,
images/fcloud_D1.1_10.tif,1.1,0,,,,,,,,,,,,,0,6,6,15,,,,,,,,,,,None,None,,None,23.163,,,,,,,,,,,,,,,,,,2019_Apr_11_1611,61.11050000679343,Cloud_Experiment_FR_REAL,001,35,
images/fcloud80-20_D0.8_7.tif,0.8,2,,,,,,,,,,,,,0,7,7,96,,,,,,,,,,,None,None,,None,31.626,,,,,,,,,,,,,,,,,,2019_Apr_11_1611,61.11050000679343,Cloud_Experiment_FR_REAL,001,35,
images/fcloud80-20_D1.1_7.tif,1.1,2,,,,,,,,,,,,,0,8,8,108,,,,,,,,,,,None,None,,None,40.049,,,,,,,,,,,,,,,,,,2019_Apr_11_1611,61.11050000679343,Cloud_Experiment_FR_REAL,001,35,
images/fcloud_D1.4_10.tif,1.4,0,,,,,,,,,,,,,0,9,9,27,,,,,,,,,,,None,None,,None,49.174,,,,,,,,,,,,,,,,,,2019_Apr_11_1611,61.11050000679343,Cloud_Experiment_FR_REAL,001,35,
images/fcloud80-20_D0.8_8.tif,0.8,2,,,,,,,,,,,,,0,10,10,97,,,,,,,,,,,None,None,,None,57.7,,,,,,,,,,,,,,,,,,2019_Apr_11_1611,61.11050000679343,Cloud_Experiment_FR_REAL,001,35,
images/fcloud80-20_D0.9_9.tif,0.9,2,,,,,,,,,,,,,0,11,11,102,,,,,,,,,,,None,None,,None,67.194,,,,,,,,,,,,,,,,,,2019_Apr_11_1611,61.11050000679343,Cloud_Experiment_FR_REAL,001,35,
images/fcloud_D1.8_10.tif,1.8,0,,,,,,,,,,,,,0,12,12,43,,,,,,,,,,,None,None,,None,77.767,,,,,,,,,,,,,,,,,,2019_Apr_11_1611,61.11050000679343,Cloud_Experiment_FR_REAL,001,35,
images/fcloud80-20_D1.1_8.tif,1.1,2,,,,,,,,,,,,,0,13,13,109,,,,,,,,,,,None,None,,None,86.88,,,,,,,,,,,,,,,,,,2019_Apr_11_1611,61.11050000679343,Cloud_Experiment_FR_REAL,001,35,
images/fcloud65-35_D1.8_7.tif,1.8,1,,,,,,,,,,,,,0,14,14,88,,,,,,,,,,,1,space,4.5666392,3,0.419,,,,,,,,,,,,,,,,,,2019_Apr_11_1611,61.11050000679343,Cloud_Experiment_FR_REAL,001,35,
images/fcloud_D1.7_8.tif,1.7,0,,,,,,,,,,,,,0,15,15,37,,,,,,,,,,,1,space,3.69339070001,2,0.817,,,,,,,,,,,,,,,,,,2019_Apr_11_1611,61.11050000679343,Cloud_Experiment_FR_REAL,001,35,
images/fcloud_D1.7_9.tif,1.7,0,,,,,,,,,,,,,0,16,16,38,,,,,,,,,,,None,None,,None,10.108,,,,,,,,,,,,,,,,,,2019_Apr_11_1611,61.11050000679343,Cloud_Experiment_FR_REAL,001,35,
images/fcloud80-20_D1_7.tif,1.0,2,,,,,,,,,,,,,0,17,17,104,,,,,,,,,,,None,None,,None,19.784,,,,,,,,,,,,,,,,,,2019_Apr_11_1611,61.11050000679343,Cloud_Experiment_FR_REAL,001,35,
images/fcloud80-20_D1.6_7.tif,1.6,2,,,,,,,,,,,,,0,18,18,128,,,,,,,,,,,None,None,,None,29.41,,,,,,,,,,,,,,,,,,2019_Apr_11_1611,61.11050000679343,Cloud_Experiment_FR_REAL,001,35,
images/fcloud80-20_D1.7_10.tif,1.7,2,,,,,,,,,,,,,0,19,19,135,,,,,,,,,,,None,None,,None,39.366,,,,,,,,,,,,,,,,,,2019_Apr_11_1611,61.11050000679343,Cloud_Experiment_FR_REAL,001,35,
images/fcloud65-35_D1.6_7.tif,1.6,1,,,,,,,,,,,,,0,20,20,80,,,,,,,,,,,None,None,,None,48.928,,,,,,,,,,,,,,,,,,2019_Apr_11_1611,61.11050000679343,Cloud_Experiment_FR_REAL,001,35,
images/fcloud_D1_9.tif,1.0,0,,,,,,,,,,,,,0,21,21,10,,,,,,,,,,,1,space,4.4006308,2,1.401,,,,,,,,,,,,,,,,,,2019_Apr_11_1611,61.11050000679343,Cloud_Experiment_FR_REAL,001,35,
images/fcloud65-35_D1.4_10.tif,1.4,1,,,,,,,,,,,,,0,22,22,75,,,,,,,,,,,2,space,4.40335909999,2,3.432,,,,,,,,,,,,,,,,,,2019_Apr_11_1611,61.11050000679343,Cloud_Experiment_FR_REAL,001,35,
images/fcloud_D1.4_8.tif,1.4,0,,,,,,,,,,,,,0,23,23,25,,,,,,,,,,,None,None,,None,12.79,,,,,,,,,,,,,,,,,,2019_Apr_11_1611,61.11050000679343,Cloud_Experiment_FR_REAL,001,35,
images/fcloud65-35_D1.5_7.tif,1.5,1,,,,,,,,,,,,,0,24,24,76,,,,,,,,,,,1,space,7.23556239999,1,1.084,,,,,,,,,,,,,,,,,,2019_Apr_11_1611,61.11050000679343,Cloud_Experiment_FR_REAL,001,35,
images/fcloud_D1.9_9.tif,1.9,0,,,,,,,,,,,,,0,25,25,46,,,,,,,,,,,None,None,,None,11.174,,,,,,,,,,,,,,,,,,2019_Apr_11_1611,61.11050000679343,Cloud_Experiment_FR_REAL,001,35,
images/fcloud80-20_D1.7_8.tif,1.7,2,,,,,,,,,,,,,0,26,26,133,,,,,,,,,,,1,space,4.6734766,3,0.419,,,,,,,,,,,,,,,,,,2019_Apr_11_1611,61.11050000679343,Cloud_Experiment_FR_REAL,001,35,
images/fcloud65-35_D0.8_9.tif,0.8,1,,,,,,,,,,,,,0,27,27,50,,,,,,,,,,,None,None,,None,9.526,,,,,,,,,,,,,,,,,,2019_Apr_11_1611,61.11050000679343,Cloud_Experiment_FR_REAL,001,35,
images/fcloud80-20_D1.1_10.tif,1.1,2,,,,,,,,,,,,,0,28,28,111,,,,,,,,,,,None,None,,None,20.852,,,,,,,,,,,,,,,,,,2019_Apr_11_1611,61.11050000679343,Cloud_Experiment_FR_REAL,001,35,
images/fcloud80-20_D0.9_8.tif,0.9,2,,,,,,,,,,,,,0,29,29,101,,,,,,,,,,,None,None,,None,30.658,,,,,,,,,,,,,,,,,,2019_Apr_11_1611,61.11050000679343,Cloud_Experiment_FR_REAL,001,35,
images/fcloud80-20_D1.9_10.tif,1.9,2,,,,,,,,,,,,,0,30,30,143,,,,,,,,,,,2,space,4.2244185,1,0.603,,,,,,,,,,,,,,,,,,2019_Apr_11_1611,61.11050000679343,Cloud_Experiment_FR_REAL,001,35,
images/fcloud65-35_D0.8_10.tif,0.8,1,,,,,,,,,,,,,0,31,31,51,,,,,,,,,,,None,None,,None,9.876,,,,,,,,,,,,,,,,,,2019_Apr_11_1611,61.11050000679343,Cloud_Experiment_FR_REAL,001,35,
images/fcloud65-35_D1.4_7.tif,1.4,1,,,,,,,,,,,,,0,32,32,72,,,,,,,,,,,1,space,6.53491730001,1,1.251,,,,,,,,,,,,,,,,,,2019_Apr_11_1611,61.11050000679343,Cloud_Experiment_FR_REAL,001,35,
images/fcloud80-20_D1.9_8.tif,1.9,2,,,,,,,,,,,,,0,33,33,141,,,,,,,,,,,1,None,,1,1.035,,,,,,,,,,,,,,,,,,2019_Apr_11_1611,61.11050000679343,Cloud_Experiment_FR_REAL,001,35,
images/fcloud_D1.9_7.tif,1.9,0,,,,,,,,,,,,,0,34,34,44,,,,,,,,,,,None,None,,None,14.222,,,,,,,,,,,,,,,,,,2019_Apr_11_1611,61.11050000679343,Cloud_Experiment_FR_REAL,001,35,
images/fcloud65-35_D1_9.tif,1.0,1,,,,,,,,,,,,,0,35,35,58,,,,,,,,,,,None,None,,None,24.112,,,,,,,,,,,,,,,,,,2019_Apr_11_1611,61.11050000679343,Cloud_Experiment_FR_REAL,001,35,
images/fcloud65-35_D0.9_7.tif,0.9,1,,,,,,,,,,,,,0,36,36,52,,,,,,,,,,,None,None,,None,33.222,,,,,,,,,,,,,,,,,,2019_Apr_11_1611,61.11050000679343,Cloud_Experiment_FR_REAL,001,35,
images/fcloud_D1.5_10.tif,1.5,0,,,,,,,,,,,,,0,37,37,31,,,,,,,,,,,None,None,,None,42.449,,,,,,,,,,,,,,,,,,2019_Apr_11_1611,61.11050000679343,Cloud_Experiment_FR_REAL,001,35,
images/fcloud65-35_D1.8_10.tif,1.8,1,,,,,,,,,,,,,0,38,38,91,,,,,,,,,,,None,None,,None,51.806,,,,,,,,,,,,,,,,,,2019_Apr_11_1611,61.11050000679343,Cloud_Experiment_FR_REAL,001,35,
images/fcloud_D1.9_8.tif,1.9,0,,,,,,,,,,,,,0,39,39,45,,,,,,,,,,,None,None,,None,60.233,,,,,,,,,,,,,,,,,,2019_Apr_11_1611,61.11050000679343,Cloud_Experiment_FR_REAL,001,35,
images/fcloud65-35_D0.9_8.tif,0.9,1,,,,,,,,,,,,,0,40,40,53,,,,,,,,,,,None,None,,None,69.589,,,,,,,,,,,,,,,,,,2019_Apr_11_1611,61.11050000679343,Cloud_Experiment_FR_REAL,001,35,
images/fcloud_D0.8_9.tif,0.8,0,,,,,,,,,,,,,0,41,41,2,,,,,,,,,,,None,None,,None,80.249,,,,,,,,,,,,,,,,,,2019_Apr_11_1611,61.11050000679343,Cloud_Experiment_FR_REAL,001,35,
images/fcloud_D1.3_7.tif,1.3,0,,,,,,,,,,,,,0,42,42,20,,,,,,,,,,,None,None,,None,89.905,,,,,,,,,,,,,,,,,,2019_Apr_11_1611,61.11050000679343,Cloud_Experiment_FR_REAL,001,35,
images/fcloud80-20_D1.8_8.tif,1.8,2,,,,,,,,,,,,,0,43,43,137,,,,,,,,,,,1,space,5.05638190001,1,1.818,,,,,,,,,,,,,,,,,,2019_Apr_11_1611,61.11050000679343,Cloud_Experiment_FR_REAL,001,35,
images/fcloud65-35_D0.9_9.tif,0.9,1,,,,,,,,,,,,,0,44,44,54,,,,,,,,,,,None,None,,None,11.525,,,,,,,,,,,,,,,,,,2019_Apr_11_1611,61.11050000679343,Cloud_Experiment_FR_REAL,001,35,
images/fcloud65-35_D1_7.tif,1.0,1,,,,,,,,,,,,,0,45,45,56,,,,,,,,,,,1,space,4.91890759999,1,1.567,,,,,,,,,,,,,,,,,,2019_Apr_11_1611,61.11050000679343,Cloud_Experiment_FR_REAL,001,35,
images/fcloud80-20_D1_9.tif,1.0,2,,,,,,,,,,,,,0,46,46,106,,,,,,,,,,,None,None,,None,11.158,,,,,,,,,,,,,,,,,,2019_Apr_11_1611,61.11050000679343,Cloud_Experiment_FR_REAL,001,35,
images/fcloud65-35_D1.6_9.tif,1.6,1,,,,,,,,,,,,,0,47,47,82,,,,,,,,,,,None,None,,None,21.098,,,,,,,,,,,,,,,,,,2019_Apr_11_1611,61.11050000679343,Cloud_Experiment_FR_REAL,001,35,
images/fcloud80-20_D1.3_7.tif,1.3,2,,,,,,,,,,,,,0,48,48,116,,,,,,,,,,,None,None,,None,30.923,,,,,,,,,,,,,,,,,,2019_Apr_11_1611,61.11050000679343,Cloud_Experiment_FR_REAL,001,35,
images/fcloud65-35_D1.6_8.tif,1.6,1,,,,,,,,,,,,,0,49,49,81,,,,,,,,,,,None,None,,None,41.199,,,,,,,,,,,,,,,,,,2019_Apr_11_1611,61.11050000679343,Cloud_Experiment_FR_REAL,001,35,
images/fcloud_D1.8_9.tif,1.8,0,,,,,,,,,,,,,0,50,50,42,,,,,,,,,,,None,None,,None,50.54,,,,,,,,,,,,,,,,,,2019_Apr_11_1611,61.11050000679343,Cloud_Experiment_FR_REAL,001,35,
images/fcloud80-20_D1.4_9.tif,1.4,2,,,,,,,,,,,,,0,51,51,122,,,,,,,,,,,1,space,4.63329510001,2,0.435,,,,,,,,,,,,,,,,,,2019_Apr_11_1611,61.11050000679343,Cloud_Experiment_FR_REAL,001,35,
images/fcloud65-35_D1.9_8.tif,1.9,1,,,,,,,,,,,,,0,52,52,93,,,,,,,,,,,None,None,,None,10.042,,,,,,,,,,,,,,,,,,2019_Apr_11_1611,61.11050000679343,Cloud_Experiment_FR_REAL,001,35,
images/fcloud_D1.2_8.tif,1.2,0,,,,,,,,,,,,,0,53,53,17,,,,,,,,,,,None,None,,None,19.701,,,,,,,,,,,,,,,,,,2019_Apr_11_1611,61.11050000679343,Cloud_Experiment_FR_REAL,001,35,
images/fcloud80-20_D1.2_7.tif,1.2,2,,,,,,,,,,,,,0,54,54,112,,,,,,,,,,,None,None,,None,28.228,,,,,,,,,,,,,,,,,,2019_Apr_11_1611,61.11050000679343,Cloud_Experiment_FR_REAL,001,35,
images/fcloud_D1.1_9.tif,1.1,0,,,,,,,,,,,,,0,55,55,14,,,,,,,,,,,1,space,7.28136570001,1,1.818,,,,,,,,,,,,,,,,,,2019_Apr_11_1611,61.11050000679343,Cloud_Experiment_FR_REAL,001,35,
images/fcloud65-35_D1.1_8.tif,1.1,1,,,,,,,,,,,,,0,56,56,61,,,,,,,,,,,None,None,,None,11.06,,,,,,,,,,,,,,,,,,2019_Apr_11_1611,61.11050000679343,Cloud_Experiment_FR_REAL,001,35,
images/fcloud80-20_D1.2_9.tif,1.2,2,,,,,,,,,,,,,0,57,57,114,,,,,,,,,,,None,None,,None,20.2,,,,,,,,,,,,,,,,,,2019_Apr_11_1611,61.11050000679343,Cloud_Experiment_FR_REAL,001,35,
images/fcloud_D1.8_8.tif,1.8,0,,,,,,,,,,,,,0,58,58,41,,,,,,,,,,,1,space,7.39936009998,1,0.736,,,,,,,,,,,,,,,,,,2019_Apr_11_1611,61.11050000679343,Cloud_Experiment_FR_REAL,001,35,
images/fcloud_D1.7_10.tif,1.7,0,,,,,,,,,,,,,0,59,59,39,,,,,,,,,,,1,space,3.4105884,3,1.95,,,,,,,,,,,,,,,,,,2019_Apr_11_1611,61.11050000679343,Cloud_Experiment_FR_REAL,001,35,
images/fcloud_D1.8_7.tif,1.8,0,,,,,,,,,,,,,0,60,60,40,,,,,,,,,,,None,None,,None,10.657,,,,,,,,,,,,,,,,,,2019_Apr_11_1611,61.11050000679343,Cloud_Experiment_FR_REAL,001,35,
images/fcloud_D0.9_8.tif,0.9,0,,,,,,,,,,,,,0,61,61,5,,,,,,,,,,,None,None,,None,23.23,,,,,,,,,,,,,,,,,,2019_Apr_11_1611,61.11050000679343,Cloud_Experiment_FR_REAL,001,35,
images/fcloud65-35_D1.7_8.tif,1.7,1,,,,,,,,,,,,,0,62,62,85,,,,,,,,,,,None,None,,None,33.371,,,,,,,,,,,,,,,,,,2019_Apr_11_1611,61.11050000679343,Cloud_Experiment_FR_REAL,001,35,
images/fcloud65-35_D1.8_8.tif,1.8,1,,,,,,,,,,,,,0,63,63,89,,,,,,,,,,,None,None,,None,47.143,,,,,,,,,,,,,,,,,,2019_Apr_11_1611,61.11050000679343,Cloud_Experiment_FR_REAL,001,35,
images/fcloud80-20_D1.9_9.tif,1.9,2,,,,,,,,,,,,,0,64,64,142,,,,,,,,,,,None,None,,None,56.801,,,,,,,,,,,,,,,,,,2019_Apr_11_1611,61.11050000679343,Cloud_Experiment_FR_REAL,001,35,
images/fcloud_D1.7_7.tif,1.7,0,,,,,,,,,,,,,0,65,65,36,,,,,,,,,,,1,space,2.90894489997,2,7.329,,,,,,,,,,,,,,,,,,2019_Apr_11_1611,61.11050000679343,Cloud_Experiment_FR_REAL,001,35,
images/fcloud80-20_D1.4_7.tif,1.4,2,,,,,,,,,,,,,0,66,66,120,,,,,,,,,,,None,None,,None,15.989,,,,,,,,,,,,,,,,,,2019_Apr_11_1611,61.11050000679343,Cloud_Experiment_FR_REAL,001,35,
images/fcloud_D1_7.tif,1.0,0,,,,,,,,,,,,,0,67,67,8,,,,,,,,,,,1,space,8.858205,1,1.386,,,,,,,,,,,,,,,,,,2019_Apr_11_1611,61.11050000679343,Cloud_Experiment_FR_REAL,001,35,
images/fcloud80-20_D1.9_7.tif,1.9,2,,,,,,,,,,,,,0,68,68,140,,,,,,,,,,,1,space,5.9461538,1,1.252,,,,,,,,,,,,,,,,,,2019_Apr_11_1611,61.11050000679343,Cloud_Experiment_FR_REAL,001,35,
images/fcloud80-20_D0.9_10.tif,0.9,2,,,,,,,,,,,,,0,69,69,103,,,,,,,,,,,None,None,,None,10.577,,,,,,,,,,,,,,,,,,2019_Apr_11_1611,61.11050000679343,Cloud_Experiment_FR_REAL,001,35,
images/fcloud_D0.9_7.tif,0.9,0,,,,,,,,,,,,,0,70,70,4,,,,,,,,,,,None,None,,None,19.684,,,,,,,,,,,,,,,,,,2019_Apr_11_1611,61.11050000679343,Cloud_Experiment_FR_REAL,001,35,
images/fcloud65-35_D1.1_7.tif,1.1,1,,,,,,,,,,,,,0,71,71,60,,,,,,,,,,,None,None,,None,28.347,,,,,,,,,,,,,,,,,,2019_Apr_11_1611,61.11050000679343,Cloud_Experiment_FR_REAL,001,35,
images/fcloud_D1.2_9.tif,1.2,0,,,,,,,,,,,,,0,72,72,18,,,,,,,,,,,None,None,,None,37.135,,,,,,,,,,,,,,,,,,2019_Apr_11_1611,61.11050000679343,Cloud_Experiment_FR_REAL,001,35,
images/fcloud65-35_D1.7_10.tif,1.7,1,,,,,,,,,,,,,0,73,73,87,,,,,,,,,,,None,None,,None,45.745,,,,,,,,,,,,,,,,,,2019_Apr_11_1611,61.11050000679343,Cloud_Experiment_FR_REAL,001,35,
images/fcloud_D1.4_9.tif,1.4,0,,,,,,,,,,,,,0,74,74,26,,,,,,,,,,,1,space,7.68240359999,1,1.184,,,,,,,,,,,,,,,,,,2019_Apr_11_1611,61.11050000679343,Cloud_Experiment_FR_REAL,001,35,
images/fcloud80-20_D0.8_9.tif,0.8,2,,,,,,,,,,,,,0,75,75,98,,,,,,,,,,,None,None,,None,12.827,,,,,,,,,,,,,,,,,,2019_Apr_11_1611,61.11050000679343,Cloud_Experiment_FR_REAL,001,35,
images/fcloud65-35_D1.2_8.tif,1.2,1,,,,,,,,,,,,,0,76,76,65,,,,,,,,,,,None,None,,None,22.182,,,,,,,,,,,,,,,,,,2019_Apr_11_1611,61.11050000679343,Cloud_Experiment_FR_REAL,001,35,
images/fcloud65-35_D1.5_9.tif,1.5,1,,,,,,,,,,,,,0,77,77,78,,,,,,,,,,,1,space,4.2862613,2,0.586,,,,,,,,,,,,,,,,,,2019_Apr_11_1611,61.11050000679343,Cloud_Experiment_FR_REAL,001,35,
images/fcloud65-35_D1.6_10.tif,1.6,1,,,,,,,,,,,,,0,78,78,83,,,,,,,,,,,None,None,,None,9.907,,,,,,,,,,,,,,,,,,2019_Apr_11_1611,61.11050000679343,Cloud_Experiment_FR_REAL,001,35,
images/fcloud_D1.2_10.tif,1.2,0,,,,,,,,,,,,,0,79,79,19,,,,,,,,,,,1,space,5.76207319999,2,0.536,,,,,,,,,,,,,,,,,,2019_Apr_11_1611,61.11050000679343,Cloud_Experiment_FR_REAL,001,35,
images/fcloud80-20_D1.5_7.tif,1.5,2,,,,,,,,,,,,,0,80,80,124,,,,,,,,,,,None,None,,None,8.878,,,,,,,,,,,,,,,,,,2019_Apr_11_1611,61.11050000679343,Cloud_Experiment_FR_REAL,001,35,
images/fcloud65-35_D1.2_9.tif,1.2,1,,,,,,,,,,,,,0,81,81,66,,,,,,,,,,,None,None,,None,18.075,,,,,,,,,,,,,,,,,,2019_Apr_11_1611,61.11050000679343,Cloud_Experiment_FR_REAL,001,35,
images/fcloud_D1.2_7.tif,1.2,0,,,,,,,,,,,,,0,82,82,16,,,,,,,,,,,None,None,,None,28.711,,,,,,,,,,,,,,,,,,2019_Apr_11_1611,61.11050000679343,Cloud_Experiment_FR_REAL,001,35,
images/fcloud_D1.9_10.tif,1.9,0,,,,,,,,,,,,,0,83,83,47,,,,,,,,,,,None,None,,None,38.402,,,,,,,,,,,,,,,,,,2019_Apr_11_1611,61.11050000679343,Cloud_Experiment_FR_REAL,001,35,
images/fcloud80-20_D1.6_10.tif,1.6,2,,,,,,,,,,,,,0,84,84,131,,,,,,,,,,,None,None,,None,48.143,,,,,,,,,,,,,,,,,,2019_Apr_11_1611,61.11050000679343,Cloud_Experiment_FR_REAL,001,35,
images/fcloud_D1.1_7.tif,1.1,0,,,,,,,,,,,,,0,85,85,12,,,,,,,,,,,None,None,,None,59.533,,,,,,,,,,,,,,,,,,2019_Apr_11_1611,61.11050000679343,Cloud_Experiment_FR_REAL,001,35,
images/fcloud65-35_D1.9_7.tif,1.9,1,,,,,,,,,,,,,0,86,86,92,,,,,,,,,,,1,space,7.63329689999,1,1.202,,,,,,,,,,,,,,,,,,2019_Apr_11_1611,61.11050000679343,Cloud_Experiment_FR_REAL,001,35,
images/fcloud_D1.3_10.tif,1.3,0,,,,,,,,,,,,,0,87,87,23,,,,,,,,,,,None,None,,None,10.509,,,,,,,,,,,,,,,,,,2019_Apr_11_1611,61.11050000679343,Cloud_Experiment_FR_REAL,001,35,
images/fcloud80-20_D0.8_10.tif,0.8,2,,,,,,,,,,,,,0,88,88,99,,,,,,,,,,,None,None,,None,19.803,,,,,,,,,,,,,,,,,,2019_Apr_11_1611,61.11050000679343,Cloud_Experiment_FR_REAL,001,35,
images/fcloud65-35_D1.9_9.tif,1.9,1,,,,,,,,,,,,,0,89,89,94,,,,,,,,,,,1,None,,1,4.415,,,,,,,,,,,,,,,,,,2019_Apr_11_1611,61.11050000679343,Cloud_Experiment_FR_REAL,001,35,
images/fcloud65-35_D0.9_10.tif,0.9,1,,,,,,,,,,,,,0,90,90,55,,,,,,,,,,,None,None,,None,13.042,,,,,,,,,,,,,,,,,,2019_Apr_11_1611,61.11050000679343,Cloud_Experiment_FR_REAL,001,35,
images/fcloud_D0.8_10.tif,0.8,0,,,,,,,,,,,,,0,91,91,3,,,,,,,,,,,1,space,6.71501110002,1,0.702,,,,,,,,,,,,,,,,,,2019_Apr_11_1611,61.11050000679343,Cloud_Experiment_FR_REAL,001,35,
images/fcloud65-35_D1.3_7.tif,1.3,1,,,,,,,,,,,,,0,92,92,68,,,,,,,,,,,None,None,,None,12.458,,,,,,,,,,,,,,,,,,2019_Apr_11_1611,61.11050000679343,Cloud_Experiment_FR_REAL,001,35,
images/fcloud80-20_D1.3_10.tif,1.3,2,,,,,,,,,,,,,0,93,93,119,,,,,,,,,,,None,None,,None,20.833,,,,,,,,,,,,,,,,,,2019_Apr_11_1611,61.11050000679343,Cloud_Experiment_FR_REAL,001,35,
images/fcloud80-20_D1.3_8.tif,1.3,2,,,,,,,,,,,,,0,94,94,117,,,,,,,,,,,None,None,,None,29.358,,,,,,,,,,,,,,,,,,2019_Apr_11_1611,61.11050000679343,Cloud_Experiment_FR_REAL,001,35,
images/fcloud_D1.5_9.tif,1.5,0,,,,,,,,,,,,,0,95,95,30,,,,,,,,,,,None,None,,None,38.817,,,,,,,,,,,,,,,,,,2019_Apr_11_1611,61.11050000679343,Cloud_Experiment_FR_REAL,001,35,
images/fcloud_D1_10.tif,1.0,0,,,,,,,,,,,,,0,96,96,11,,,,,,,,,,,None,None,,None,48.31,,,,,,,,,,,,,,,,,,2019_Apr_11_1611,61.11050000679343,Cloud_Experiment_FR_REAL,001,35,
images/fcloud65-35_D1.5_8.tif,1.5,1,,,,,,,,,,,,,0,97,97,77,,,,,,,,,,,None,None,,None,56.918,,,,,,,,,,,,,,,,,,2019_Apr_11_1611,61.11050000679343,Cloud_Experiment_FR_REAL,001,35,
images/fcloud_D0.9_9.tif,0.9,0,,,,,,,,,,,,,0,98,98,6,,,,,,,,,,,None,None,,None,65.377,,,,,,,,,,,,,,,,,,2019_Apr_11_1611,61.11050000679343,Cloud_Experiment_FR_REAL,001,35,
images/fcloud65-35_D0.8_8.tif,0.8,1,,,,,,,,,,,,,0,99,99,49,,,,,,,,,,,None,None,,None,75.103,,,,,,,,,,,,,,,,,,2019_Apr_11_1611,61.11050000679343,Cloud_Experiment_FR_REAL,001,35,
images/fcloud80-20_D1.7_7.tif,1.7,2,,,,,,,,,,,,,0,100,100,132,,,,,,,,,,,1,space,7.19360150001,2,3.233,,,,,,,,,,,,,,,,,,2019_Apr_11_1611,61.11050000679343,Cloud_Experiment_FR_REAL,001,35,
images/fcloud80-20_D1.2_10.tif,1.2,2,,,,,,,,,,,,,0,101,101,115,,,,,,,,,,,None,None,,None,12.21,,,,,,,,,,,,,,,,,,2019_Apr_11_1611,61.11050000679343,Cloud_Experiment_FR_REAL,001,35,
images/fcloud_D1.3_9.tif,1.3,0,,,,,,,,,,,,,0,102,102,22,,,,,,,,,,,1,space,5.34978510003,3,1.551,,,,,,,,,,,,,,,,,,2019_Apr_11_1611,61.11050000679343,Cloud_Experiment_FR_REAL,001,35,
images/fcloud80-20_D1_10.tif,1.0,2,,,,,,,,,,,,,0,103,103,107,,,,,,,,,,,None,None,,None,10.708,,,,,,,,,,,,,,,,,,2019_Apr_11_1611,61.11050000679343,Cloud_Experiment_FR_REAL,001,35,
images/fcloud_D1.5_8.tif,1.5,0,,,,,,,,,,,,,0,104,104,29,,,,,,,,,,,None,None,,None,19.95,,,,,,,,,,,,,,,,,,2019_Apr_11_1611,61.11050000679343,Cloud_Experiment_FR_REAL,001,35,
images/fcloud_D1.6_9.tif,1.6,0,,,,,,,,,,,,,0,105,105,34,,,,,,,,,,,1,space,6.19112859998,1,0.585,,,,,,,,,,,,,,,,,,2019_Apr_11_1611,61.11050000679343,Cloud_Experiment_FR_REAL,001,35,
images/fcloud65-35_D1.9_10.tif,1.9,1,,,,,,,,,,,,,0,106,106,95,,,,,,,,,,,None,None,,None,9.859,,,,,,,,,,,,,,,,,,2019_Apr_11_1611,61.11050000679343,Cloud_Experiment_FR_REAL,001,35,
images/fcloud65-35_D1.1_10.tif,1.1,1,,,,,,,,,,,,,0,107,107,63,,,,,,,,,,,None,None,,None,18.405,,,,,,,,,,,,,,,,,,2019_Apr_11_1611,61.11050000679343,Cloud_Experiment_FR_REAL,001,35,
images/fcloud65-35_D1.8_9.tif,1.8,1,,,,,,,,,,,,,0,108,108,90,,,,,,,,,,,1,None,,1,3.3,,,,,,,,,,,,,,,,,,2019_Apr_11_1611,61.11050000679343,Cloud_Experiment_FR_REAL,001,35,
images/fcloud_D0.8_8.tif,0.8,0,,,,,,,,,,,,,0,109,109,1,,,,,,,,,,,None,None,,None,11.69,,,,,,,,,,,,,,,,,,2019_Apr_11_1611,61.11050000679343,Cloud_Experiment_FR_REAL,001,35,
images/fcloud80-20_D1.8_7.tif,1.8,2,,,,,,,,,,,,,0,110,110,136,,,,,,,,,,,None,None,,None,20.469,,,,,,,,,,,,,,,,,,2019_Apr_11_1611,61.11050000679343,Cloud_Experiment_FR_REAL,001,35,
images/fcloud65-35_D1.4_9.tif,1.4,1,,,,,,,,,,,,,0,111,111,74,,,,,,,,,,,None,None,,None,29.442,,,,,,,,,,,,,,,,,,2019_Apr_11_1611,61.11050000679343,Cloud_Experiment_FR_REAL,001,35,
images/fcloud_D1.5_7.tif,1.5,0,,,,,,,,,,,,,0,112,112,28,,,,,,,,,,,None,None,,None,38.717,,,,,,,,,,,,,,,,,,2019_Apr_11_1611,61.11050000679343,Cloud_Experiment_FR_REAL,001,35,
images/fcloud_D0.8_7.tif,0.8,0,,,,,,,,,,,,,0,113,113,0,,,,,,,,,,,None,None,,None,48.108,,,,,,,,,,,,,,,,,,2019_Apr_11_1611,61.11050000679343,Cloud_Experiment_FR_REAL,001,35,
images/fcloud_D1.4_7.tif,1.4,0,,,,,,,,,,,,,0,114,114,24,,,,,,,,,,,None,None,,None,57.101,,,,,,,,,,,,,,,,,,2019_Apr_11_1611,61.11050000679343,Cloud_Experiment_FR_REAL,001,35,
images/fcloud65-35_D1.4_8.tif,1.4,1,,,,,,,,,,,,,0,115,115,73,,,,,,,,,,,None,None,,None,69.906,,,,,,,,,,,,,,,,,,2019_Apr_11_1611,61.11050000679343,Cloud_Experiment_FR_REAL,001,35,
images/fcloud80-20_D1.8_10.tif,1.8,2,,,,,,,,,,,,,0,116,116,139,,,,,,,,,,,1,None,,1,0.719,,,,,,,,,,,,,,,,,,2019_Apr_11_1611,61.11050000679343,Cloud_Experiment_FR_REAL,001,35,
images/fcloud65-35_D1.2_10.tif,1.2,1,,,,,,,,,,,,,0,117,117,67,,,,,,,,,,,1,space,4.45098660002,1,0.62,,,,,,,,,,,,,,,,,,2019_Apr_11_1611,61.11050000679343,Cloud_Experiment_FR_REAL,001,35,
images/fcloud80-20_D1.2_8.tif,1.2,2,,,,,,,,,,,,,0,118,118,113,,,,,,,,,,,1,space,7.79821070001,1,0.601,,,,,,,,,,,,,,,,,,2019_Apr_11_1611,61.11050000679343,Cloud_Experiment_FR_REAL,001,35,
images/fcloud80-20_D1.8_9.tif,1.8,2,,,,,,,,,,,,,0,119,119,138,,,,,,,,,,,None,None,,None,10.092,,,,,,,,,,,,,,,,,,2019_Apr_11_1611,61.11050000679343,Cloud_Experiment_FR_REAL,001,35,
images/fcloud80-20_D1.6_9.tif,1.6,2,,,,,,,,,,,,,0,120,120,130,,,,,,,,,,,None,None,,None,19.483,,,,,,,,,,,,,,,,,,2019_Apr_11_1611,61.11050000679343,Cloud_Experiment_FR_REAL,001,35,
images/fcloud80-20_D1.4_10.tif,1.4,2,,,,,,,,,,,,,0,121,121,123,,,,,,,,,,,1,space,1.835827,4,1.599,,,,,,,,,,,,,,,,,,2019_Apr_11_1611,61.11050000679343,Cloud_Experiment_FR_REAL,001,35,
images/fcloud80-20_D1_8.tif,1.0,2,,,,,,,,,,,,,0,122,122,105,,,,,,,,,,,None,None,,None,10.791,,,,,,,,,,,,,,,,,,2019_Apr_11_1611,61.11050000679343,Cloud_Experiment_FR_REAL,001,35,
images/fcloud80-20_D1.4_8.tif,1.4,2,,,,,,,,,,,,,0,123,123,121,,,,,,,,,,,None,None,,None,19.2,,,,,,,,,,,,,,,,,,2019_Apr_11_1611,61.11050000679343,Cloud_Experiment_FR_REAL,001,35,
images/fcloud80-20_D1.6_8.tif,1.6,2,,,,,,,,,,,,,0,124,124,129,,,,,,,,,,,1,space,3.47748260002,1,0.534,,,,,,,,,,,,,,,,,,2019_Apr_11_1611,61.11050000679343,Cloud_Experiment_FR_REAL,001,35,
images/fcloud80-20_D1.3_9.tif,1.3,2,,,,,,,,,,,,,0,125,125,118,,,,,,,,,,,1,space,4.66683600002,1,0.519,,,,,,,,,,,,,,,,,,2019_Apr_11_1611,61.11050000679343,Cloud_Experiment_FR_REAL,001,35,
images/fcloud65-35_D0.8_7.tif,0.8,1,,,,,,,,,,,,,0,126,126,48,,,,,,,,,,,None,None,,None,8.945,,,,,,,,,,,,,,,,,,2019_Apr_11_1611,61.11050000679343,Cloud_Experiment_FR_REAL,001,35,
images/fcloud65-35_D1.3_8.tif,1.3,1,,,,,,,,,,,,,0,127,127,69,,,,,,,,,,,1,space,4.7246023,3,1.384,,,,,,,,,,,,,,,,,,2019_Apr_11_1611,61.11050000679343,Cloud_Experiment_FR_REAL,001,35,
images/fcloud_D1.6_8.tif,1.6,0,,,,,,,,,,,,,0,128,128,33,,,,,,,,,,,None,None,,None,10.109,,,,,,,,,,,,,,,,,,2019_Apr_11_1611,61.11050000679343,Cloud_Experiment_FR_REAL,001,35,
images/fcloud65-35_D1.1_9.tif,1.1,1,,,,,,,,,,,,,0,129,129,62,,,,,,,,,,,None,None,,None,19.271,,,,,,,,,,,,,,,,,,2019_Apr_11_1611,61.11050000679343,Cloud_Experiment_FR_REAL,001,35,
images/fcloud_D1.1_8.tif,1.1,0,,,,,,,,,,,,,0,130,130,13,,,,,,,,,,,None,None,,None,29.248,,,,,,,,,,,,,,,,,,2019_Apr_11_1611,61.11050000679343,Cloud_Experiment_FR_REAL,001,35,
images/fcloud_D0.9_10.tif,0.9,0,,,,,,,,,,,,,0,131,131,7,,,,,,,,,,,None,None,,None,39.018,,,,,,,,,,,,,,,,,,2019_Apr_11_1611,61.11050000679343,Cloud_Experiment_FR_REAL,001,35,
images/fcloud65-35_D1.5_10.tif,1.5,1,,,,,,,,,,,,,0,132,132,79,,,,,,,,,,,2,space,4.44226400001,1,0.769,,,,,,,,,,,,,,,,,,2019_Apr_11_1611,61.11050000679343,Cloud_Experiment_FR_REAL,001,35,
images/fcloud65-35_D1.2_7.tif,1.2,1,,,,,,,,,,,,,0,133,133,64,,,,,,,,,,,None,None,,None,9.875,,,,,,,,,,,,,,,,,,2019_Apr_11_1611,61.11050000679343,Cloud_Experiment_FR_REAL,001,35,
images/fcloud80-20_D1.5_10.tif,1.5,2,,,,,,,,,,,,,0,134,134,127,,,,,,,,,,,None,None,,None,19.088,,,,,,,,,,,,,,,,,,2019_Apr_11_1611,61.11050000679343,Cloud_Experiment_FR_REAL,001,35,
images/fcloud65-35_D1.3_10.tif,1.3,1,,,,,,,,,,,,,0,135,135,71,,,,,,,,,,,None,None,,None,28.126,,,,,,,,,,,,,,,,,,2019_Apr_11_1611,61.11050000679343,Cloud_Experiment_FR_REAL,001,35,
images/fcloud_D1_8.tif,1.0,0,,,,,,,,,,,,,0,136,136,9,,,,,,,,,,,None,None,,None,36.471,,,,,,,,,,,,,,,,,,2019_Apr_11_1611,61.11050000679343,Cloud_Experiment_FR_REAL,001,35,
images/fcloud65-35_D1_8.tif,1.0,1,,,,,,,,,,,,,0,137,137,57,,,,,,,,,,,None,None,,None,45.748,,,,,,,,,,,,,,,,,,2019_Apr_11_1611,61.11050000679343,Cloud_Experiment_FR_REAL,001,35,
images/fcloud80-20_D1.1_9.tif,1.1,2,,,,,,,,,,,,,0,138,138,110,,,,,,,,,,,None,None,,None,55.305,,,,,,,,,,,,,,,,,,2019_Apr_11_1611,61.11050000679343,Cloud_Experiment_FR_REAL,001,35,
images/fcloud65-35_D1.3_9.tif,1.3,1,,,,,,,,,,,,,0,139,139,70,,,,,,,,,,,None,None,,None,65.96,,,,,,,,,,,,,,,,,,2019_Apr_11_1611,61.11050000679343,Cloud_Experiment_FR_REAL,001,35,
images/fcloud80-20_D1.5_8.tif,1.5,2,,,,,,,,,,,,,0,140,140,125,,,,,,,,,,,None,None,,None,75.286,,,,,,,,,,,,,,,,,,2019_Apr_11_1611,61.11050000679343,Cloud_Experiment_FR_REAL,001,35,
images/fcloud65-35_D1.7_7.tif,1.7,1,,,,,,,,,,,,,0,141,141,84,,,,,,,,,,,1,space,2.49438800002,3,0.751,,,,,,,,,,,,,,,,,,2019_Apr_11_1611,61.11050000679343,Cloud_Experiment_FR_REAL,001,35,
images/fcloud80-20_D1.7_9.tif,1.7,2,,,,,,,,,,,,,0,142,142,134,,,,,,,,,,,1,space,4.65052169998,1,0.501,,,,,,,,,,,,,,,,,,2019_Apr_11_1611,61.11050000679343,Cloud_Experiment_FR_REAL,001,35,
images/fcloud65-35_D1.7_9.tif,1.7,1,,,,,,,,,,,,,0,143,143,86,,,,,,,,,,,None,None,,None,9.892,,,,,,,,,,,,,,,,,,2019_Apr_11_1611,61.11050000679343,Cloud_Experiment_FR_REAL,001,35,
,,,,,,,,,,,,,,,,,,,,,,,,,2,10.171,,,,,,,,,,,,,,,,,,,,,,,,,2019_Apr_11_1611,61.11050000679343,Cloud_Experiment_FR_REAL,001,35,
,,,,,,,,,,,,,,,,,,,,,,,,,,,,,,,,,,3,,,,,,,,,,,,,,,,,2019_Apr_11_1611,61.11050000679343,Cloud_Experiment_FR_REAL,001,35,
,,,,,,,,,,,,,,,,,,,,,,,,,,,,,,,,,,,2,,,,,,,,,,,,,,,,2019_Apr_11_1611,61.11050000679343,Cloud_Experiment_FR_REAL,001,35,
,,,,,,,,,,,,,,,,,,,,,,,,,,,,,,,,,,,,2,,,,,,,,,,,,,,,2019_Apr_11_1611,61.11050000679343,Cloud_Experiment_FR_REAL,001,35,
,,,,,,,,,,,,,,,,,,,,,,,,,,,,,,,,,,,,,2,,,,,,,,,,,,,,2019_Apr_11_1611,61.11050000679343,Cloud_Experiment_FR_REAL,001,35,
,,,,,,,,,,,,,,,,,,,,,,,,,,,,,,,,,,,,,,2,,,,,,,,,,,,,2019_Apr_11_1611,61.11050000679343,Cloud_Experiment_FR_REAL,001,35,
,,,,,,,,,,,,,,,,,,,,,,,,,,,,,,,,,,,,,,,1,,,,,,,,,,,,2019_Apr_11_1611,61.11050000679343,Cloud_Experiment_FR_REAL,001,35,
,,,,,,,,,,,,,,,,,,,,,,,,,,,,,,,,,,,,,,,,2,,,,,,,,,,,2019_Apr_11_1611,61.11050000679343,Cloud_Experiment_FR_REAL,001,35,
,,,,,,,,,,,,,,,,,,,,,,,,,,,,,,,,,,,,,,,,,5,,,,,,,,,,2019_Apr_11_1611,61.11050000679343,Cloud_Experiment_FR_REAL,001,35,
,,,,,,,,,,,,,,,,,,,,,,,,,,,,,,,,,,,,,,,,,,2,,,,,,,,,2019_Apr_11_1611,61.11050000679343,Cloud_Experiment_FR_REAL,001,35,
,,,,,,,,,,,,,,,,,,,,,,,,,,,,,,,,,,,,,,,,,,,6,,,,,,,,2019_Apr_11_1611,61.11050000679343,Cloud_Experiment_FR_REAL,001,35,
,,,,,,,,,,,,,,,,,,,,,,,,,,,,,,,,,,,,,,,,,,,,,,,,,,7,2019_Apr_11_1611,61.11050000679343,Cloud_Experiment_FR_REAL,001,35,
