ImageFile,FD,Contrast,trials_4.thisRepN,trials_4.thisTrialN,trials_4.thisN,trials_4.thisIndex,trials.thisRepN,trials.thisTrialN,trials.thisN,trials.thisIndex,trials_2.thisRepN,trials_2.thisTrialN,trials_2.thisN,trials_2.thisIndex,trials_3.thisRepN,trials_3.thisTrialN,trials_3.thisN,trials_3.thisIndex,end_instructions.keys,end_instructions.rt,key_resp_4.keys,key_resp_4.rt,key_resp_6.keys,key_resp_6.rt,Fatigue.response,Fatigue.rt,key_resp_5.keys,key_resp_5.rt,n_objets.response,reaction_time.keys,vividness.response,vividness.rt,reaction_time.rt,Flow01.response,Flow02.response,Flow03.response,Flow04.response,Flow05.response,Flow06.response,Flow07.response,Flow08.response,Flow09.response,Flow10.response,key_resp_2.keys,key_resp_2.rt,key_resp_8.keys,key_resp_8.rt,key_resp_3.keys,key_resp_3.rt,Redondance_question.response,date,frameRate,expName,session,participant,
,,,,,,,,,,,,,,,,,,,space,20.2922649,,,,,,,,,,,,,,,,,,,,,,,,,,,,,,,2019_Apr_11_1743,60.46519502602184,Cloud_Experiment_FR_REAL,001,36,
,,,,,,,,,,,,,,,,,,,,,space,145.6072226,,,,,,,,,,,,,,,,,,,,,,,,,,,,,2019_Apr_11_1743,60.46519502602184,Cloud_Experiment_FR_REAL,001,36,
,,,,,,,,,,,,,,,,,,,,,,,space,126.5726409,,,,,,,,,,,,,,,,,,,,,,,,,,,2019_Apr_11_1743,60.46519502602184,Cloud_Experiment_FR_REAL,001,36,
,,,,,,,,,,,,,,,,,,,,,,,,,6,16.703,,,,,,,,,,,,,,,,,,,,,,,,,2019_Apr_11_1743,60.46519502602184,Cloud_Experiment_FR_REAL,001,36,
,,,,,,,,,,,,,,,,,,,,,,,,,,,space,2.79928539999,,,,,,,,,,,,,,,,,,,,,,,2019_Apr_11_1743,60.46519502602184,Cloud_Experiment_FR_REAL,001,36,
pratique/fcloud80-20_D1_30,1.0,2,0,0,0,9,,,,,,,,,,,,,,,,,,,,,,,None,None,None,323.274,,,,,,,,,,,,,,,,,,,2019_Apr_11_1743,60.46519502602184,Cloud_Experiment_FR_REAL,001,36,
pratique/fcloud65-35_D1.2_30,1.2,1,0,1,1,3,,,,,,,,,,,,,,,,,,,,,,,None,None,None,333.398,,,,,,,,,,,,,,,,,,,2019_Apr_11_1743,60.46519502602184,Cloud_Experiment_FR_REAL,001,36,
pratique/fcloud_D1.4_30,1.4,0,0,2,2,1,,,,,,,,,,,,,,,,,,,,,,,1,space,4,18.586,2.63846620001,,,,,,,,,,,,,,,,,,2019_Apr_11_1743,60.46519502602184,Cloud_Experiment_FR_REAL,001,36,
pratique/fcloud65-35_D1.9_29,1.9,1,0,3,3,7,,,,,,,,,,,,,,,,,,,,,,,2,space,2,8.329,7.3579917,,,,,,,,,,,,,,,,,,2019_Apr_11_1743,60.46519502602184,Cloud_Experiment_FR_REAL,001,36,
pratique/fcloud80-20_D1.8_30,1.8,2,0,4,4,4,,,,,,,,,,,,,,,,,,,,,,,None,None,None,18.589,,,,,,,,,,,,,,,,,,,2019_Apr_11_1743,60.46519502602184,Cloud_Experiment_FR_REAL,001,36,
pratique/fcloud80-20_D1.5_30,1.5,2,0,5,5,8,,,,,,,,,,,,,,,,,,,,,,,None,None,None,28.092,,,,,,,,,,,,,,,,,,,2019_Apr_11_1743,60.46519502602184,Cloud_Experiment_FR_REAL,001,36,
pratique/fcloud65-35_D1.3_30,1.3,1,0,6,6,6,,,,,,,,,,,,,,,,,,,,,,,None,None,None,36.967,,,,,,,,,,,,,,,,,,,2019_Apr_11_1743,60.46519502602184,Cloud_Experiment_FR_REAL,001,36,
pratique/fcloud65-35_D1.6_30,1.6,1,0,7,7,2,,,,,,,,,,,,,,,,,,,,,,,2,space,3,3.516,3.69478240001,,,,,,,,,,,,,,,,,,2019_Apr_11_1743,60.46519502602184,Cloud_Experiment_FR_REAL,001,36,
pratique/fcloud_D0.8_30,0.8,0,0,8,8,0,,,,,,,,,,,,,,,,,,,,,,,1,None,2,3.001,,,,,,,,,,,,,,,,,,,2019_Apr_11_1743,60.46519502602184,Cloud_Experiment_FR_REAL,001,36,
pratique/fcloud_D1.6_28,1.6,0,0,9,9,5,,,,,,,,,,,,,,,,,,,,,,,1,None,4,2.284,,,,,,,,,,,,,,,,,,,2019_Apr_11_1743,60.46519502602184,Cloud_Experiment_FR_REAL,001,36,
,,,,,,,,,,,,,,,,,,,,,,,,,,,,,,,,,,5,,,,,,,,,,,,,,,,,2019_Apr_11_1743,60.46519502602184,Cloud_Experiment_FR_REAL,001,36,
,,,,,,,,,,,,,,,,,,,,,,,,,,,,,,,,,,,3,,,,,,,,,,,,,,,,2019_Apr_11_1743,60.46519502602184,Cloud_Experiment_FR_REAL,001,36,
,,,,,,,,,,,,,,,,,,,,,,,,,,,,,,,,,,,,7,,,,,,,,,,,,,,,2019_Apr_11_1743,60.46519502602184,Cloud_Experiment_FR_REAL,001,36,
,,,,,,,,,,,,,,,,,,,,,,,,,,,,,,,,,,,,,7,,,,,,,,,,,,,,2019_Apr_11_1743,60.46519502602184,Cloud_Experiment_FR_REAL,001,36,
,,,,,,,,,,,,,,,,,,,,,,,,,,,,,,,,,,,,,,6,,,,,,,,,,,,,2019_Apr_11_1743,60.46519502602184,Cloud_Experiment_FR_REAL,001,36,
,,,,,,,,,,,,,,,,,,,,,,,,,,,,,,,,,,,,,,,6,,,,,,,,,,,,2019_Apr_11_1743,60.46519502602184,Cloud_Experiment_FR_REAL,001,36,
,,,,,,,,,,,,,,,,,,,,,,,,,,,,,,,,,,,,,,,,4,,,,,,,,,,,2019_Apr_11_1743,60.46519502602184,Cloud_Experiment_FR_REAL,001,36,
,,,,,,,,,,,,,,,,,,,,,,,,,,,,,,,,,,,,,,,,,4,,,,,,,,,,2019_Apr_11_1743,60.46519502602184,Cloud_Experiment_FR_REAL,001,36,
,,,,,,,,,,,,,,,,,,,,,,,,,,,,,,,,,,,,,,,,,,3,,,,,,,,,2019_Apr_11_1743,60.46519502602184,Cloud_Experiment_FR_REAL,001,36,
,,,,,,,,,,,,,,,,,,,,,,,,,,,,,,,,,,,,,,,,,,,4,,,,,,,,2019_Apr_11_1743,60.46519502602184,Cloud_Experiment_FR_REAL,001,36,
,,,,,,,,,,,,,,,,,,,,,,,,,,,,,,,,,,,,,,,,,,,,space,5.14570920001,,,,,,2019_Apr_11_1743,60.46519502602184,Cloud_Experiment_FR_REAL,001,36,
images/fcloud_D1.5_3.tif,1.5,0,,,,,0,0,0,23,,,,,,,,,,,,,,,,,,,1,space,4,2.967,5.2015041,,,,,,,,,,,,,,,,,,2019_Apr_11_1743,60.46519502602184,Cloud_Experiment_FR_REAL,001,36,
images/fcloud65-35_D1.8_2.tif,1.8,1,,,,,0,1,1,67,,,,,,,,,,,,,,,,,,,1,space,5,3.101,5.82204870001,,,,,,,,,,,,,,,,,,2019_Apr_11_1743,60.46519502602184,Cloud_Experiment_FR_REAL,001,36,
images/fcloud_D0.8_2.tif,0.8,0,,,,,0,2,2,1,,,,,,,,,,,,,,,,,,,1,space,5,2.401,5.58126449998,,,,,,,,,,,,,,,,,,2019_Apr_11_1743,60.46519502602184,Cloud_Experiment_FR_REAL,001,36,
images/fcloud65-35_D1.5_2.tif,1.5,1,,,,,0,3,3,58,,,,,,,,,,,,,,,,,,,None,None,None,12.44,,,,,,,,,,,,,,,,,,,2019_Apr_11_1743,60.46519502602184,Cloud_Experiment_FR_REAL,001,36,
images/fcloud65-35_D1.7_3.tif,1.7,1,,,,,0,4,4,65,,,,,,,,,,,,,,,,,,,None,None,None,21.699,,,,,,,,,,,,,,,,,,,2019_Apr_11_1743,60.46519502602184,Cloud_Experiment_FR_REAL,001,36,
images/fcloud_D1.3_2.tif,1.3,0,,,,,0,5,5,16,,,,,,,,,,,,,,,,,,,3,space,5,2.349,3.16975460001,,,,,,,,,,,,,,,,,,2019_Apr_11_1743,60.46519502602184,Cloud_Experiment_FR_REAL,001,36,
images/fcloud80-20_D1_2.tif,1.0,2,,,,,0,6,6,79,,,,,,,,,,,,,,,,,,,1,space,3,2.216,6.64125260001,,,,,,,,,,,,,,,,,,2019_Apr_11_1743,60.46519502602184,Cloud_Experiment_FR_REAL,001,36,
images/fcloud_D1.5_1.tif,1.5,0,,,,,0,7,7,21,,,,,,,,,,,,,,,,,,,2,space,5,2.384,3.50591429998,,,,,,,,,,,,,,,,,,2019_Apr_11_1743,60.46519502602184,Cloud_Experiment_FR_REAL,001,36,
images/fcloud80-20_D1.3_2.tif,1.3,2,,,,,0,8,8,88,,,,,,,,,,,,,,,,,,,None,None,None,11.691,,,,,,,,,,,,,,,,,,,2019_Apr_11_1743,60.46519502602184,Cloud_Experiment_FR_REAL,001,36,
images/fcloud_D0.8_3.tif,0.8,0,,,,,0,9,9,2,,,,,,,,,,,,,,,,,,,2,space,2,3.814,4.96082479999,,,,,,,,,,,,,,,,,,2019_Apr_11_1743,60.46519502602184,Cloud_Experiment_FR_REAL,001,36,
images/fcloud_D1_2.tif,1.0,0,,,,,0,10,10,7,,,,,,,,,,,,,,,,,,,2,space,4,2.817,3.67830150001,,,,,,,,,,,,,,,,,,2019_Apr_11_1743,60.46519502602184,Cloud_Experiment_FR_REAL,001,36,
images/fcloud_D1.5_2.tif,1.5,0,,,,,0,11,11,22,,,,,,,,,,,,,,,,,,,1,space,5,1.203,3.60522900001,,,,,,,,,,,,,,,,,,2019_Apr_11_1743,60.46519502602184,Cloud_Experiment_FR_REAL,001,36,
images/fcloud80-20_D1.6_1.tif,1.6,2,,,,,0,12,12,96,,,,,,,,,,,,,,,,,,,None,None,None,10.494,,,,,,,,,,,,,,,,,,,2019_Apr_11_1743,60.46519502602184,Cloud_Experiment_FR_REAL,001,36,
images/fcloud65-35_D1.8_1.tif,1.8,1,,,,,0,13,13,66,,,,,,,,,,,,,,,,,,,1,space,3,3.036,5.73476749999,,,,,,,,,,,,,,,,,,2019_Apr_11_1743,60.46519502602184,Cloud_Experiment_FR_REAL,001,36,
images/fcloud65-35_D1.9_1.tif,1.9,1,,,,,0,14,14,69,,,,,,,,,,,,,,,,,,,1,space,2,1.084,4.1890867,,,,,,,,,,,,,,,,,,2019_Apr_11_1743,60.46519502602184,Cloud_Experiment_FR_REAL,001,36,
images/fcloud_D1.7_3.tif,1.7,0,,,,,0,15,15,29,,,,,,,,,,,,,,,,,,,None,None,None,10.575,,,,,,,,,,,,,,,,,,,2019_Apr_11_1743,60.46519502602184,Cloud_Experiment_FR_REAL,001,36,
images/fcloud65-35_D1_2.tif,1.0,1,,,,,0,16,16,43,,,,,,,,,,,,,,,,,,,1,None,2,1.35,,,,,,,,,,,,,,,,,,,2019_Apr_11_1743,60.46519502602184,Cloud_Experiment_FR_REAL,001,36,
images/fcloud65-35_D1.5_1.tif,1.5,1,,,,,0,17,17,57,,,,,,,,,,,,,,,,,,,1,space,3,1.385,6.2444162,,,,,,,,,,,,,,,,,,2019_Apr_11_1743,60.46519502602184,Cloud_Experiment_FR_REAL,001,36,
images/fcloud80-20_D1.7_3.tif,1.7,2,,,,,0,18,18,101,,,,,,,,,,,,,,,,,,,1,space,2,0.834,7.85028899999,,,,,,,,,,,,,,,,,,2019_Apr_11_1743,60.46519502602184,Cloud_Experiment_FR_REAL,001,36,
images/fcloud80-20_D1.8_1.tif,1.8,2,,,,,0,19,19,102,,,,,,,,,,,,,,,,,,,None,None,None,10.311,,,,,,,,,,,,,,,,,,,2019_Apr_11_1743,60.46519502602184,Cloud_Experiment_FR_REAL,001,36,
images/fcloud_D1.1_1.tif,1.1,0,,,,,0,20,20,9,,,,,,,,,,,,,,,,,,,1,space,5,2.2,2.11743079999,,,,,,,,,,,,,,,,,,2019_Apr_11_1743,60.46519502602184,Cloud_Experiment_FR_REAL,001,36,
images/fcloud_D1_1.tif,1.0,0,,,,,0,21,21,6,,,,,,,,,,,,,,,,,,,1,space,4,4.166,4.96378309999,,,,,,,,,,,,,,,,,,2019_Apr_11_1743,60.46519502602184,Cloud_Experiment_FR_REAL,001,36,
images/fcloud65-35_D1.6_1.tif,1.6,1,,,,,0,22,22,60,,,,,,,,,,,,,,,,,,,None,None,None,13.323,,,,,,,,,,,,,,,,,,,2019_Apr_11_1743,60.46519502602184,Cloud_Experiment_FR_REAL,001,36,
images/fcloud65-35_D1.9_2.tif,1.9,1,,,,,0,23,23,70,,,,,,,,,,,,,,,,,,,None,None,None,22.532,,,,,,,,,,,,,,,,,,,2019_Apr_11_1743,60.46519502602184,Cloud_Experiment_FR_REAL,001,36,
images/fcloud65-35_D1.1_3.tif,1.1,1,,,,,0,24,24,47,,,,,,,,,,,,,,,,,,,1,space,4,1.968,2.34075189999,,,,,,,,,,,,,,,,,,2019_Apr_11_1743,60.46519502602184,Cloud_Experiment_FR_REAL,001,36,
images/fcloud_D1.4_1.tif,1.4,0,,,,,0,25,25,18,,,,,,,,,,,,,,,,,,,2,space,4,1.351,1.80374240002,,,,,,,,,,,,,,,,,,2019_Apr_11_1743,60.46519502602184,Cloud_Experiment_FR_REAL,001,36,
images/fcloud80-20_D1.7_1.tif,1.7,2,,,,,0,26,26,99,,,,,,,,,,,,,,,,,,,1,space,2,4.032,4.94843810002,,,,,,,,,,,,,,,,,,2019_Apr_11_1743,60.46519502602184,Cloud_Experiment_FR_REAL,001,36,
images/fcloud80-20_D0.8_1.tif,0.8,2,,,,,0,27,27,72,,,,,,,,,,,,,,,,,,,1,space,3,2.183,2.77870970001,,,,,,,,,,,,,,,,,,2019_Apr_11_1743,60.46519502602184,Cloud_Experiment_FR_REAL,001,36,
images/fcloud80-20_D1.4_1.tif,1.4,2,,,,,0,28,28,90,,,,,,,,,,,,,,,,,,,1,space,3,1.184,4.6448601,,,,,,,,,,,,,,,,,,2019_Apr_11_1743,60.46519502602184,Cloud_Experiment_FR_REAL,001,36,
images/fcloud80-20_D0.9_3.tif,0.9,2,,,,,0,29,29,77,,,,,,,,,,,,,,,,,,,None,None,None,10.525,,,,,,,,,,,,,,,,,,,2019_Apr_11_1743,60.46519502602184,Cloud_Experiment_FR_REAL,001,36,
images/fcloud65-35_D1.4_2.tif,1.4,1,,,,,0,30,30,55,,,,,,,,,,,,,,,,,,,1,space,3,2.216,4.5570381,,,,,,,,,,,,,,,,,,2019_Apr_11_1743,60.46519502602184,Cloud_Experiment_FR_REAL,001,36,
images/fcloud65-35_D0.9_3.tif,0.9,1,,,,,0,31,31,41,,,,,,,,,,,,,,,,,,,1,space,4,1.718,6.41236819999,,,,,,,,,,,,,,,,,,2019_Apr_11_1743,60.46519502602184,Cloud_Experiment_FR_REAL,001,36,
images/fcloud_D1.3_1.tif,1.3,0,,,,,0,32,32,15,,,,,,,,,,,,,,,,,,,1,space,3,1.435,3.14759539999,,,,,,,,,,,,,,,,,,2019_Apr_11_1743,60.46519502602184,Cloud_Experiment_FR_REAL,001,36,
images/fcloud65-35_D1.5_3.tif,1.5,1,,,,,0,33,33,59,,,,,,,,,,,,,,,,,,,None,None,None,10.959,,,,,,,,,,,,,,,,,,,2019_Apr_11_1743,60.46519502602184,Cloud_Experiment_FR_REAL,001,36,
images/fcloud65-35_D1.7_2.tif,1.7,1,,,,,0,34,34,64,,,,,,,,,,,,,,,,,,,1,space,3,3.932,2.67836679998,,,,,,,,,,,,,,,,,,2019_Apr_11_1743,60.46519502602184,Cloud_Experiment_FR_REAL,001,36,
images/fcloud65-35_D1.1_2.tif,1.1,1,,,,,0,35,35,46,,,,,,,,,,,,,,,,,,,None,None,None,12.922,,,,,,,,,,,,,,,,,,,2019_Apr_11_1743,60.46519502602184,Cloud_Experiment_FR_REAL,001,36,
images/fcloud80-20_D1.1_2.tif,1.1,2,,,,,0,36,36,82,,,,,,,,,,,,,,,,,,,None,None,None,21.964,,,,,,,,,,,,,,,,,,,2019_Apr_11_1743,60.46519502602184,Cloud_Experiment_FR_REAL,001,36,
images/fcloud65-35_D0.8_3.tif,0.8,1,,,,,0,37,37,38,,,,,,,,,,,,,,,,,,,1,space,4,2.283,2.5183232,,,,,,,,,,,,,,,,,,2019_Apr_11_1743,60.46519502602184,Cloud_Experiment_FR_REAL,001,36,
images/fcloud_D1.9_3.tif,1.9,0,,,,,0,38,38,35,,,,,,,,,,,,,,,,,,,1,space,2,1.202,6.31221430001,,,,,,,,,,,,,,,,,,2019_Apr_11_1743,60.46519502602184,Cloud_Experiment_FR_REAL,001,36,
images/fcloud80-20_D1.1_1.tif,1.1,2,,,,,0,39,39,81,,,,,,,,,,,,,,,,,,,None,None,None,10.608,,,,,,,,,,,,,,,,,,,2019_Apr_11_1743,60.46519502602184,Cloud_Experiment_FR_REAL,001,36,
images/fcloud65-35_D1.2_2.tif,1.2,1,,,,,0,40,40,49,,,,,,,,,,,,,,,,,,,None,None,None,19.468,,,,,,,,,,,,,,,,,,,2019_Apr_11_1743,60.46519502602184,Cloud_Experiment_FR_REAL,001,36,
images/fcloud80-20_D1.6_3.tif,1.6,2,,,,,0,41,41,98,,,,,,,,,,,,,,,,,,,1,space,3,1.968,7.5779952,,,,,,,,,,,,,,,,,,2019_Apr_11_1743,60.46519502602184,Cloud_Experiment_FR_REAL,001,36,
images/fcloud_D1.8_1.tif,1.8,0,,,,,0,42,42,30,,,,,,,,,,,,,,,,,,,1,space,3,1.569,6.28820410001,,,,,,,,,,,,,,,,,,2019_Apr_11_1743,60.46519502602184,Cloud_Experiment_FR_REAL,001,36,
images/fcloud_D1.1_2.tif,1.1,0,,,,,0,43,43,10,,,,,,,,,,,,,,,,,,,1,space,4,1.734,2.86374549998,,,,,,,,,,,,,,,,,,2019_Apr_11_1743,60.46519502602184,Cloud_Experiment_FR_REAL,001,36,
images/fcloud_D1.4_2.tif,1.4,0,,,,,0,44,44,19,,,,,,,,,,,,,,,,,,,1,space,5,1.083,5.64264480001,,,,,,,,,,,,,,,,,,2019_Apr_11_1743,60.46519502602184,Cloud_Experiment_FR_REAL,001,36,
images/fcloud65-35_D1.1_1.tif,1.1,1,,,,,0,45,45,45,,,,,,,,,,,,,,,,,,,None,None,None,10.275,,,,,,,,,,,,,,,,,,,2019_Apr_11_1743,60.46519502602184,Cloud_Experiment_FR_REAL,001,36,
images/fcloud80-20_D1.5_3.tif,1.5,2,,,,,0,46,46,95,,,,,,,,,,,,,,,,,,,1,space,2,1.034,7.60702209998,,,,,,,,,,,,,,,,,,2019_Apr_11_1743,60.46519502602184,Cloud_Experiment_FR_REAL,001,36,
images/fcloud_D1.2_1.tif,1.2,0,,,,,0,47,47,12,,,,,,,,,,,,,,,,,,,1,space,4,3.016,5.41021489998,,,,,,,,,,,,,,,,,,2019_Apr_11_1743,60.46519502602184,Cloud_Experiment_FR_REAL,001,36,
images/fcloud65-35_D1.4_1.tif,1.4,1,,,,,0,48,48,54,,,,,,,,,,,,,,,,,,,None,None,None,12.323,,,,,,,,,,,,,,,,,,,2019_Apr_11_1743,60.46519502602184,Cloud_Experiment_FR_REAL,001,36,
images/fcloud_D1.2_2.tif,1.2,0,,,,,0,49,49,13,,,,,,,,,,,,,,,,,,,1,space,5,2.15,6.8123774,,,,,,,,,,,,,,,,,,2019_Apr_11_1743,60.46519502602184,Cloud_Experiment_FR_REAL,001,36,
images/fcloud80-20_D1.9_3.tif,1.9,2,,,,,0,50,50,107,,,,,,,,,,,,,,,,,,,None,None,None,11.442,,,,,,,,,,,,,,,,,,,2019_Apr_11_1743,60.46519502602184,Cloud_Experiment_FR_REAL,001,36,
images/fcloud_D1.9_2.tif,1.9,0,,,,,0,51,51,34,,,,,,,,,,,,,,,,,,,1,space,3,3.965,4.15938159998,,,,,,,,,,,,,,,,,,2019_Apr_11_1743,60.46519502602184,Cloud_Experiment_FR_REAL,001,36,
images/fcloud_D1.7_1.tif,1.7,0,,,,,0,52,52,27,,,,,,,,,,,,,,,,,,,1,space,4,3.233,2.1288836,,,,,,,,,,,,,,,,,,2019_Apr_11_1743,60.46519502602184,Cloud_Experiment_FR_REAL,001,36,
images/fcloud_D1.8_2.tif,1.8,0,,,,,0,53,53,31,,,,,,,,,,,,,,,,,,,2,space,4,1.219,3.44363710002,,,,,,,,,,,,,,,,,,2019_Apr_11_1743,60.46519502602184,Cloud_Experiment_FR_REAL,001,36,
images/fcloud_D1.6_2.tif,1.6,0,,,,,0,54,54,25,,,,,,,,,,,,,,,,,,,None,None,None,10.363,,,,,,,,,,,,,,,,,,,2019_Apr_11_1743,60.46519502602184,Cloud_Experiment_FR_REAL,001,36,
images/fcloud80-20_D0.9_1.tif,0.9,2,,,,,0,55,55,75,,,,,,,,,,,,,,,,,,,1,space,2,3.549,6.9575593,,,,,,,,,,,,,,,,,,2019_Apr_11_1743,60.46519502602184,Cloud_Experiment_FR_REAL,001,36,
images/fcloud80-20_D1.8_3.tif,1.8,2,,,,,0,56,56,104,,,,,,,,,,,,,,,,,,,1,space,5,1.333,2.24517370001,,,,,,,,,,,,,,,,,,2019_Apr_11_1743,60.46519502602184,Cloud_Experiment_FR_REAL,001,36,
images/fcloud_D1.2_3.tif,1.2,0,,,,,0,57,57,14,,,,,,,,,,,,,,,,,,,None,None,None,12.806,,,,,,,,,,,,,,,,,,,2019_Apr_11_1743,60.46519502602184,Cloud_Experiment_FR_REAL,001,36,
images/fcloud80-20_D1.4_3.tif,1.4,2,,,,,0,58,58,92,,,,,,,,,,,,,,,,,,,1,space,2,1.067,4.02563300001,,,,,,,,,,,,,,,,,,2019_Apr_11_1743,60.46519502602184,Cloud_Experiment_FR_REAL,001,36,
images/fcloud65-35_D1.6_3.tif,1.6,1,,,,,0,59,59,62,,,,,,,,,,,,,,,,,,,None,None,None,10.041,,,,,,,,,,,,,,,,,,,2019_Apr_11_1743,60.46519502602184,Cloud_Experiment_FR_REAL,001,36,
images/fcloud65-35_D0.8_2.tif,0.8,1,,,,,0,60,60,37,,,,,,,,,,,,,,,,,,,None,None,None,19.116,,,,,,,,,,,,,,,,,,,2019_Apr_11_1743,60.46519502602184,Cloud_Experiment_FR_REAL,001,36,
images/fcloud65-35_D0.9_2.tif,0.9,1,,,,,0,61,61,40,,,,,,,,,,,,,,,,,,,1,space,2,0.835,6.56096559999,,,,,,,,,,,,,,,,,,2019_Apr_11_1743,60.46519502602184,Cloud_Experiment_FR_REAL,001,36,
images/fcloud80-20_D1.5_2.tif,1.5,2,,,,,0,62,62,94,,,,,,,,,,,,,,,,,,,None,None,None,9.891,,,,,,,,,,,,,,,,,,,2019_Apr_11_1743,60.46519502602184,Cloud_Experiment_FR_REAL,001,36,
images/fcloud80-20_D1.2_1.tif,1.2,2,,,,,0,63,63,84,,,,,,,,,,,,,,,,,,,1,space,3,3.15,4.8626576,,,,,,,,,,,,,,,,,,2019_Apr_11_1743,60.46519502602184,Cloud_Experiment_FR_REAL,001,36,
images/fcloud65-35_D1.2_3.tif,1.2,1,,,,,0,64,64,50,,,,,,,,,,,,,,,,,,,None,None,None,12.06,,,,,,,,,,,,,,,,,,,2019_Apr_11_1743,60.46519502602184,Cloud_Experiment_FR_REAL,001,36,
images/fcloud65-35_D1.7_1.tif,1.7,1,,,,,0,65,65,63,,,,,,,,,,,,,,,,,,,1,space,4,1.683,5.04733969999,,,,,,,,,,,,,,,,,,2019_Apr_11_1743,60.46519502602184,Cloud_Experiment_FR_REAL,001,36,
images/fcloud80-20_D1.7_2.tif,1.7,2,,,,,0,66,66,100,,,,,,,,,,,,,,,,,,,None,None,None,11.557,,,,,,,,,,,,,,,,,,,2019_Apr_11_1743,60.46519502602184,Cloud_Experiment_FR_REAL,001,36,
images/fcloud80-20_D1.3_1.tif,1.3,2,,,,,0,67,67,87,,,,,,,,,,,,,,,,,,,1,space,3,1.286,8.07337299999,,,,,,,,,,,,,,,,,,2019_Apr_11_1743,60.46519502602184,Cloud_Experiment_FR_REAL,001,36,
images/fcloud80-20_D1.8_2.tif,1.8,2,,,,,0,68,68,103,,,,,,,,,,,,,,,,,,,1,space,4,1.433,3.94428570001,,,,,,,,,,,,,,,,,,2019_Apr_11_1743,60.46519502602184,Cloud_Experiment_FR_REAL,001,36,
images/fcloud80-20_D1.9_1.tif,1.9,2,,,,,0,69,69,105,,,,,,,,,,,,,,,,,,,None,None,None,10.825,,,,,,,,,,,,,,,,,,,2019_Apr_11_1743,60.46519502602184,Cloud_Experiment_FR_REAL,001,36,
images/fcloud80-20_D1.6_2.tif,1.6,2,,,,,0,70,70,97,,,,,,,,,,,,,,,,,,,None,None,None,19.816,,,,,,,,,,,,,,,,,,,2019_Apr_11_1743,60.46519502602184,Cloud_Experiment_FR_REAL,001,36,
images/fcloud80-20_D1_1.tif,1.0,2,,,,,0,71,71,78,,,,,,,,,,,,,,,,,,,None,None,None,28.36,,,,,,,,,,,,,,,,,,,2019_Apr_11_1743,60.46519502602184,Cloud_Experiment_FR_REAL,001,36,
images/fcloud80-20_D1.2_2.tif,1.2,2,,,,,0,72,72,85,,,,,,,,,,,,,,,,,,,None,space,None,37.971,2.5959396,,,,,,,,,,,,,,,,,,2019_Apr_11_1743,60.46519502602184,Cloud_Experiment_FR_REAL,001,36,
images/fcloud65-35_D1.3_3.tif,1.3,1,,,,,0,73,73,53,,,,,,,,,,,,,,,,,,,1,space,2,1.852,5.65970019999,,,,,,,,,,,,,,,,,,2019_Apr_11_1743,60.46519502602184,Cloud_Experiment_FR_REAL,001,36,
images/fcloud65-35_D1.2_1.tif,1.2,1,,,,,0,74,74,48,,,,,,,,,,,,,,,,,,,None,None,None,12.889,,,,,,,,,,,,,,,,,,,2019_Apr_11_1743,60.46519502602184,Cloud_Experiment_FR_REAL,001,36,
images/fcloud80-20_D1.4_2.tif,1.4,2,,,,,0,75,75,91,,,,,,,,,,,,,,,,,,,1,space,3,6.431,4.92203269998,,,,,,,,,,,,,,,,,,2019_Apr_11_1743,60.46519502602184,Cloud_Experiment_FR_REAL,001,36,
images/fcloud_D0.9_1.tif,0.9,0,,,,,0,76,76,3,,,,,,,,,,,,,,,,,,,1,space,5,1.518,2.48780639999,,,,,,,,,,,,,,,,,,2019_Apr_11_1743,60.46519502602184,Cloud_Experiment_FR_REAL,001,36,
images/fcloud65-35_D0.8_1.tif,0.8,1,,,,,0,77,77,36,,,,,,,,,,,,,,,,,,,None,None,None,10.591,,,,,,,,,,,,,,,,,,,2019_Apr_11_1743,60.46519502602184,Cloud_Experiment_FR_REAL,001,36,
images/fcloud65-35_D1.3_2.tif,1.3,1,,,,,0,78,78,52,,,,,,,,,,,,,,,,,,,None,None,None,19.167,,,,,,,,,,,,,,,,,,,2019_Apr_11_1743,60.46519502602184,Cloud_Experiment_FR_REAL,001,36,
images/fcloud80-20_D1.3_3.tif,1.3,2,,,,,0,79,79,89,,,,,,,,,,,,,,,,,,,None,space,None,27.926,3.61936770001,,,,,,,,,,,,,,,,,,2019_Apr_11_1743,60.46519502602184,Cloud_Experiment_FR_REAL,001,36,
images/fcloud80-20_D0.8_3.tif,0.8,2,,,,,0,80,80,74,,,,,,,,,,,,,,,,,,,None,None,None,36.385,,,,,,,,,,,,,,,,,,,2019_Apr_11_1743,60.46519502602184,Cloud_Experiment_FR_REAL,001,36,
images/fcloud80-20_D0.8_2.tif,0.8,2,,,,,0,81,81,73,,,,,,,,,,,,,,,,,,,None,None,None,45.366,,,,,,,,,,,,,,,,,,,2019_Apr_11_1743,60.46519502602184,Cloud_Experiment_FR_REAL,001,36,
images/fcloud_D1.1_3.tif,1.1,0,,,,,0,82,82,11,,,,,,,,,,,,,,,,,,,3,space,3,2.049,1.66235940001,,,,,,,,,,,,,,,,,,2019_Apr_11_1743,60.46519502602184,Cloud_Experiment_FR_REAL,001,36,
images/fcloud_D1_3.tif,1.0,0,,,,,0,83,83,8,,,,,,,,,,,,,,,,,,,2,space,5,1.968,1.5813312,,,,,,,,,,,,,,,,,,2019_Apr_11_1743,60.46519502602184,Cloud_Experiment_FR_REAL,001,36,
images/fcloud_D1.9_1.tif,1.9,0,,,,,0,84,84,33,,,,,,,,,,,,,,,,,,,1,space,3,1.701,5.78827590001,,,,,,,,,,,,,,,,,,2019_Apr_11_1743,60.46519502602184,Cloud_Experiment_FR_REAL,001,36,
images/fcloud65-35_D1.4_3.tif,1.4,1,,,,,0,85,85,56,,,,,,,,,,,,,,,,,,,1,space,4,1.568,1.99313660001,,,,,,,,,,,,,,,,,,2019_Apr_11_1743,60.46519502602184,Cloud_Experiment_FR_REAL,001,36,
images/fcloud65-35_D1.3_1.tif,1.3,1,,,,,0,86,86,51,,,,,,,,,,,,,,,,,,,None,None,None,10.477,,,,,,,,,,,,,,,,,,,2019_Apr_11_1743,60.46519502602184,Cloud_Experiment_FR_REAL,001,36,
images/fcloud65-35_D0.9_1.tif,0.9,1,,,,,0,87,87,39,,,,,,,,,,,,,,,,,,,1,space,2,0.568,4.8974778,,,,,,,,,,,,,,,,,,2019_Apr_11_1743,60.46519502602184,Cloud_Experiment_FR_REAL,001,36,
images/fcloud_D1.8_3.tif,1.8,0,,,,,0,88,88,32,,,,,,,,,,,,,,,,,,,2,space,4,1.401,3.5629283,,,,,,,,,,,,,,,,,,2019_Apr_11_1743,60.46519502602184,Cloud_Experiment_FR_REAL,001,36,
images/fcloud_D0.8_1.tif,0.8,0,,,,,0,89,89,0,,,,,,,,,,,,,,,,,,,3,space,4,2.15,1.7510509,,,,,,,,,,,,,,,,,,2019_Apr_11_1743,60.46519502602184,Cloud_Experiment_FR_REAL,001,36,
images/fcloud_D1.6_3.tif,1.6,0,,,,,0,90,90,26,,,,,,,,,,,,,,,,,,,2,space,5,1.549,2.0874128,,,,,,,,,,,,,,,,,,2019_Apr_11_1743,60.46519502602184,Cloud_Experiment_FR_REAL,001,36,
images/fcloud65-35_D1_3.tif,1.0,1,,,,,0,91,91,44,,,,,,,,,,,,,,,,,,,None,None,None,11.09,,,,,,,,,,,,,,,,,,,2019_Apr_11_1743,60.46519502602184,Cloud_Experiment_FR_REAL,001,36,
images/fcloud_D1.3_3.tif,1.3,0,,,,,0,92,92,17,,,,,,,,,,,,,,,,,,,3,space,3,0.985,2.29901720001,,,,,,,,,,,,,,,,,,2019_Apr_11_1743,60.46519502602184,Cloud_Experiment_FR_REAL,001,36,
images/fcloud65-35_D1.8_3.tif,1.8,1,,,,,0,93,93,68,,,,,,,,,,,,,,,,,,,None,None,None,10.542,,,,,,,,,,,,,,,,,,,2019_Apr_11_1743,60.46519502602184,Cloud_Experiment_FR_REAL,001,36,
images/fcloud80-20_D1.1_3.tif,1.1,2,,,,,0,94,94,83,,,,,,,,,,,,,,,,,,,1,space,5,1.184,5.03202720001,,,,,,,,,,,,,,,,,,2019_Apr_11_1743,60.46519502602184,Cloud_Experiment_FR_REAL,001,36,
images/fcloud80-20_D1.9_2.tif,1.9,2,,,,,0,95,95,106,,,,,,,,,,,,,,,,,,,None,None,None,10.342,,,,,,,,,,,,,,,,,,,2019_Apr_11_1743,60.46519502602184,Cloud_Experiment_FR_REAL,001,36,
images/fcloud65-35_D1_1.tif,1.0,1,,,,,0,96,96,42,,,,,,,,,,,,,,,,,,,1,space,3,1.102,4.54994310002,,,,,,,,,,,,,,,,,,2019_Apr_11_1743,60.46519502602184,Cloud_Experiment_FR_REAL,001,36,
images/fcloud_D1.7_2.tif,1.7,0,,,,,0,97,97,28,,,,,,,,,,,,,,,,,,,2,space,3,2.101,5.21956229999,,,,,,,,,,,,,,,,,,2019_Apr_11_1743,60.46519502602184,Cloud_Experiment_FR_REAL,001,36,
images/fcloud65-35_D1.9_3.tif,1.9,1,,,,,0,98,98,71,,,,,,,,,,,,,,,,,,,1,space,3,5.713,7.369802,,,,,,,,,,,,,,,,,,2019_Apr_11_1743,60.46519502602184,Cloud_Experiment_FR_REAL,001,36,
images/fcloud_D0.9_2.tif,0.9,0,,,,,0,99,99,4,,,,,,,,,,,,,,,,,,,1,space,3,1.402,3.54474499999,,,,,,,,,,,,,,,,,,2019_Apr_11_1743,60.46519502602184,Cloud_Experiment_FR_REAL,001,36,
images/fcloud_D1.4_3.tif,1.4,0,,,,,0,100,100,20,,,,,,,,,,,,,,,,,,,2,space,5,2.133,2.8292752,,,,,,,,,,,,,,,,,,2019_Apr_11_1743,60.46519502602184,Cloud_Experiment_FR_REAL,001,36,
images/fcloud_D0.9_3.tif,0.9,0,,,,,0,101,101,5,,,,,,,,,,,,,,,,,,,1,space,3,1.684,6.68837440002,,,,,,,,,,,,,,,,,,2019_Apr_11_1743,60.46519502602184,Cloud_Experiment_FR_REAL,001,36,
images/fcloud80-20_D1_3.tif,1.0,2,,,,,0,102,102,80,,,,,,,,,,,,,,,,,,,None,None,None,10.825,,,,,,,,,,,,,,,,,,,2019_Apr_11_1743,60.46519502602184,Cloud_Experiment_FR_REAL,001,36,
images/fcloud80-20_D1.2_3.tif,1.2,2,,,,,0,103,103,86,,,,,,,,,,,,,,,,,,,1,space,3,1.284,7.1189689,,,,,,,,,,,,,,,,,,2019_Apr_11_1743,60.46519502602184,Cloud_Experiment_FR_REAL,001,36,
images/fcloud80-20_D0.9_2.tif,0.9,2,,,,,0,104,104,76,,,,,,,,,,,,,,,,,,,None,None,None,10.041,,,,,,,,,,,,,,,,,,,2019_Apr_11_1743,60.46519502602184,Cloud_Experiment_FR_REAL,001,36,
images/fcloud65-35_D1.6_2.tif,1.6,1,,,,,0,105,105,61,,,,,,,,,,,,,,,,,,,None,None,None,19.233,,,,,,,,,,,,,,,,,,,2019_Apr_11_1743,60.46519502602184,Cloud_Experiment_FR_REAL,001,36,
images/fcloud80-20_D1.5_1.tif,1.5,2,,,,,0,106,106,93,,,,,,,,,,,,,,,,,,,None,None,None,28.692,,,,,,,,,,,,,,,,,,,2019_Apr_11_1743,60.46519502602184,Cloud_Experiment_FR_REAL,001,36,
images/fcloud_D1.6_1.tif,1.6,0,,,,,0,107,107,24,,,,,,,,,,,,,,,,,,,1,space,3,1.884,3.844835,,,,,,,,,,,,,,,,,,2019_Apr_11_1743,60.46519502602184,Cloud_Experiment_FR_REAL,001,36,
,,,,,,,,,,,,,,,,,,,,,,,,,,,,,,,,,,,,,,,,,,,,,,space,3.16447990001,,,,2019_Apr_11_1743,60.46519502602184,Cloud_Experiment_FR_REAL,001,36,
,,,,,,,,,,,,,,,,,,,,,,,,,6,27.938,,,,,,,,,,,,,,,,,,,,,,,,,2019_Apr_11_1743,60.46519502602184,Cloud_Experiment_FR_REAL,001,36,
,,,,,,,,,,,,,,,,,,,,,,,,,,,,,,,,,,7,,,,,,,,,,,,,,,,,2019_Apr_11_1743,60.46519502602184,Cloud_Experiment_FR_REAL,001,36,
,,,,,,,,,,,,,,,,,,,,,,,,,,,,,,,,,,,4,,,,,,,,,,,,,,,,2019_Apr_11_1743,60.46519502602184,Cloud_Experiment_FR_REAL,001,36,
,,,,,,,,,,,,,,,,,,,,,,,,,,,,,,,,,,,,6,,,,,,,,,,,,,,,2019_Apr_11_1743,60.46519502602184,Cloud_Experiment_FR_REAL,001,36,
,,,,,,,,,,,,,,,,,,,,,,,,,,,,,,,,,,,,,6,,,,,,,,,,,,,,2019_Apr_11_1743,60.46519502602184,Cloud_Experiment_FR_REAL,001,36,
,,,,,,,,,,,,,,,,,,,,,,,,,,,,,,,,,,,,,,7,,,,,,,,,,,,,2019_Apr_11_1743,60.46519502602184,Cloud_Experiment_FR_REAL,001,36,
,,,,,,,,,,,,,,,,,,,,,,,,,,,,,,,,,,,,,,,7,,,,,,,,,,,,2019_Apr_11_1743,60.46519502602184,Cloud_Experiment_FR_REAL,001,36,
,,,,,,,,,,,,,,,,,,,,,,,,,,,,,,,,,,,,,,,,4,,,,,,,,,,,2019_Apr_11_1743,60.46519502602184,Cloud_Experiment_FR_REAL,001,36,
,,,,,,,,,,,,,,,,,,,,,,,,,,,,,,,,,,,,,,,,,4,,,,,,,,,,2019_Apr_11_1743,60.46519502602184,Cloud_Experiment_FR_REAL,001,36,
,,,,,,,,,,,,,,,,,,,,,,,,,,,,,,,,,,,,,,,,,,4,,,,,,,,,2019_Apr_11_1743,60.46519502602184,Cloud_Experiment_FR_REAL,001,36,
,,,,,,,,,,,,,,,,,,,,,,,,,,,,,,,,,,,,,,,,,,,7,,,,,,,,2019_Apr_11_1743,60.46519502602184,Cloud_Experiment_FR_REAL,001,36,
,,,,,,,,,,,,,,,,,,,,,,,,,,,,,,,,,,,,,,,,,,,,,,,,space,1.6148947,,2019_Apr_11_1743,60.46519502602184,Cloud_Experiment_FR_REAL,001,36,
images/fcloud80-20_D1.5_5.tif,1.5,2,,,,,,,,,0,0,0,94,,,,,,,,,,,,,,,1,space,4,1.051,6.6312651,,,,,,,,,,,,,,,,,,2019_Apr_11_1743,60.46519502602184,Cloud_Experiment_FR_REAL,001,36,
images/fcloud_D1.2_4.tif,1.2,0,,,,,,,,,0,1,1,12,,,,,,,,,,,,,,,3,space,3,1.935,1.58315620001,,,,,,,,,,,,,,,,,,2019_Apr_11_1743,60.46519502602184,Cloud_Experiment_FR_REAL,001,36,
images/fcloud80-20_D1.2_5.tif,1.2,2,,,,,,,,,0,2,2,85,,,,,,,,,,,,,,,None,None,None,10.992,,,,,,,,,,,,,,,,,,,2019_Apr_11_1743,60.46519502602184,Cloud_Experiment_FR_REAL,001,36,
images/fcloud_D1.8_6.tif,1.8,0,,,,,,,,,0,3,3,32,,,,,,,,,,,,,,,2,space,4,6.432,3.96952509999,,,,,,,,,,,,,,,,,,2019_Apr_11_1743,60.46519502602184,Cloud_Experiment_FR_REAL,001,36,
images/fcloud80-20_D1.4_5.tif,1.4,2,,,,,,,,,0,4,4,91,,,,,,,,,,,,,,,None,None,None,15.622,,,,,,,,,,,,,,,,,,,2019_Apr_11_1743,60.46519502602184,Cloud_Experiment_FR_REAL,001,36,
images/fcloud_D1.5_4.tif,1.5,0,,,,,,,,,0,5,5,21,,,,,,,,,,,,,,,1,space,5,1.5,3.50119050001,,,,,,,,,,,,,,,,,,2019_Apr_11_1743,60.46519502602184,Cloud_Experiment_FR_REAL,001,36,
images/fcloud_D1.9_6.tif,1.9,0,,,,,,,,,0,6,6,35,,,,,,,,,,,,,,,1,space,4,5.032,6.60559259998,,,,,,,,,,,,,,,,,,2019_Apr_11_1743,60.46519502602184,Cloud_Experiment_FR_REAL,001,36,
images/fcloud65-35_D1.4_6.tif,1.4,1,,,,,,,,,0,7,7,56,,,,,,,,,,,,,,,1,space,5,0.951,3.33026039999,,,,,,,,,,,,,,,,,,2019_Apr_11_1743,60.46519502602184,Cloud_Experiment_FR_REAL,001,36,
images/fcloud65-35_D1.2_4.tif,1.2,1,,,,,,,,,0,8,8,48,,,,,,,,,,,,,,,1,space,4,1.751,1.480289,,,,,,,,,,,,,,,,,,2019_Apr_11_1743,60.46519502602184,Cloud_Experiment_FR_REAL,001,36,
images/fcloud80-20_D1.5_4.tif,1.5,2,,,,,,,,,0,9,9,93,,,,,,,,,,,,,,,None,None,None,10.975,,,,,,,,,,,,,,,,,,,2019_Apr_11_1743,60.46519502602184,Cloud_Experiment_FR_REAL,001,36,
images/fcloud_D1.3_5.tif,1.3,0,,,,,,,,,0,10,10,16,,,,,,,,,,,,,,,2,space,4,1.999,3.92115539999,,,,,,,,,,,,,,,,,,2019_Apr_11_1743,60.46519502602184,Cloud_Experiment_FR_REAL,001,36,
images/fcloud_D0.8_5.tif,0.8,0,,,,,,,,,0,11,11,1,,,,,,,,,,,,,,,2,space,4,1.152,1.91234780001,,,,,,,,,,,,,,,,,,2019_Apr_11_1743,60.46519502602184,Cloud_Experiment_FR_REAL,001,36,
images/fcloud_D1.7_5.tif,1.7,0,,,,,,,,,0,12,12,28,,,,,,,,,,,,,,,1,space,5,2.916,4.8365752,,,,,,,,,,,,,,,,,,2019_Apr_11_1743,60.46519502602184,Cloud_Experiment_FR_REAL,001,36,
images/fcloud65-35_D0.9_6.tif,0.9,1,,,,,,,,,0,13,13,41,,,,,,,,,,,,,,,None,None,None,12.193,,,,,,,,,,,,,,,,,,,2019_Apr_11_1743,60.46519502602184,Cloud_Experiment_FR_REAL,001,36,
images/fcloud_D1_6.tif,1.0,0,,,,,,,,,0,14,14,8,,,,,,,,,,,,,,,1,space,5,1.034,4.4774646,,,,,,,,,,,,,,,,,,2019_Apr_11_1743,60.46519502602184,Cloud_Experiment_FR_REAL,001,36,
images/fcloud80-20_D0.8_4.tif,0.8,2,,,,,,,,,0,15,15,72,,,,,,,,,,,,,,,None,None,None,10.091,,,,,,,,,,,,,,,,,,,2019_Apr_11_1743,60.46519502602184,Cloud_Experiment_FR_REAL,001,36,
images/fcloud_D1.6_6.tif,1.6,0,,,,,,,,,0,16,16,26,,,,,,,,,,,,,,,3,space,4,1.619,4.22654830001,,,,,,,,,,,,,,,,,,2019_Apr_11_1743,60.46519502602184,Cloud_Experiment_FR_REAL,001,36,
images/fcloud80-20_D1.6_5.tif,1.6,2,,,,,,,,,0,17,17,97,,,,,,,,,,,,,,,None,None,None,10.83,,,,,,,,,,,,,,,,,,,2019_Apr_11_1743,60.46519502602184,Cloud_Experiment_FR_REAL,001,36,
images/fcloud80-20_D1.2_4.tif,1.2,2,,,,,,,,,0,18,18,84,,,,,,,,,,,,,,,None,None,None,19.917,,,,,,,,,,,,,,,,,,,2019_Apr_11_1743,60.46519502602184,Cloud_Experiment_FR_REAL,001,36,
images/fcloud_D1.4_5.tif,1.4,0,,,,,,,,,0,19,19,19,,,,,,,,,,,,,,,2,space,4,1.717,4.12305729999,,,,,,,,,,,,,,,,,,2019_Apr_11_1743,60.46519502602184,Cloud_Experiment_FR_REAL,001,36,
images/fcloud65-35_D1.3_5.tif,1.3,1,,,,,,,,,0,20,20,52,,,,,,,,,,,,,,,None,None,None,10.857,,,,,,,,,,,,,,,,,,,2019_Apr_11_1743,60.46519502602184,Cloud_Experiment_FR_REAL,001,36,
images/fcloud80-20_D1.1_5.tif,1.1,2,,,,,,,,,0,21,21,82,,,,,,,,,,,,,,,None,None,None,19.484,,,,,,,,,,,,,,,,,,,2019_Apr_11_1743,60.46519502602184,Cloud_Experiment_FR_REAL,001,36,
images/fcloud80-20_D1_6.tif,1.0,2,,,,,,,,,0,22,22,80,,,,,,,,,,,,,,,None,None,None,28.309,,,,,,,,,,,,,,,,,,,2019_Apr_11_1743,60.46519502602184,Cloud_Experiment_FR_REAL,001,36,
images/fcloud_D1.3_6.tif,1.3,0,,,,,,,,,0,23,23,17,,,,,,,,,,,,,,,1,space,4,1.917,2.346475,,,,,,,,,,,,,,,,,,2019_Apr_11_1743,60.46519502602184,Cloud_Experiment_FR_REAL,001,36,
images/fcloud65-35_D1.8_4.tif,1.8,1,,,,,,,,,0,24,24,66,,,,,,,,,,,,,,,None,None,None,11.091,,,,,,,,,,,,,,,,,,,2019_Apr_11_1743,60.46519502602184,Cloud_Experiment_FR_REAL,001,36,
images/fcloud_D1.6_5.tif,1.6,0,,,,,,,,,0,25,25,25,,,,,,,,,,,,,,,1,space,3,5.63,5.14337850001,,,,,,,,,,,,,,,,,,2019_Apr_11_1743,60.46519502602184,Cloud_Experiment_FR_REAL,001,36,
images/fcloud80-20_D1.8_6.tif,1.8,2,,,,,,,,,0,26,26,104,,,,,,,,,,,,,,,1,space,3,2.134,8.02409119997,,,,,,,,,,,,,,,,,,2019_Apr_11_1743,60.46519502602184,Cloud_Experiment_FR_REAL,001,36,
images/fcloud_D1.3_4.tif,1.3,0,,,,,,,,,0,27,27,15,,,,,,,,,,,,,,,1,space,2,0.737,5.97826269999,,,,,,,,,,,,,,,,,,2019_Apr_11_1743,60.46519502602184,Cloud_Experiment_FR_REAL,001,36,
images/fcloud65-35_D1.6_6.tif,1.6,1,,,,,,,,,0,28,28,62,,,,,,,,,,,,,,,1,space,3,0.851,4.95728950002,,,,,,,,,,,,,,,,,,2019_Apr_11_1743,60.46519502602184,Cloud_Experiment_FR_REAL,001,36,
images/fcloud_D0.8_6.tif,0.8,0,,,,,,,,,0,29,29,2,,,,,,,,,,,,,,,1,space,4,0.818,3.83482609998,,,,,,,,,,,,,,,,,,2019_Apr_11_1743,60.46519502602184,Cloud_Experiment_FR_REAL,001,36,
images/fcloud80-20_D1.1_6.tif,1.1,2,,,,,,,,,0,30,30,83,,,,,,,,,,,,,,,1,None,3,0.785,,,,,,,,,,,,,,,,,,,2019_Apr_11_1743,60.46519502602184,Cloud_Experiment_FR_REAL,001,36,
images/fcloud65-35_D1.1_6.tif,1.1,1,,,,,,,,,0,31,31,47,,,,,,,,,,,,,,,1,space,4,1.635,2.27101120001,,,,,,,,,,,,,,,,,,2019_Apr_11_1743,60.46519502602184,Cloud_Experiment_FR_REAL,001,36,
images/fcloud_D1.7_4.tif,1.7,0,,,,,,,,,0,32,32,27,,,,,,,,,,,,,,,None,None,None,10.662,,,,,,,,,,,,,,,,,,,2019_Apr_11_1743,60.46519502602184,Cloud_Experiment_FR_REAL,001,36,
images/fcloud80-20_D1.5_6.tif,1.5,2,,,,,,,,,0,33,33,95,,,,,,,,,,,,,,,None,None,None,19.252,,,,,,,,,,,,,,,,,,,2019_Apr_11_1743,60.46519502602184,Cloud_Experiment_FR_REAL,001,36,
images/fcloud80-20_D0.8_6.tif,0.8,2,,,,,,,,,0,34,34,74,,,,,,,,,,,,,,,None,None,None,28.326,,,,,,,,,,,,,,,,,,,2019_Apr_11_1743,60.46519502602184,Cloud_Experiment_FR_REAL,001,36,
images/fcloud_D0.9_5.tif,0.9,0,,,,,,,,,0,35,35,4,,,,,,,,,,,,,,,2,space,4,1.368,1.5634979,,,,,,,,,,,,,,,,,,2019_Apr_11_1743,60.46519502602184,Cloud_Experiment_FR_REAL,001,36,
images/fcloud_D1.1_6.tif,1.1,0,,,,,,,,,0,36,36,11,,,,,,,,,,,,,,,2,space,4,0.901,2.6127732,,,,,,,,,,,,,,,,,,2019_Apr_11_1743,60.46519502602184,Cloud_Experiment_FR_REAL,001,36,
images/fcloud80-20_D1.6_6.tif,1.6,2,,,,,,,,,0,37,37,98,,,,,,,,,,,,,,,None,None,None,9.859,,,,,,,,,,,,,,,,,,,2019_Apr_11_1743,60.46519502602184,Cloud_Experiment_FR_REAL,001,36,
images/fcloud65-35_D1.4_5.tif,1.4,1,,,,,,,,,0,38,38,55,,,,,,,,,,,,,,,None,None,None,19.05,,,,,,,,,,,,,,,,,,,2019_Apr_11_1743,60.46519502602184,Cloud_Experiment_FR_REAL,001,36,
images/fcloud_D0.9_6.tif,0.9,0,,,,,,,,,0,39,39,5,,,,,,,,,,,,,,,1,space,3,1.102,3.79570260001,,,,,,,,,,,,,,,,,,2019_Apr_11_1743,60.46519502602184,Cloud_Experiment_FR_REAL,001,36,
images/fcloud_D0.9_4.tif,0.9,0,,,,,,,,,0,40,40,3,,,,,,,,,,,,,,,1,space,4,0.801,1.33047779999,,,,,,,,,,,,,,,,,,2019_Apr_11_1743,60.46519502602184,Cloud_Experiment_FR_REAL,001,36,
images/fcloud65-35_D1_4.tif,1.0,1,,,,,,,,,0,41,41,42,,,,,,,,,,,,,,,1,space,4,0.884,1.6849092,,,,,,,,,,,,,,,,,,2019_Apr_11_1743,60.46519502602184,Cloud_Experiment_FR_REAL,001,36,
images/fcloud65-35_D1.9_5.tif,1.9,1,,,,,,,,,0,42,42,70,,,,,,,,,,,,,,,1,space,2,0.734,6.47766049998,,,,,,,,,,,,,,,,,,2019_Apr_11_1743,60.46519502602184,Cloud_Experiment_FR_REAL,001,36,
images/fcloud65-35_D0.8_6.tif,0.8,1,,,,,,,,,0,43,43,38,,,,,,,,,,,,,,,1,space,3,0.451,1.7236727,,,,,,,,,,,,,,,,,,2019_Apr_11_1743,60.46519502602184,Cloud_Experiment_FR_REAL,001,36,
images/fcloud_D1.5_5.tif,1.5,0,,,,,,,,,0,44,44,22,,,,,,,,,,,,,,,2,space,3,3.699,2.8795899,,,,,,,,,,,,,,,,,,2019_Apr_11_1743,60.46519502602184,Cloud_Experiment_FR_REAL,001,36,
images/fcloud65-35_D1.5_6.tif,1.5,1,,,,,,,,,0,45,45,59,,,,,,,,,,,,,,,1,space,3,0.535,2.3354978,,,,,,,,,,,,,,,,,,2019_Apr_11_1743,60.46519502602184,Cloud_Experiment_FR_REAL,001,36,
images/fcloud_D1_4.tif,1.0,0,,,,,,,,,0,46,46,6,,,,,,,,,,,,,,,2,space,4,1.067,3.20469330001,,,,,,,,,,,,,,,,,,2019_Apr_11_1743,60.46519502602184,Cloud_Experiment_FR_REAL,001,36,
images/fcloud65-35_D1.8_5.tif,1.8,1,,,,,,,,,0,47,47,67,,,,,,,,,,,,,,,1,space,3,0.906,2.96294510001,,,,,,,,,,,,,,,,,,2019_Apr_11_1743,60.46519502602184,Cloud_Experiment_FR_REAL,001,36,
images/fcloud_D1.9_5.tif,1.9,0,,,,,,,,,0,48,48,34,,,,,,,,,,,,,,,1,space,3,0.701,7.93441430002,,,,,,,,,,,,,,,,,,2019_Apr_11_1743,60.46519502602184,Cloud_Experiment_FR_REAL,001,36,
images/fcloud80-20_D1.4_6.tif,1.4,2,,,,,,,,,0,49,49,92,,,,,,,,,,,,,,,None,None,None,9.909,,,,,,,,,,,,,,,,,,,2019_Apr_11_1743,60.46519502602184,Cloud_Experiment_FR_REAL,001,36,
images/fcloud80-20_D1.4_4.tif,1.4,2,,,,,,,,,0,50,50,90,,,,,,,,,,,,,,,None,None,None,19.718,,,,,,,,,,,,,,,,,,,2019_Apr_11_1743,60.46519502602184,Cloud_Experiment_FR_REAL,001,36,
images/fcloud65-35_D1.9_6.tif,1.9,1,,,,,,,,,0,51,51,71,,,,,,,,,,,,,,,1,space,2,1.218,6.46731750001,,,,,,,,,,,,,,,,,,2019_Apr_11_1743,60.46519502602184,Cloud_Experiment_FR_REAL,001,36,
images/fcloud_D1_5.tif,1.0,0,,,,,,,,,0,52,52,7,,,,,,,,,,,,,,,1,space,2,0.986,6.4886671,,,,,,,,,,,,,,,,,,2019_Apr_11_1743,60.46519502602184,Cloud_Experiment_FR_REAL,001,36,
images/fcloud_D0.8_4.tif,0.8,0,,,,,,,,,0,53,53,0,,,,,,,,,,,,,,,None,None,None,9.977,,,,,,,,,,,,,,,,,,,2019_Apr_11_1743,60.46519502602184,Cloud_Experiment_FR_REAL,001,36,
images/fcloud_D1.7_6.tif,1.7,0,,,,,,,,,0,54,54,29,,,,,,,,,,,,,,,None,None,None,19.151,,,,,,,,,,,,,,,,,,,2019_Apr_11_1743,60.46519502602184,Cloud_Experiment_FR_REAL,001,36,
images/fcloud80-20_D1.7_6.tif,1.7,2,,,,,,,,,0,55,55,101,,,,,,,,,,,,,,,None,None,None,30.158,,,,,,,,,,,,,,,,,,,2019_Apr_11_1743,60.46519502602184,Cloud_Experiment_FR_REAL,001,36,
images/fcloud65-35_D1.6_5.tif,1.6,1,,,,,,,,,0,56,56,61,,,,,,,,,,,,,,,None,None,None,39.551,,,,,,,,,,,,,,,,,,,2019_Apr_11_1743,60.46519502602184,Cloud_Experiment_FR_REAL,001,36,
images/fcloud80-20_D1.6_4.tif,1.6,2,,,,,,,,,0,57,57,96,,,,,,,,,,,,,,,1,space,3,3.95,7.22482,,,,,,,,,,,,,,,,,,2019_Apr_11_1743,60.46519502602184,Cloud_Experiment_FR_REAL,001,36,
images/fcloud80-20_D1.7_5.tif,1.7,2,,,,,,,,,0,58,58,100,,,,,,,,,,,,,,,None,None,None,12.873,,,,,,,,,,,,,,,,,,,2019_Apr_11_1743,60.46519502602184,Cloud_Experiment_FR_REAL,001,36,
images/fcloud_D1.5_6.tif,1.5,0,,,,,,,,,0,59,59,23,,,,,,,,,,,,,,,1,space,4,0.934,5.69162900001,,,,,,,,,,,,,,,,,,2019_Apr_11_1743,60.46519502602184,Cloud_Experiment_FR_REAL,001,36,
images/fcloud65-35_D1.2_5.tif,1.2,1,,,,,,,,,0,60,60,49,,,,,,,,,,,,,,,1,space,3,0.851,3.85737100002,,,,,,,,,,,,,,,,,,2019_Apr_11_1743,60.46519502602184,Cloud_Experiment_FR_REAL,001,36,
images/fcloud80-20_D1.1_4.tif,1.1,2,,,,,,,,,0,61,61,81,,,,,,,,,,,,,,,None,None,None,10.144,,,,,,,,,,,,,,,,,,,2019_Apr_11_1743,60.46519502602184,Cloud_Experiment_FR_REAL,001,36,
images/fcloud80-20_D1.8_4.tif,1.8,2,,,,,,,,,0,62,62,102,,,,,,,,,,,,,,,None,None,None,19.118,,,,,,,,,,,,,,,,,,,2019_Apr_11_1743,60.46519502602184,Cloud_Experiment_FR_REAL,001,36,
images/fcloud_D1.9_4.tif,1.9,0,,,,,,,,,0,63,63,33,,,,,,,,,,,,,,,1,space,4,1.8,5.25877099999,,,,,,,,,,,,,,,,,,2019_Apr_11_1743,60.46519502602184,Cloud_Experiment_FR_REAL,001,36,
images/fcloud80-20_D1.3_4.tif,1.3,2,,,,,,,,,0,64,64,87,,,,,,,,,,,,,,,1,space,3,0.77,7.08114900001,,,,,,,,,,,,,,,,,,2019_Apr_11_1743,60.46519502602184,Cloud_Experiment_FR_REAL,001,36,
images/fcloud80-20_D0.8_5.tif,0.8,2,,,,,,,,,0,65,65,73,,,,,,,,,,,,,,,None,None,None,9.844,,,,,,,,,,,,,,,,,,,2019_Apr_11_1743,60.46519502602184,Cloud_Experiment_FR_REAL,001,36,
images/fcloud80-20_D0.9_4.tif,0.9,2,,,,,,,,,0,66,66,75,,,,,,,,,,,,,,,None,None,None,18.952,,,,,,,,,,,,,,,,,,,2019_Apr_11_1743,60.46519502602184,Cloud_Experiment_FR_REAL,001,36,
images/fcloud65-35_D1.7_5.tif,1.7,1,,,,,,,,,0,67,67,64,,,,,,,,,,,,,,,3,space,5,1.168,2.988576,,,,,,,,,,,,,,,,,,2019_Apr_11_1743,60.46519502602184,Cloud_Experiment_FR_REAL,001,36,
images/fcloud_D1.1_4.tif,1.1,0,,,,,,,,,0,68,68,9,,,,,,,,,,,,,,,2,space,5,0.703,1.65161180001,,,,,,,,,,,,,,,,,,2019_Apr_11_1743,60.46519502602184,Cloud_Experiment_FR_REAL,001,36,
images/fcloud65-35_D0.9_5.tif,0.9,1,,,,,,,,,0,69,69,40,,,,,,,,,,,,,,,1,space,4,1.468,6.48270329999,,,,,,,,,,,,,,,,,,2019_Apr_11_1743,60.46519502602184,Cloud_Experiment_FR_REAL,001,36,
images/fcloud80-20_D1.2_6.tif,1.2,2,,,,,,,,,0,70,70,86,,,,,,,,,,,,,,,1,space,2,0.652,6.82492469999,,,,,,,,,,,,,,,,,,2019_Apr_11_1743,60.46519502602184,Cloud_Experiment_FR_REAL,001,36,
images/fcloud65-35_D1.7_4.tif,1.7,1,,,,,,,,,0,71,71,63,,,,,,,,,,,,,,,None,None,None,9.627,,,,,,,,,,,,,,,,,,,2019_Apr_11_1743,60.46519502602184,Cloud_Experiment_FR_REAL,001,36,
images/fcloud65-35_D1.5_5.tif,1.5,1,,,,,,,,,0,72,72,58,,,,,,,,,,,,,,,None,None,None,18.752,,,,,,,,,,,,,,,,,,,2019_Apr_11_1743,60.46519502602184,Cloud_Experiment_FR_REAL,001,36,
images/fcloud80-20_D1.3_5.tif,1.3,2,,,,,,,,,0,73,73,88,,,,,,,,,,,,,,,1,space,2,0.435,1.6971395,,,,,,,,,,,,,,,,,,2019_Apr_11_1743,60.46519502602184,Cloud_Experiment_FR_REAL,001,36,
images/fcloud65-35_D0.8_5.tif,0.8,1,,,,,,,,,0,74,74,37,,,,,,,,,,,,,,,1,space,5,0.703,1.62327010001,,,,,,,,,,,,,,,,,,2019_Apr_11_1743,60.46519502602184,Cloud_Experiment_FR_REAL,001,36,
images/fcloud_D1.4_6.tif,1.4,0,,,,,,,,,0,75,75,20,,,,,,,,,,,,,,,2,space,2,0.468,4.43101499998,,,,,,,,,,,,,,,,,,2019_Apr_11_1743,60.46519502602184,Cloud_Experiment_FR_REAL,001,36,
images/fcloud_D1.4_4.tif,1.4,0,,,,,,,,,0,76,76,18,,,,,,,,,,,,,,,1,space,4,1.285,6.42921460001,,,,,,,,,,,,,,,,,,2019_Apr_11_1743,60.46519502602184,Cloud_Experiment_FR_REAL,001,36,
images/fcloud80-20_D0.9_6.tif,0.9,2,,,,,,,,,0,77,77,77,,,,,,,,,,,,,,,None,None,None,10.308,,,,,,,,,,,,,,,,,,,2019_Apr_11_1743,60.46519502602184,Cloud_Experiment_FR_REAL,001,36,
images/fcloud65-35_D1.2_6.tif,1.2,1,,,,,,,,,0,78,78,50,,,,,,,,,,,,,,,None,None,None,19.168,,,,,,,,,,,,,,,,,,,2019_Apr_11_1743,60.46519502602184,Cloud_Experiment_FR_REAL,001,36,
images/fcloud65-35_D1.9_4.tif,1.9,1,,,,,,,,,0,79,79,69,,,,,,,,,,,,,,,None,None,None,28.093,,,,,,,,,,,,,,,,,,,2019_Apr_11_1743,60.46519502602184,Cloud_Experiment_FR_REAL,001,36,
images/fcloud80-20_D1.9_4.tif,1.9,2,,,,,,,,,0,80,80,105,,,,,,,,,,,,,,,None,None,None,37.084,,,,,,,,,,,,,,,,,,,2019_Apr_11_1743,60.46519502602184,Cloud_Experiment_FR_REAL,001,36,
images/fcloud65-35_D0.8_4.tif,0.8,1,,,,,,,,,0,81,81,36,,,,,,,,,,,,,,,None,None,None,47.209,,,,,,,,,,,,,,,,,,,2019_Apr_11_1743,60.46519502602184,Cloud_Experiment_FR_REAL,001,36,
images/fcloud65-35_D0.9_4.tif,0.9,1,,,,,,,,,0,82,82,39,,,,,,,,,,,,,,,1,space,2,2.167,9.27197849998,,,,,,,,,,,,,,,,,,2019_Apr_11_1743,60.46519502602184,Cloud_Experiment_FR_REAL,001,36,
images/fcloud80-20_D0.9_5.tif,0.9,2,,,,,,,,,0,83,83,76,,,,,,,,,,,,,,,1,space,4,0.902,4.2903167,,,,,,,,,,,,,,,,,,2019_Apr_11_1743,60.46519502602184,Cloud_Experiment_FR_REAL,001,36,
images/fcloud_D1.2_6.tif,1.2,0,,,,,,,,,0,84,84,14,,,,,,,,,,,,,,,3,space,3,0.851,3.9440515,,,,,,,,,,,,,,,,,,2019_Apr_11_1743,60.46519502602184,Cloud_Experiment_FR_REAL,001,36,
images/fcloud65-35_D1_5.tif,1.0,1,,,,,,,,,0,85,85,43,,,,,,,,,,,,,,,None,None,None,10.245,,,,,,,,,,,,,,,,,,,2019_Apr_11_1743,60.46519502602184,Cloud_Experiment_FR_REAL,001,36,
images/fcloud_D1.8_5.tif,1.8,0,,,,,,,,,0,86,86,31,,,,,,,,,,,,,,,1,space,3,1.384,3.6589946,,,,,,,,,,,,,,,,,,2019_Apr_11_1743,60.46519502602184,Cloud_Experiment_FR_REAL,001,36,
images/fcloud65-35_D1.1_4.tif,1.1,1,,,,,,,,,0,87,87,45,,,,,,,,,,,,,,,None,None,None,10.458,,,,,,,,,,,,,,,,,,,2019_Apr_11_1743,60.46519502602184,Cloud_Experiment_FR_REAL,001,36,
images/fcloud_D1.1_5.tif,1.1,0,,,,,,,,,0,88,88,10,,,,,,,,,,,,,,,1,space,2,3.848,2.66155299998,,,,,,,,,,,,,,,,,,2019_Apr_11_1743,60.46519502602184,Cloud_Experiment_FR_REAL,001,36,
images/fcloud_D1.2_5.tif,1.2,0,,,,,,,,,0,89,89,13,,,,,,,,,,,,,,,1,space,2,0.568,7.62452059999,,,,,,,,,,,,,,,,,,2019_Apr_11_1743,60.46519502602184,Cloud_Experiment_FR_REAL,001,36,
images/fcloud_D1.8_4.tif,1.8,0,,,,,,,,,0,90,90,30,,,,,,,,,,,,,,,None,None,None,9.809,,,,,,,,,,,,,,,,,,,2019_Apr_11_1743,60.46519502602184,Cloud_Experiment_FR_REAL,001,36,
images/fcloud_D1.6_4.tif,1.6,0,,,,,,,,,0,91,91,24,,,,,,,,,,,,,,,1,space,3,1.369,6.45137940001,,,,,,,,,,,,,,,,,,2019_Apr_11_1743,60.46519502602184,Cloud_Experiment_FR_REAL,001,36,
images/fcloud80-20_D1.8_5.tif,1.8,2,,,,,,,,,0,92,92,103,,,,,,,,,,,,,,,None,None,None,10.344,,,,,,,,,,,,,,,,,,,2019_Apr_11_1743,60.46519502602184,Cloud_Experiment_FR_REAL,001,36,
images/fcloud65-35_D1.1_5.tif,1.1,1,,,,,,,,,0,93,93,46,,,,,,,,,,,,,,,1,space,3,0.701,5.6609289,,,,,,,,,,,,,,,,,,2019_Apr_11_1743,60.46519502602184,Cloud_Experiment_FR_REAL,001,36,
images/fcloud65-35_D1.3_4.tif,1.3,1,,,,,,,,,0,94,94,51,,,,,,,,,,,,,,,1,space,3,2.799,3.848692,,,,,,,,,,,,,,,,,,2019_Apr_11_1743,60.46519502602184,Cloud_Experiment_FR_REAL,001,36,
images/fcloud65-35_D1.7_6.tif,1.7,1,,,,,,,,,0,95,95,65,,,,,,,,,,,,,,,None,None,None,11.906,,,,,,,,,,,,,,,,,,,2019_Apr_11_1743,60.46519502602184,Cloud_Experiment_FR_REAL,001,36,
images/fcloud65-35_D1_6.tif,1.0,1,,,,,,,,,0,96,96,44,,,,,,,,,,,,,,,1,space,3,1.085,3.14298110001,,,,,,,,,,,,,,,,,,2019_Apr_11_1743,60.46519502602184,Cloud_Experiment_FR_REAL,001,36,
images/fcloud80-20_D1_5.tif,1.0,2,,,,,,,,,0,97,97,79,,,,,,,,,,,,,,,None,None,None,10.759,,,,,,,,,,,,,,,,,,,2019_Apr_11_1743,60.46519502602184,Cloud_Experiment_FR_REAL,001,36,
images/fcloud65-35_D1.5_4.tif,1.5,1,,,,,,,,,0,98,98,57,,,,,,,,,,,,,,,1,space,2,1.235,6.94038270001,,,,,,,,,,,,,,,,,,2019_Apr_11_1743,60.46519502602184,Cloud_Experiment_FR_REAL,001,36,
images/fcloud65-35_D1.8_6.tif,1.8,1,,,,,,,,,0,99,99,68,,,,,,,,,,,,,,,1,space,4,0.836,4.74147420001,,,,,,,,,,,,,,,,,,2019_Apr_11_1743,60.46519502602184,Cloud_Experiment_FR_REAL,001,36,
images/fcloud65-35_D1.6_4.tif,1.6,1,,,,,,,,,0,100,100,60,,,,,,,,,,,,,,,None,None,None,9.911,,,,,,,,,,,,,,,,,,,2019_Apr_11_1743,60.46519502602184,Cloud_Experiment_FR_REAL,001,36,
images/fcloud80-20_D1.7_4.tif,1.7,2,,,,,,,,,0,101,101,99,,,,,,,,,,,,,,,None,None,None,19.051,,,,,,,,,,,,,,,,,,,2019_Apr_11_1743,60.46519502602184,Cloud_Experiment_FR_REAL,001,36,
images/fcloud80-20_D1.3_6.tif,1.3,2,,,,,,,,,0,102,102,89,,,,,,,,,,,,,,,None,None,None,29.496,,,,,,,,,,,,,,,,,,,2019_Apr_11_1743,60.46519502602184,Cloud_Experiment_FR_REAL,001,36,
images/fcloud65-35_D1.4_4.tif,1.4,1,,,,,,,,,0,103,103,54,,,,,,,,,,,,,,,None,None,None,38.569,,,,,,,,,,,,,,,,,,,2019_Apr_11_1743,60.46519502602184,Cloud_Experiment_FR_REAL,001,36,
images/fcloud80-20_D1.9_6.tif,1.9,2,,,,,,,,,0,104,104,107,,,,,,,,,,,,,,,None,None,None,47.594,,,,,,,,,,,,,,,,,,,2019_Apr_11_1743,60.46519502602184,Cloud_Experiment_FR_REAL,001,36,
images/fcloud80-20_D1.9_5.tif,1.9,2,,,,,,,,,0,105,105,106,,,,,,,,,,,,,,,2,space,2,1.383,2.23289460002,,,,,,,,,,,,,,,,,,2019_Apr_11_1743,60.46519502602184,Cloud_Experiment_FR_REAL,001,36,
images/fcloud80-20_D1_4.tif,1.0,2,,,,,,,,,0,106,106,78,,,,,,,,,,,,,,,None,None,None,11.578,,,,,,,,,,,,,,,,,,,2019_Apr_11_1743,60.46519502602184,Cloud_Experiment_FR_REAL,001,36,
images/fcloud65-35_D1.3_6.tif,1.3,1,,,,,,,,,0,107,107,53,,,,,,,,,,,,,,,None,None,None,20.582,,,,,,,,,,,,,,,,,,,2019_Apr_11_1743,60.46519502602184,Cloud_Experiment_FR_REAL,001,36,
,,,,,,,,,,,,,,,,,,,,,,,,,,,,,,,,,,,,,,,,,,,,,,space,2.5007303,,,,2019_Apr_11_1743,60.46519502602184,Cloud_Experiment_FR_REAL,001,36,
,,,,,,,,,,,,,,,,,,,,,,,,,5,13.138,,,,,,,,,,,,,,,,,,,,,,,,,2019_Apr_11_1743,60.46519502602184,Cloud_Experiment_FR_REAL,001,36,
,,,,,,,,,,,,,,,,,,,,,,,,,,,,,,,,,,6,,,,,,,,,,,,,,,,,2019_Apr_11_1743,60.46519502602184,Cloud_Experiment_FR_REAL,001,36,
,,,,,,,,,,,,,,,,,,,,,,,,,,,,,,,,,,,6,,,,,,,,,,,,,,,,2019_Apr_11_1743,60.46519502602184,Cloud_Experiment_FR_REAL,001,36,
,,,,,,,,,,,,,,,,,,,,,,,,,,,,,,,,,,,,6,,,,,,,,,,,,,,,2019_Apr_11_1743,60.46519502602184,Cloud_Experiment_FR_REAL,001,36,
,,,,,,,,,,,,,,,,,,,,,,,,,,,,,,,,,,,,,6,,,,,,,,,,,,,,2019_Apr_11_1743,60.46519502602184,Cloud_Experiment_FR_REAL,001,36,
,,,,,,,,,,,,,,,,,,,,,,,,,,,,,,,,,,,,,,7,,,,,,,,,,,,,2019_Apr_11_1743,60.46519502602184,Cloud_Experiment_FR_REAL,001,36,
,,,,,,,,,,,,,,,,,,,,,,,,,,,,,,,,,,,,,,,6,,,,,,,,,,,,2019_Apr_11_1743,60.46519502602184,Cloud_Experiment_FR_REAL,001,36,
,,,,,,,,,,,,,,,,,,,,,,,,,,,,,,,,,,,,,,,,5,,,,,,,,,,,2019_Apr_11_1743,60.46519502602184,Cloud_Experiment_FR_REAL,001,36,
,,,,,,,,,,,,,,,,,,,,,,,,,,,,,,,,,,,,,,,,,5,,,,,,,,,,2019_Apr_11_1743,60.46519502602184,Cloud_Experiment_FR_REAL,001,36,
,,,,,,,,,,,,,,,,,,,,,,,,,,,,,,,,,,,,,,,,,,4,,,,,,,,,2019_Apr_11_1743,60.46519502602184,Cloud_Experiment_FR_REAL,001,36,
,,,,,,,,,,,,,,,,,,,,,,,,,,,,,,,,,,,,,,,,,,,5,,,,,,,,2019_Apr_11_1743,60.46519502602184,Cloud_Experiment_FR_REAL,001,36,
,,,,,,,,,,,,,,,,,,,,,,,,,,,,,,,,,,,,,,,,,,,,,,,,space,232.7480796,,2019_Apr_11_1743,60.46519502602184,Cloud_Experiment_FR_REAL,001,36,
images/fcloud80-20_D1.7_7.tif,1.7,2,,,,,,,,,,,,,0,0,0,132,,,,,,,,,,,None,None,None,320.456,,,,,,,,,,,,,,,,,,,2019_Apr_11_1743,60.46519502602184,Cloud_Experiment_FR_REAL,001,36,
images/fcloud80-20_D1.2_9.tif,1.2,2,,,,,,,,,,,,,0,1,1,114,,,,,,,,,,,1,space,3,1.434,4.01921969999,,,,,,,,,,,,,,,,,,2019_Apr_11_1743,60.46519502602184,Cloud_Experiment_FR_REAL,001,36,
images/fcloud65-35_D1_9.tif,1.0,1,,,,,,,,,,,,,0,2,2,58,,,,,,,,,,,1,space,3,0.736,8.48221810002,,,,,,,,,,,,,,,,,,2019_Apr_11_1743,60.46519502602184,Cloud_Experiment_FR_REAL,001,36,
images/fcloud_D1.1_8.tif,1.1,0,,,,,,,,,,,,,0,3,3,13,,,,,,,,,,,1,space,4,0.85,1.48104340001,,,,,,,,,,,,,,,,,,2019_Apr_11_1743,60.46519502602184,Cloud_Experiment_FR_REAL,001,36,
images/fcloud_D1.6_9.tif,1.6,0,,,,,,,,,,,,,0,4,4,34,,,,,,,,,,,1,space,3,0.451,1.98018020001,,,,,,,,,,,,,,,,,,2019_Apr_11_1743,60.46519502602184,Cloud_Experiment_FR_REAL,001,36,
images/fcloud80-20_D1.6_7.tif,1.6,2,,,,,,,,,,,,,0,5,5,128,,,,,,,,,,,None,None,None,9.375,,,,,,,,,,,,,,,,,,,2019_Apr_11_1743,60.46519502602184,Cloud_Experiment_FR_REAL,001,36,
images/fcloud_D1.4_9.tif,1.4,0,,,,,,,,,,,,,0,6,6,26,,,,,,,,,,,3,space,4,0.852,1.4634175,,,,,,,,,,,,,,,,,,2019_Apr_11_1743,60.46519502602184,Cloud_Experiment_FR_REAL,001,36,
images/fcloud80-20_D1.5_10.tif,1.5,2,,,,,,,,,,,,,0,7,7,127,,,,,,,,,,,None,None,None,11.876,,,,,,,,,,,,,,,,,,,2019_Apr_11_1743,60.46519502602184,Cloud_Experiment_FR_REAL,001,36,
images/fcloud_D0.9_9.tif,0.9,0,,,,,,,,,,,,,0,8,8,6,,,,,,,,,,,1,space,4,1.552,3.460375,,,,,,,,,,,,,,,,,,2019_Apr_11_1743,60.46519502602184,Cloud_Experiment_FR_REAL,001,36,
images/fcloud80-20_D1.6_9.tif,1.6,2,,,,,,,,,,,,,0,9,9,130,,,,,,,,,,,None,None,None,10.659,,,,,,,,,,,,,,,,,,,2019_Apr_11_1743,60.46519502602184,Cloud_Experiment_FR_REAL,001,36,
images/fcloud65-35_D1_8.tif,1.0,1,,,,,,,,,,,,,0,10,10,57,,,,,,,,,,,1,space,3,1.667,3.99815639999,,,,,,,,,,,,,,,,,,2019_Apr_11_1743,60.46519502602184,Cloud_Experiment_FR_REAL,001,36,
images/fcloud_D1.2_8.tif,1.2,0,,,,,,,,,,,,,0,11,11,17,,,,,,,,,,,4,space,4,1.434,2.62667580001,,,,,,,,,,,,,,,,,,2019_Apr_11_1743,60.46519502602184,Cloud_Experiment_FR_REAL,001,36,
images/fcloud65-35_D0.8_10.tif,0.8,1,,,,,,,,,,,,,0,12,12,51,,,,,,,,,,,None,None,None,11.591,,,,,,,,,,,,,,,,,,,2019_Apr_11_1743,60.46519502602184,Cloud_Experiment_FR_REAL,001,36,
images/fcloud_D1_8.tif,1.0,0,,,,,,,,,,,,,0,13,13,9,,,,,,,,,,,1,space,4,0.885,2.18480609998,,,,,,,,,,,,,,,,,,2019_Apr_11_1743,60.46519502602184,Cloud_Experiment_FR_REAL,001,36,
images/fcloud_D1.9_10.tif,1.9,0,,,,,,,,,,,,,0,14,14,47,,,,,,,,,,,1,None,3,0.435,,,,,,,,,,,,,,,,,,,2019_Apr_11_1743,60.46519502602184,Cloud_Experiment_FR_REAL,001,36,
images/fcloud_D1.8_8.tif,1.8,0,,,,,,,,,,,,,0,15,15,41,,,,,,,,,,,1,space,2,1.201,7.222346,,,,,,,,,,,,,,,,,,2019_Apr_11_1743,60.46519502602184,Cloud_Experiment_FR_REAL,001,36,
images/fcloud65-35_D1_7.tif,1.0,1,,,,,,,,,,,,,0,16,16,56,,,,,,,,,,,1,space,3,1.067,7.58742720002,,,,,,,,,,,,,,,,,,2019_Apr_11_1743,60.46519502602184,Cloud_Experiment_FR_REAL,001,36,
images/fcloud80-20_D1.8_10.tif,1.8,2,,,,,,,,,,,,,0,17,17,139,,,,,,,,,,,None,None,None,10.391,,,,,,,,,,,,,,,,,,,2019_Apr_11_1743,60.46519502602184,Cloud_Experiment_FR_REAL,001,36,
images/fcloud_D1.5_8.tif,1.5,0,,,,,,,,,,,,,0,18,18,29,,,,,,,,,,,3,space,3,0.969,4.85965160001,,,,,,,,,,,,,,,,,,2019_Apr_11_1743,60.46519502602184,Cloud_Experiment_FR_REAL,001,36,
images/fcloud_D1.8_9.tif,1.8,0,,,,,,,,,,,,,0,19,19,42,,,,,,,,,,,2,space,3,1.518,1.56817079999,,,,,,,,,,,,,,,,,,2019_Apr_11_1743,60.46519502602184,Cloud_Experiment_FR_REAL,001,36,
images/fcloud_D1.7_8.tif,1.7,0,,,,,,,,,,,,,0,20,20,37,,,,,,,,,,,3,space,4,0.586,3.2268643,,,,,,,,,,,,,,,,,,2019_Apr_11_1743,60.46519502602184,Cloud_Experiment_FR_REAL,001,36,
images/fcloud_D1.5_9.tif,1.5,0,,,,,,,,,,,,,0,21,21,30,,,,,,,,,,,2,space,4,0.785,5.0110424,,,,,,,,,,,,,,,,,,2019_Apr_11_1743,60.46519502602184,Cloud_Experiment_FR_REAL,001,36,
images/fcloud65-35_D1.9_8.tif,1.9,1,,,,,,,,,,,,,0,22,22,93,,,,,,,,,,,None,None,None,9.877,,,,,,,,,,,,,,,,,,,2019_Apr_11_1743,60.46519502602184,Cloud_Experiment_FR_REAL,001,36,
images/fcloud65-35_D1.3_10.tif,1.3,1,,,,,,,,,,,,,0,23,23,71,,,,,,,,,,,1,space,2,1.286,7.57492290001,,,,,,,,,,,,,,,,,,2019_Apr_11_1743,60.46519502602184,Cloud_Experiment_FR_REAL,001,36,
images/fcloud_D0.8_9.tif,0.8,0,,,,,,,,,,,,,0,24,24,2,,,,,,,,,,,1,space,3,1.318,2.20532750001,,,,,,,,,,,,,,,,,,2019_Apr_11_1743,60.46519502602184,Cloud_Experiment_FR_REAL,001,36,
images/fcloud_D1.2_9.tif,1.2,0,,,,,,,,,,,,,0,25,25,18,,,,,,,,,,,None,None,None,10.259,,,,,,,,,,,,,,,,,,,2019_Apr_11_1743,60.46519502602184,Cloud_Experiment_FR_REAL,001,36,
images/fcloud_D1.9_8.tif,1.9,0,,,,,,,,,,,,,0,26,26,45,,,,,,,,,,,1,space,2,0.868,5.13076549998,,,,,,,,,,,,,,,,,,2019_Apr_11_1743,60.46519502602184,Cloud_Experiment_FR_REAL,001,36,
images/fcloud80-20_D1.4_7.tif,1.4,2,,,,,,,,,,,,,0,27,27,120,,,,,,,,,,,1,space,1,0.635,3.9930443,,,,,,,,,,,,,,,,,,2019_Apr_11_1743,60.46519502602184,Cloud_Experiment_FR_REAL,001,36,
images/fcloud80-20_D1.7_10.tif,1.7,2,,,,,,,,,,,,,0,28,28,135,,,,,,,,,,,None,None,None,10.113,,,,,,,,,,,,,,,,,,,2019_Apr_11_1743,60.46519502602184,Cloud_Experiment_FR_REAL,001,36,
images/fcloud80-20_D1.7_8.tif,1.7,2,,,,,,,,,,,,,0,29,29,133,,,,,,,,,,,None,None,None,19.221,,,,,,,,,,,,,,,,,,,2019_Apr_11_1743,60.46519502602184,Cloud_Experiment_FR_REAL,001,36,
images/fcloud80-20_D0.8_10.tif,0.8,2,,,,,,,,,,,,,0,30,30,99,,,,,,,,,,,2,space,2,4.165,3.5740394,,,,,,,,,,,,,,,,,,2019_Apr_11_1743,60.46519502602184,Cloud_Experiment_FR_REAL,001,36,
images/fcloud80-20_D0.9_9.tif,0.9,2,,,,,,,,,,,,,0,31,31,102,,,,,,,,,,,1,None,2,0.868,,,,,,,,,,,,,,,,,,,2019_Apr_11_1743,60.46519502602184,Cloud_Experiment_FR_REAL,001,36,
images/fcloud80-20_D1.8_7.tif,1.8,2,,,,,,,,,,,,,0,32,32,136,,,,,,,,,,,None,None,None,9.693,,,,,,,,,,,,,,,,,,,2019_Apr_11_1743,60.46519502602184,Cloud_Experiment_FR_REAL,001,36,
images/fcloud65-35_D1.5_9.tif,1.5,1,,,,,,,,,,,,,0,33,33,78,,,,,,,,,,,5,space,5,6.18,2.7135096,,,,,,,,,,,,,,,,,,2019_Apr_11_1743,60.46519502602184,Cloud_Experiment_FR_REAL,001,36,
images/fcloud_D1.8_10.tif,1.8,0,,,,,,,,,,,,,0,34,34,43,,,,,,,,,,,None,None,None,15.404,,,,,,,,,,,,,,,,,,,2019_Apr_11_1743,60.46519502602184,Cloud_Experiment_FR_REAL,001,36,
images/fcloud65-35_D1.2_9.tif,1.2,1,,,,,,,,,,,,,0,35,35,66,,,,,,,,,,,1,space,2,2.183,7.95778579998,,,,,,,,,,,,,,,,,,2019_Apr_11_1743,60.46519502602184,Cloud_Experiment_FR_REAL,001,36,
images/fcloud_D0.8_7.tif,0.8,0,,,,,,,,,,,,,0,36,36,0,,,,,,,,,,,1,space,2,1.418,1.40983799999,,,,,,,,,,,,,,,,,,2019_Apr_11_1743,60.46519502602184,Cloud_Experiment_FR_REAL,001,36,
images/fcloud65-35_D1.8_9.tif,1.8,1,,,,,,,,,,,,,0,37,37,90,,,,,,,,,,,1,None,4,2.866,,,,,,,,,,,,,,,,,,,2019_Apr_11_1743,60.46519502602184,Cloud_Experiment_FR_REAL,001,36,
images/fcloud65-35_D1.2_10.tif,1.2,1,,,,,,,,,,,,,0,38,38,67,,,,,,,,,,,2,space,4,0.737,3.91144,,,,,,,,,,,,,,,,,,2019_Apr_11_1743,60.46519502602184,Cloud_Experiment_FR_REAL,001,36,
images/fcloud_D1.5_7.tif,1.5,0,,,,,,,,,,,,,0,39,39,28,,,,,,,,,,,1,space,2,2.032,4.8732802,,,,,,,,,,,,,,,,,,2019_Apr_11_1743,60.46519502602184,Cloud_Experiment_FR_REAL,001,36,
images/fcloud65-35_D1.3_9.tif,1.3,1,,,,,,,,,,,,,0,40,40,70,,,,,,,,,,,None,None,None,10.939,,,,,,,,,,,,,,,,,,,2019_Apr_11_1743,60.46519502602184,Cloud_Experiment_FR_REAL,001,36,
images/fcloud65-35_D1.5_10.tif,1.5,1,,,,,,,,,,,,,0,41,41,79,,,,,,,,,,,2,space,2,0.884,4.022547,,,,,,,,,,,,,,,,,,2019_Apr_11_1743,60.46519502602184,Cloud_Experiment_FR_REAL,001,36,
images/fcloud_D1.3_9.tif,1.3,0,,,,,,,,,,,,,0,42,42,22,,,,,,,,,,,1,space,4,0.436,1.49845270001,,,,,,,,,,,,,,,,,,2019_Apr_11_1743,60.46519502602184,Cloud_Experiment_FR_REAL,001,36,
images/fcloud_D1.8_7.tif,1.8,0,,,,,,,,,,,,,0,43,43,40,,,,,,,,,,,1,None,4,1.168,,,,,,,,,,,,,,,,,,,2019_Apr_11_1743,60.46519502602184,Cloud_Experiment_FR_REAL,001,36,
images/fcloud_D1.3_8.tif,1.3,0,,,,,,,,,,,,,0,44,44,21,,,,,,,,,,,2,space,3,0.951,1.87453549998,,,,,,,,,,,,,,,,,,2019_Apr_11_1743,60.46519502602184,Cloud_Experiment_FR_REAL,001,36,
images/fcloud80-20_D1.5_7.tif,1.5,2,,,,,,,,,,,,,0,45,45,124,,,,,,,,,,,1,None,1,0.569,,,,,,,,,,,,,,,,,,,2019_Apr_11_1743,60.46519502602184,Cloud_Experiment_FR_REAL,001,36,
images/fcloud_D1.7_7.tif,1.7,0,,,,,,,,,,,,,0,46,46,36,,,,,,,,,,,1,space,3,0.918,6.76730940002,,,,,,,,,,,,,,,,,,2019_Apr_11_1743,60.46519502602184,Cloud_Experiment_FR_REAL,001,36,
images/fcloud80-20_D1_8.tif,1.0,2,,,,,,,,,,,,,0,47,47,105,,,,,,,,,,,1,space,3,3.018,6.11219979997,,,,,,,,,,,,,,,,,,2019_Apr_11_1743,60.46519502602184,Cloud_Experiment_FR_REAL,001,36,
images/fcloud_D1.5_10.tif,1.5,0,,,,,,,,,,,,,0,48,48,31,,,,,,,,,,,2,space,4,1.783,3.78915599998,,,,,,,,,,,,,,,,,,2019_Apr_11_1743,60.46519502602184,Cloud_Experiment_FR_REAL,001,36,
images/fcloud80-20_D1.9_8.tif,1.9,2,,,,,,,,,,,,,0,49,49,141,,,,,,,,,,,None,None,None,11.207,,,,,,,,,,,,,,,,,,,2019_Apr_11_1743,60.46519502602184,Cloud_Experiment_FR_REAL,001,36,
images/fcloud80-20_D1.1_7.tif,1.1,2,,,,,,,,,,,,,0,50,50,108,,,,,,,,,,,1,space,3,0.552,6.04122800002,,,,,,,,,,,,,,,,,,2019_Apr_11_1743,60.46519502602184,Cloud_Experiment_FR_REAL,001,36,
images/fcloud65-35_D1.1_9.tif,1.1,1,,,,,,,,,,,,,0,51,51,62,,,,,,,,,,,2,space,4,1.618,4.0390582,,,,,,,,,,,,,,,,,,2019_Apr_11_1743,60.46519502602184,Cloud_Experiment_FR_REAL,001,36,
images/fcloud65-35_D1.4_7.tif,1.4,1,,,,,,,,,,,,,0,52,52,72,,,,,,,,,,,1,space,3,1.284,6.35447980001,,,,,,,,,,,,,,,,,,2019_Apr_11_1743,60.46519502602184,Cloud_Experiment_FR_REAL,001,36,
images/fcloud_D0.9_10.tif,0.9,0,,,,,,,,,,,,,0,53,53,7,,,,,,,,,,,1,space,3,0.571,5.85838320001,,,,,,,,,,,,,,,,,,2019_Apr_11_1743,60.46519502602184,Cloud_Experiment_FR_REAL,001,36,
images/fcloud80-20_D1.1_9.tif,1.1,2,,,,,,,,,,,,,0,54,54,110,,,,,,,,,,,None,None,None,9.608,,,,,,,,,,,,,,,,,,,2019_Apr_11_1743,60.46519502602184,Cloud_Experiment_FR_REAL,001,36,
images/fcloud80-20_D0.9_8.tif,0.9,2,,,,,,,,,,,,,0,55,55,101,,,,,,,,,,,None,None,None,18.685,,,,,,,,,,,,,,,,,,,2019_Apr_11_1743,60.46519502602184,Cloud_Experiment_FR_REAL,001,36,
images/fcloud65-35_D0.8_7.tif,0.8,1,,,,,,,,,,,,,0,56,56,48,,,,,,,,,,,None,space,None,27.694,7.3195438,,,,,,,,,,,,,,,,,,2019_Apr_11_1743,60.46519502602184,Cloud_Experiment_FR_REAL,001,36,
images/fcloud65-35_D1.1_10.tif,1.1,1,,,,,,,,,,,,,0,57,57,63,,,,,,,,,,,1,space,3,1.852,6.30894789999,,,,,,,,,,,,,,,,,,2019_Apr_11_1743,60.46519502602184,Cloud_Experiment_FR_REAL,001,36,
images/fcloud80-20_D0.8_9.tif,0.8,2,,,,,,,,,,,,,0,58,58,98,,,,,,,,,,,1,space,3,1.103,2.35016490001,,,,,,,,,,,,,,,,,,2019_Apr_11_1743,60.46519502602184,Cloud_Experiment_FR_REAL,001,36,
images/fcloud65-35_D1.7_7.tif,1.7,1,,,,,,,,,,,,,0,59,59,84,,,,,,,,,,,1,space,3,0.469,3.37515930002,,,,,,,,,,,,,,,,,,2019_Apr_11_1743,60.46519502602184,Cloud_Experiment_FR_REAL,001,36,
images/fcloud80-20_D1.7_9.tif,1.7,2,,,,,,,,,,,,,0,60,60,134,,,,,,,,,,,None,None,None,9.362,,,,,,,,,,,,,,,,,,,2019_Apr_11_1743,60.46519502602184,Cloud_Experiment_FR_REAL,001,36,
images/fcloud80-20_D1.3_10.tif,1.3,2,,,,,,,,,,,,,0,61,61,119,,,,,,,,,,,1,space,4,0.951,4.523823,,,,,,,,,,,,,,,,,,2019_Apr_11_1743,60.46519502602184,Cloud_Experiment_FR_REAL,001,36,
images/fcloud80-20_D0.8_7.tif,0.8,2,,,,,,,,,,,,,0,62,62,96,,,,,,,,,,,1,space,3,0.534,6.6588908,,,,,,,,,,,,,,,,,,2019_Apr_11_1743,60.46519502602184,Cloud_Experiment_FR_REAL,001,36,
images/fcloud65-35_D1_10.tif,1.0,1,,,,,,,,,,,,,0,63,63,59,,,,,,,,,,,None,None,None,9.426,,,,,,,,,,,,,,,,,,,2019_Apr_11_1743,60.46519502602184,Cloud_Experiment_FR_REAL,001,36,
images/fcloud_D1.1_7.tif,1.1,0,,,,,,,,,,,,,0,64,64,12,,,,,,,,,,,1,space,5,0.601,2.31888620002,,,,,,,,,,,,,,,,,,2019_Apr_11_1743,60.46519502602184,Cloud_Experiment_FR_REAL,001,36,
images/fcloud_D1.7_9.tif,1.7,0,,,,,,,,,,,,,0,65,65,38,,,,,,,,,,,1,space,3,2.566,4.4030357,,,,,,,,,,,,,,,,,,2019_Apr_11_1743,60.46519502602184,Cloud_Experiment_FR_REAL,001,36,
images/fcloud_D1.9_9.tif,1.9,0,,,,,,,,,,,,,0,66,66,46,,,,,,,,,,,1,space,3,2.848,6.25920859998,,,,,,,,,,,,,,,,,,2019_Apr_11_1743,60.46519502602184,Cloud_Experiment_FR_REAL,001,36,
images/fcloud80-20_D1.4_10.tif,1.4,2,,,,,,,,,,,,,0,67,67,123,,,,,,,,,,,1,space,3,1.035,1.6796759,,,,,,,,,,,,,,,,,,2019_Apr_11_1743,60.46519502602184,Cloud_Experiment_FR_REAL,001,36,
images/fcloud_D1.4_8.tif,1.4,0,,,,,,,,,,,,,0,68,68,25,,,,,,,,,,,2,space,4,0.534,2.9291403,,,,,,,,,,,,,,,,,,2019_Apr_11_1743,60.46519502602184,Cloud_Experiment_FR_REAL,001,36,
images/fcloud80-20_D1.9_7.tif,1.9,2,,,,,,,,,,,,,0,69,69,140,,,,,,,,,,,1,space,4,0.701,4.7275911,,,,,,,,,,,,,,,,,,2019_Apr_11_1743,60.46519502602184,Cloud_Experiment_FR_REAL,001,36,
images/fcloud65-35_D1.6_10.tif,1.6,1,,,,,,,,,,,,,0,70,70,83,,,,,,,,,,,None,None,None,9.994,,,,,,,,,,,,,,,,,,,2019_Apr_11_1743,60.46519502602184,Cloud_Experiment_FR_REAL,001,36,
images/fcloud_D1.3_10.tif,1.3,0,,,,,,,,,,,,,0,71,71,23,,,,,,,,,,,3,space,3,1.384,6.03526149999,,,,,,,,,,,,,,,,,,2019_Apr_11_1743,60.46519502602184,Cloud_Experiment_FR_REAL,001,36,
images/fcloud_D1.4_7.tif,1.4,0,,,,,,,,,,,,,0,72,72,24,,,,,,,,,,,1,space,3,0.486,5.0903135,,,,,,,,,,,,,,,,,,2019_Apr_11_1743,60.46519502602184,Cloud_Experiment_FR_REAL,001,36,
images/fcloud65-35_D1.3_8.tif,1.3,1,,,,,,,,,,,,,0,73,73,69,,,,,,,,,,,None,None,None,9.545,,,,,,,,,,,,,,,,,,,2019_Apr_11_1743,60.46519502602184,Cloud_Experiment_FR_REAL,001,36,
images/fcloud80-20_D0.9_10.tif,0.9,2,,,,,,,,,,,,,0,74,74,103,,,,,,,,,,,None,None,None,20.965,,,,,,,,,,,,,,,,,,,2019_Apr_11_1743,60.46519502602184,Cloud_Experiment_FR_REAL,001,36,
images/fcloud_D1.2_10.tif,1.2,0,,,,,,,,,,,,,0,75,75,19,,,,,,,,,,,3,space,4,1.951,1.80956240001,,,,,,,,,,,,,,,,,,2019_Apr_11_1743,60.46519502602184,Cloud_Experiment_FR_REAL,001,36,
images/fcloud80-20_D1.2_8.tif,1.2,2,,,,,,,,,,,,,0,76,76,113,,,,,,,,,,,1,space,3,0.484,7.4784653,,,,,,,,,,,,,,,,,,2019_Apr_11_1743,60.46519502602184,Cloud_Experiment_FR_REAL,001,36,
images/fcloud65-35_D1.5_8.tif,1.5,1,,,,,,,,,,,,,0,77,77,77,,,,,,,,,,,1,space,3,0.483,7.71204369998,,,,,,,,,,,,,,,,,,2019_Apr_11_1743,60.46519502602184,Cloud_Experiment_FR_REAL,001,36,
images/fcloud_D0.8_10.tif,0.8,0,,,,,,,,,,,,,0,78,78,3,,,,,,,,,,,3,space,4,0.635,1.11989810001,,,,,,,,,,,,,,,,,,2019_Apr_11_1743,60.46519502602184,Cloud_Experiment_FR_REAL,001,36,
images/fcloud_D0.8_8.tif,0.8,0,,,,,,,,,,,,,0,79,79,1,,,,,,,,,,,1,space,4,0.869,3.11383239998,,,,,,,,,,,,,,,,,,2019_Apr_11_1743,60.46519502602184,Cloud_Experiment_FR_REAL,001,36,
images/fcloud65-35_D1.1_8.tif,1.1,1,,,,,,,,,,,,,0,80,80,61,,,,,,,,,,,None,None,None,10.279,,,,,,,,,,,,,,,,,,,2019_Apr_11_1743,60.46519502602184,Cloud_Experiment_FR_REAL,001,36,
images/fcloud_D1.2_7.tif,1.2,0,,,,,,,,,,,,,0,81,81,16,,,,,,,,,,,1,space,3,2.267,1.33062250001,,,,,,,,,,,,,,,,,,2019_Apr_11_1743,60.46519502602184,Cloud_Experiment_FR_REAL,001,36,
images/fcloud80-20_D1.5_9.tif,1.5,2,,,,,,,,,,,,,0,82,82,126,,,,,,,,,,,1,space,3,0.519,1.83158920001,,,,,,,,,,,,,,,,,,2019_Apr_11_1743,60.46519502602184,Cloud_Experiment_FR_REAL,001,36,
images/fcloud65-35_D1.9_9.tif,1.9,1,,,,,,,,,,,,,0,83,83,94,,,,,,,,,,,1,space,4,0.419,5.63686510001,,,,,,,,,,,,,,,,,,2019_Apr_11_1743,60.46519502602184,Cloud_Experiment_FR_REAL,001,36,
images/fcloud80-20_D1.1_8.tif,1.1,2,,,,,,,,,,,,,0,84,84,109,,,,,,,,,,,None,None,None,9.327,,,,,,,,,,,,,,,,,,,2019_Apr_11_1743,60.46519502602184,Cloud_Experiment_FR_REAL,001,36,
images/fcloud_D0.9_7.tif,0.9,0,,,,,,,,,,,,,0,85,85,4,,,,,,,,,,,2,space,3,0.534,5.91977810001,,,,,,,,,,,,,,,,,,2019_Apr_11_1743,60.46519502602184,Cloud_Experiment_FR_REAL,001,36,
images/fcloud65-35_D0.8_9.tif,0.8,1,,,,,,,,,,,,,0,86,86,50,,,,,,,,,,,1,space,3,2.783,2.11202500001,,,,,,,,,,,,,,,,,,2019_Apr_11_1743,60.46519502602184,Cloud_Experiment_FR_REAL,001,36,
images/fcloud_D1.1_9.tif,1.1,0,,,,,,,,,,,,,0,87,87,14,,,,,,,,,,,2,space,2,1.0,2.56211689999,,,,,,,,,,,,,,,,,,2019_Apr_11_1743,60.46519502602184,Cloud_Experiment_FR_REAL,001,36,
images/fcloud_D1.9_7.tif,1.9,0,,,,,,,,,,,,,0,88,88,44,,,,,,,,,,,1,space,5,0.585,6.17704330001,,,,,,,,,,,,,,,,,,2019_Apr_11_1743,60.46519502602184,Cloud_Experiment_FR_REAL,001,36,
images/fcloud_D1.6_10.tif,1.6,0,,,,,,,,,,,,,0,89,89,35,,,,,,,,,,,3,space,5,0.918,3.52431830001,,,,,,,,,,,,,,,,,,2019_Apr_11_1743,60.46519502602184,Cloud_Experiment_FR_REAL,001,36,
images/fcloud80-20_D0.8_8.tif,0.8,2,,,,,,,,,,,,,0,90,90,97,,,,,,,,,,,1,space,2,0.454,6.97419539999,,,,,,,,,,,,,,,,,,2019_Apr_11_1743,60.46519502602184,Cloud_Experiment_FR_REAL,001,36,
images/fcloud65-35_D1.5_7.tif,1.5,1,,,,,,,,,,,,,0,91,91,76,,,,,,,,,,,1,space,3,0.668,7.03768879999,,,,,,,,,,,,,,,,,,2019_Apr_11_1743,60.46519502602184,Cloud_Experiment_FR_REAL,001,36,
images/fcloud80-20_D1.6_8.tif,1.6,2,,,,,,,,,,,,,0,92,92,129,,,,,,,,,,,3,space,2,3.117,5.036999,,,,,,,,,,,,,,,,,,2019_Apr_11_1743,60.46519502602184,Cloud_Experiment_FR_REAL,001,36,
images/fcloud80-20_D0.9_7.tif,0.9,2,,,,,,,,,,,,,0,93,93,100,,,,,,,,,,,None,None,None,12.207,,,,,,,,,,,,,,,,,,,2019_Apr_11_1743,60.46519502602184,Cloud_Experiment_FR_REAL,001,36,
images/fcloud80-20_D1.2_10.tif,1.2,2,,,,,,,,,,,,,0,94,94,115,,,,,,,,,,,1,space,2,1.37,7.16046849999,,,,,,,,,,,,,,,,,,2019_Apr_11_1743,60.46519502602184,Cloud_Experiment_FR_REAL,001,36,
images/fcloud80-20_D1.4_8.tif,1.4,2,,,,,,,,,,,,,0,95,95,121,,,,,,,,,,,None,space,None,10.391,2.32810319998,,,,,,,,,,,,,,,,,,2019_Apr_11_1743,60.46519502602184,Cloud_Experiment_FR_REAL,001,36,
images/fcloud80-20_D1.9_9.tif,1.9,2,,,,,,,,,,,,,0,96,96,142,,,,,,,,,,,1,space,2,0.733,6.5739628,,,,,,,,,,,,,,,,,,2019_Apr_11_1743,60.46519502602184,Cloud_Experiment_FR_REAL,001,36,
images/fcloud80-20_D1.3_9.tif,1.3,2,,,,,,,,,,,,,0,97,97,118,,,,,,,,,,,1,space,2,0.785,9.00408719998,,,,,,,,,,,,,,,,,,2019_Apr_11_1743,60.46519502602184,Cloud_Experiment_FR_REAL,001,36,
images/fcloud65-35_D0.9_8.tif,0.9,1,,,,,,,,,,,,,0,98,98,53,,,,,,,,,,,1,space,3,0.52,6.07478700002,,,,,,,,,,,,,,,,,,2019_Apr_11_1743,60.46519502602184,Cloud_Experiment_FR_REAL,001,36,
images/fcloud80-20_D1.8_8.tif,1.8,2,,,,,,,,,,,,,0,99,99,137,,,,,,,,,,,1,space,3,0.485,7.19141940001,,,,,,,,,,,,,,,,,,2019_Apr_11_1743,60.46519502602184,Cloud_Experiment_FR_REAL,001,36,
images/fcloud_D0.9_8.tif,0.9,0,,,,,,,,,,,,,0,100,100,5,,,,,,,,,,,3,space,2,0.918,1.31383689999,,,,,,,,,,,,,,,,,,2019_Apr_11_1743,60.46519502602184,Cloud_Experiment_FR_REAL,001,36,
images/fcloud65-35_D1.3_7.tif,1.3,1,,,,,,,,,,,,,0,101,101,68,,,,,,,,,,,None,None,None,10.343,,,,,,,,,,,,,,,,,,,2019_Apr_11_1743,60.46519502602184,Cloud_Experiment_FR_REAL,001,36,
images/fcloud80-20_D1.9_10.tif,1.9,2,,,,,,,,,,,,,0,102,102,143,,,,,,,,,,,1,None,3,1.951,,,,,,,,,,,,,,,,,,,2019_Apr_11_1743,60.46519502602184,Cloud_Experiment_FR_REAL,001,36,
images/fcloud80-20_D1.4_9.tif,1.4,2,,,,,,,,,,,,,0,103,103,122,,,,,,,,,,,None,None,None,11.442,,,,,,,,,,,,,,,,,,,2019_Apr_11_1743,60.46519502602184,Cloud_Experiment_FR_REAL,001,36,
images/fcloud_D1_7.tif,1.0,0,,,,,,,,,,,,,0,104,104,8,,,,,,,,,,,2,space,3,0.653,3.3431649,,,,,,,,,,,,,,,,,,2019_Apr_11_1743,60.46519502602184,Cloud_Experiment_FR_REAL,001,36,
images/fcloud65-35_D0.9_10.tif,0.9,1,,,,,,,,,,,,,0,105,105,55,,,,,,,,,,,1,space,4,0.452,4.59332120002,,,,,,,,,,,,,,,,,,2019_Apr_11_1743,60.46519502602184,Cloud_Experiment_FR_REAL,001,36,
images/fcloud65-35_D0.9_7.tif,0.9,1,,,,,,,,,,,,,0,106,106,52,,,,,,,,,,,None,None,None,9.675,,,,,,,,,,,,,,,,,,,2019_Apr_11_1743,60.46519502602184,Cloud_Experiment_FR_REAL,001,36,
images/fcloud65-35_D1.4_9.tif,1.4,1,,,,,,,,,,,,,0,107,107,74,,,,,,,,,,,1,space,4,0.551,3.61133739998,,,,,,,,,,,,,,,,,,2019_Apr_11_1743,60.46519502602184,Cloud_Experiment_FR_REAL,001,36,
images/fcloud80-20_D1.5_8.tif,1.5,2,,,,,,,,,,,,,0,108,108,125,,,,,,,,,,,None,None,None,9.658,,,,,,,,,,,,,,,,,,,2019_Apr_11_1743,60.46519502602184,Cloud_Experiment_FR_REAL,001,36,
images/fcloud80-20_D1.2_7.tif,1.2,2,,,,,,,,,,,,,0,109,109,112,,,,,,,,,,,None,None,None,18.702,,,,,,,,,,,,,,,,,,,2019_Apr_11_1743,60.46519502602184,Cloud_Experiment_FR_REAL,001,36,
images/fcloud_D1.4_10.tif,1.4,0,,,,,,,,,,,,,0,110,110,27,,,,,,,,,,,1,space,3,1.218,6.86254940002,,,,,,,,,,,,,,,,,,2019_Apr_11_1743,60.46519502602184,Cloud_Experiment_FR_REAL,001,36,
images/fcloud65-35_D1.8_8.tif,1.8,1,,,,,,,,,,,,,0,111,111,89,,,,,,,,,,,None,None,None,10.291,,,,,,,,,,,,,,,,,,,2019_Apr_11_1743,60.46519502602184,Cloud_Experiment_FR_REAL,001,36,
images/fcloud65-35_D1.6_8.tif,1.6,1,,,,,,,,,,,,,0,112,112,81,,,,,,,,,,,3,space,3,1.92,3.7778597,,,,,,,,,,,,,,,,,,2019_Apr_11_1743,60.46519502602184,Cloud_Experiment_FR_REAL,001,36,
images/fcloud65-35_D1.9_7.tif,1.9,1,,,,,,,,,,,,,0,113,113,92,,,,,,,,,,,1,space,2,0.453,3.54415930001,,,,,,,,,,,,,,,,,,2019_Apr_11_1743,60.46519502602184,Cloud_Experiment_FR_REAL,001,36,
images/fcloud65-35_D1.6_7.tif,1.6,1,,,,,,,,,,,,,0,114,114,80,,,,,,,,,,,1,space,2,0.418,4.8234505,,,,,,,,,,,,,,,,,,2019_Apr_11_1743,60.46519502602184,Cloud_Experiment_FR_REAL,001,36,
images/fcloud65-35_D1.7_10.tif,1.7,1,,,,,,,,,,,,,0,115,115,87,,,,,,,,,,,None,None,None,9.529,,,,,,,,,,,,,,,,,,,2019_Apr_11_1743,60.46519502602184,Cloud_Experiment_FR_REAL,001,36,
images/fcloud_D1_9.tif,1.0,0,,,,,,,,,,,,,0,116,116,10,,,,,,,,,,,1,space,5,0.853,3.01651399999,,,,,,,,,,,,,,,,,,2019_Apr_11_1743,60.46519502602184,Cloud_Experiment_FR_REAL,001,36,
images/fcloud80-20_D1_10.tif,1.0,2,,,,,,,,,,,,,0,117,117,107,,,,,,,,,,,1,space,3,0.818,3.7950894,,,,,,,,,,,,,,,,,,2019_Apr_11_1743,60.46519502602184,Cloud_Experiment_FR_REAL,001,36,
images/fcloud65-35_D0.8_8.tif,0.8,1,,,,,,,,,,,,,0,118,118,49,,,,,,,,,,,None,None,None,10.291,,,,,,,,,,,,,,,,,,,2019_Apr_11_1743,60.46519502602184,Cloud_Experiment_FR_REAL,001,36,
images/fcloud65-35_D1.2_8.tif,1.2,1,,,,,,,,,,,,,0,119,119,65,,,,,,,,,,,1,space,2,0.834,6.42701769999,,,,,,,,,,,,,,,,,,2019_Apr_11_1743,60.46519502602184,Cloud_Experiment_FR_REAL,001,36,
images/fcloud80-20_D1_9.tif,1.0,2,,,,,,,,,,,,,0,120,120,106,,,,,,,,,,,1,space,3,0.949,1.6327015,,,,,,,,,,,,,,,,,,2019_Apr_11_1743,60.46519502602184,Cloud_Experiment_FR_REAL,001,36,
images/fcloud_D1.6_7.tif,1.6,0,,,,,,,,,,,,,0,121,121,32,,,,,,,,,,,1,space,3,0.435,8.09301020001,,,,,,,,,,,,,,,,,,2019_Apr_11_1743,60.46519502602184,Cloud_Experiment_FR_REAL,001,36,
images/fcloud65-35_D0.9_9.tif,0.9,1,,,,,,,,,,,,,0,122,122,54,,,,,,,,,,,1,space,2,0.552,7.22482519998,,,,,,,,,,,,,,,,,,2019_Apr_11_1743,60.46519502602184,Cloud_Experiment_FR_REAL,001,36,
images/fcloud_D1.7_10.tif,1.7,0,,,,,,,,,,,,,0,123,123,39,,,,,,,,,,,None,None,None,9.61,,,,,,,,,,,,,,,,,,,2019_Apr_11_1743,60.46519502602184,Cloud_Experiment_FR_REAL,001,36,
images/fcloud80-20_D1.6_10.tif,1.6,2,,,,,,,,,,,,,0,124,124,131,,,,,,,,,,,1,space,3,0.451,2.1796035,,,,,,,,,,,,,,,,,,2019_Apr_11_1743,60.46519502602184,Cloud_Experiment_FR_REAL,001,36,
images/fcloud65-35_D1.4_10.tif,1.4,1,,,,,,,,,,,,,0,125,125,75,,,,,,,,,,,1,space,3,1.567,5.15883860001,,,,,,,,,,,,,,,,,,2019_Apr_11_1743,60.46519502602184,Cloud_Experiment_FR_REAL,001,36,
images/fcloud65-35_D1.1_7.tif,1.1,1,,,,,,,,,,,,,0,126,126,60,,,,,,,,,,,None,None,None,11.043,,,,,,,,,,,,,,,,,,,2019_Apr_11_1743,60.46519502602184,Cloud_Experiment_FR_REAL,001,36,
images/fcloud65-35_D1.7_8.tif,1.7,1,,,,,,,,,,,,,0,127,127,85,,,,,,,,,,,2,space,2,0.468,7.03331740003,,,,,,,,,,,,,,,,,,2019_Apr_11_1743,60.46519502602184,Cloud_Experiment_FR_REAL,001,36,
images/fcloud65-35_D1.8_7.tif,1.8,1,,,,,,,,,,,,,0,128,128,88,,,,,,,,,,,None,None,None,9.742,,,,,,,,,,,,,,,,,,,2019_Apr_11_1743,60.46519502602184,Cloud_Experiment_FR_REAL,001,36,
images/fcloud65-35_D1.2_7.tif,1.2,1,,,,,,,,,,,,,0,129,129,64,,,,,,,,,,,None,space,None,18.634,7.9091211,,,,,,,,,,,,,,,,,,2019_Apr_11_1743,60.46519502602184,Cloud_Experiment_FR_REAL,001,36,
images/fcloud80-20_D1.8_9.tif,1.8,2,,,,,,,,,,,,,0,130,130,138,,,,,,,,,,,1,space,4,1.269,5.2079562,,,,,,,,,,,,,,,,,,2019_Apr_11_1743,60.46519502602184,Cloud_Experiment_FR_REAL,001,36,
images/fcloud80-20_D1_7.tif,1.0,2,,,,,,,,,,,,,0,131,131,104,,,,,,,,,,,None,None,None,10.359,,,,,,,,,,,,,,,,,,,2019_Apr_11_1743,60.46519502602184,Cloud_Experiment_FR_REAL,001,36,
images/fcloud_D1.1_10.tif,1.1,0,,,,,,,,,,,,,0,132,132,15,,,,,,,,,,,3,space,4,1.05,3.95967160002,,,,,,,,,,,,,,,,,,2019_Apr_11_1743,60.46519502602184,Cloud_Experiment_FR_REAL,001,36,
images/fcloud80-20_D1.3_7.tif,1.3,2,,,,,,,,,,,,,0,133,133,116,,,,,,,,,,,None,None,None,10.229,,,,,,,,,,,,,,,,,,,2019_Apr_11_1743,60.46519502602184,Cloud_Experiment_FR_REAL,001,36,
images/fcloud80-20_D1.1_10.tif,1.1,2,,,,,,,,,,,,,0,134,134,111,,,,,,,,,,,1,space,2,0.518,8.1203865,,,,,,,,,,,,,,,,,,2019_Apr_11_1743,60.46519502602184,Cloud_Experiment_FR_REAL,001,36,
images/fcloud80-20_D1.3_8.tif,1.3,2,,,,,,,,,,,,,0,135,135,117,,,,,,,,,,,2,space,3,1.435,1.60116290001,,,,,,,,,,,,,,,,,,2019_Apr_11_1743,60.46519502602184,Cloud_Experiment_FR_REAL,001,36,
images/fcloud65-35_D1.9_10.tif,1.9,1,,,,,,,,,,,,,0,136,136,95,,,,,,,,,,,None,None,None,10.659,,,,,,,,,,,,,,,,,,,2019_Apr_11_1743,60.46519502602184,Cloud_Experiment_FR_REAL,001,36,
images/fcloud65-35_D1.6_9.tif,1.6,1,,,,,,,,,,,,,0,137,137,82,,,,,,,,,,,None,None,None,20.065,,,,,,,,,,,,,,,,,,,2019_Apr_11_1743,60.46519502602184,Cloud_Experiment_FR_REAL,001,36,
images/fcloud_D1.6_8.tif,1.6,0,,,,,,,,,,,,,0,138,138,33,,,,,,,,,,,1,space,3,0.768,7.8429966,,,,,,,,,,,,,,,,,,2019_Apr_11_1743,60.46519502602184,Cloud_Experiment_FR_REAL,001,36,
images/fcloud65-35_D1.8_10.tif,1.8,1,,,,,,,,,,,,,0,139,139,91,,,,,,,,,,,1,space,4,0.536,3.29148270001,,,,,,,,,,,,,,,,,,2019_Apr_11_1743,60.46519502602184,Cloud_Experiment_FR_REAL,001,36,
images/fcloud_D1.3_7.tif,1.3,0,,,,,,,,,,,,,0,140,140,20,,,,,,,,,,,1,space,4,0.556,2.80619640002,,,,,,,,,,,,,,,,,,2019_Apr_11_1743,60.46519502602184,Cloud_Experiment_FR_REAL,001,36,
images/fcloud65-35_D1.4_8.tif,1.4,1,,,,,,,,,,,,,0,141,141,73,,,,,,,,,,,None,None,None,9.259,,,,,,,,,,,,,,,,,,,2019_Apr_11_1743,60.46519502602184,Cloud_Experiment_FR_REAL,001,36,
images/fcloud65-35_D1.7_9.tif,1.7,1,,,,,,,,,,,,,0,142,142,86,,,,,,,,,,,None,None,None,18.484,,,,,,,,,,,,,,,,,,,2019_Apr_11_1743,60.46519502602184,Cloud_Experiment_FR_REAL,001,36,
images/fcloud_D1_10.tif,1.0,0,,,,,,,,,,,,,0,143,143,11,,,,,,,,,,,1,space,4,1.001,3.3939662,,,,,,,,,,,,,,,,,,2019_Apr_11_1743,60.46519502602184,Cloud_Experiment_FR_REAL,001,36,
,,,,,,,,,,,,,,,,,,,,,,,,,6,17.027,,,,,,,,,,,,,,,,,,,,,,,,,2019_Apr_11_1743,60.46519502602184,Cloud_Experiment_FR_REAL,001,36,
,,,,,,,,,,,,,,,,,,,,,,,,,,,,,,,,,,7,,,,,,,,,,,,,,,,,2019_Apr_11_1743,60.46519502602184,Cloud_Experiment_FR_REAL,001,36,
,,,,,,,,,,,,,,,,,,,,,,,,,,,,,,,,,,,7,,,,,,,,,,,,,,,,2019_Apr_11_1743,60.46519502602184,Cloud_Experiment_FR_REAL,001,36,
,,,,,,,,,,,,,,,,,,,,,,,,,,,,,,,,,,,,7,,,,,,,,,,,,,,,2019_Apr_11_1743,60.46519502602184,Cloud_Experiment_FR_REAL,001,36,
,,,,,,,,,,,,,,,,,,,,,,,,,,,,,,,,,,,,,7,,,,,,,,,,,,,,2019_Apr_11_1743,60.46519502602184,Cloud_Experiment_FR_REAL,001,36,
,,,,,,,,,,,,,,,,,,,,,,,,,,,,,,,,,,,,,,7,,,,,,,,,,,,,2019_Apr_11_1743,60.46519502602184,Cloud_Experiment_FR_REAL,001,36,
,,,,,,,,,,,,,,,,,,,,,,,,,,,,,,,,,,,,,,,7,,,,,,,,,,,,2019_Apr_11_1743,60.46519502602184,Cloud_Experiment_FR_REAL,001,36,
,,,,,,,,,,,,,,,,,,,,,,,,,,,,,,,,,,,,,,,,6,,,,,,,,,,,2019_Apr_11_1743,60.46519502602184,Cloud_Experiment_FR_REAL,001,36,
,,,,,,,,,,,,,,,,,,,,,,,,,,,,,,,,,,,,,,,,,5,,,,,,,,,,2019_Apr_11_1743,60.46519502602184,Cloud_Experiment_FR_REAL,001,36,
,,,,,,,,,,,,,,,,,,,,,,,,,,,,,,,,,,,,,,,,,,6,,,,,,,,,2019_Apr_11_1743,60.46519502602184,Cloud_Experiment_FR_REAL,001,36,
,,,,,,,,,,,,,,,,,,,,,,,,,,,,,,,,,,,,,,,,,,,7,,,,,,,,2019_Apr_11_1743,60.46519502602184,Cloud_Experiment_FR_REAL,001,36,
,,,,,,,,,,,,,,,,,,,,,,,,,,,,,,,,,,,,,,,,,,,,,,,,,,3,2019_Apr_11_1743,60.46519502602184,Cloud_Experiment_FR_REAL,001,36,
