ImageFile,FD,Contrast,trials_4.thisRepN,trials_4.thisTrialN,trials_4.thisN,trials_4.thisIndex,trials.thisRepN,trials.thisTrialN,trials.thisN,trials.thisIndex,trials_2.thisRepN,trials_2.thisTrialN,trials_2.thisN,trials_2.thisIndex,trials_3.thisRepN,trials_3.thisTrialN,trials_3.thisN,trials_3.thisIndex,end_instructions.keys,end_instructions.rt,key_resp_4.keys,key_resp_4.rt,key_resp_6.keys,key_resp_6.rt,Fatigue.response,Fatigue.rt,key_resp_5.keys,key_resp_5.rt,n_objets.response,reaction_time.keys,vividness.response,vividness.rt,reaction_time.rt,Flow01.response,Flow02.response,Flow03.response,Flow04.response,Flow05.response,Flow06.response,Flow07.response,Flow08.response,Flow09.response,Flow10.response,key_resp_2.keys,key_resp_2.rt,key_resp_8.keys,key_resp_8.rt,key_resp_3.keys,key_resp_3.rt,Redondance,date,frameRate,expName,session,participant
,,,,,,,,,,,,,,,,,,,space,31.7187738,,,,,,,,,,,,,,,,,,,,,,,,,,,,,,,2019_Apr_12_1610,60.45872452,Cloud_Experiment_FR_REAL,1,37
,,,,,,,,,,,,,,,,,,,,,space,20.0479005,,,,,,,,,,,,,,,,,,,,,,,,,,,,,2019_Apr_12_1610,60.45872452,Cloud_Experiment_FR_REAL,1,37
,,,,,,,,,,,,,,,,,,,,,,,space,8.9433246,,,,,,,,,,,,,,,,,,,,,,,,,,,2019_Apr_12_1610,60.45872452,Cloud_Experiment_FR_REAL,1,37
,,,,,,,,,,,,,,,,,,,,,,,,,1,129.421,,,,,,,,,,,,,,,,,,,,,,,,,2019_Apr_12_1610,60.45872452,Cloud_Experiment_FR_REAL,1,37
,,,,,,,,,,,,,,,,,,,,,,,,,,,space,8.3940898,,,,,,,,,,,,,,,,,,,,,,,2019_Apr_12_1610,60.45872452,Cloud_Experiment_FR_REAL,1,37
pratique/fcloud_D1.6_28,1.6,0,0,0,0,5,,,,,,,,,,,,,,,,,,,,,,,1,None,5,16.455,,,,,,,,,,,,,,,,,,,2019_Apr_12_1610,60.45872452,Cloud_Experiment_FR_REAL,1,37
pratique/fcloud_D0.8_30,0.8,0,0,1,1,0,,,,,,,,,,,,,,,,,,,,,,,1,None,3,7.098,,,,,,,,,,,,,,,,,,,2019_Apr_12_1610,60.45872452,Cloud_Experiment_FR_REAL,1,37
pratique/fcloud65-35_D1.6_30,1.6,1,0,2,2,2,,,,,,,,,,,,,,,,,,,,,,,1,None,1,5.216,,,,,,,,,,,,,,,,,,,2019_Apr_12_1610,60.45872452,Cloud_Experiment_FR_REAL,1,37
pratique/fcloud80-20_D1.8_30,1.8,2,0,3,3,4,,,,,,,,,,,,,,,,,,,,,,,1,None,1,2.083,,,,,,,,,,,,,,,,,,,2019_Apr_12_1610,60.45872452,Cloud_Experiment_FR_REAL,1,37
pratique/fcloud65-35_D1.9_29,1.9,1,0,4,4,7,,,,,,,,,,,,,,,,,,,,,,,1,None,1,3.664,,,,,,,,,,,,,,,,,,,2019_Apr_12_1610,60.45872452,Cloud_Experiment_FR_REAL,1,37
pratique/fcloud80-20_D1_30,1,2,0,5,5,9,,,,,,,,,,,,,,,,,,,,,,,1,space,3,2.683,4.1432901,,,,,,,,,,,,,,,,,,2019_Apr_12_1610,60.45872452,Cloud_Experiment_FR_REAL,1,37
pratique/fcloud65-35_D1.2_30,1.2,1,0,6,6,3,,,,,,,,,,,,,,,,,,,,,,,None,None,None,12.639,,,,,,,,,,,,,,,,,,,2019_Apr_12_1610,60.45872452,Cloud_Experiment_FR_REAL,1,37
pratique/fcloud80-20_D1.5_30,1.5,2,0,7,7,8,,,,,,,,,,,,,,,,,,,,,,,1,None,1,3.515,,,,,,,,,,,,,,,,,,,2019_Apr_12_1610,60.45872452,Cloud_Experiment_FR_REAL,1,37
pratique/fcloud_D1.4_30,1.4,0,0,8,8,1,,,,,,,,,,,,,,,,,,,,,,,None,None,None,14.34,,,,,,,,,,,,,,,,,,,2019_Apr_12_1610,60.45872452,Cloud_Experiment_FR_REAL,1,37
pratique/fcloud65-35_D1.3_30,1.3,1,0,9,9,6,,,,,,,,,,,,,,,,,,,,,,,None,None,None,23.715,,,,,,,,,,,,,,,,,,,2019_Apr_12_1610,60.45872452,Cloud_Experiment_FR_REAL,1,37
,,,,,,,,,,,,,,,,,,,,,,,,,,,,,,,,,,5,,,,,,,,,,,,,,,,,2019_Apr_12_1610,60.45872452,Cloud_Experiment_FR_REAL,1,37
,,,,,,,,,,,,,,,,,,,,,,,,,,,,,,,,,,,5,,,,,,,,,,,,,,,,2019_Apr_12_1610,60.45872452,Cloud_Experiment_FR_REAL,1,37
,,,,,,,,,,,,,,,,,,,,,,,,,,,,,,,,,,,,3,,,,,,,,,,,,,,,2019_Apr_12_1610,60.45872452,Cloud_Experiment_FR_REAL,1,37
,,,,,,,,,,,,,,,,,,,,,,,,,,,,,,,,,,,,,3,,,,,,,,,,,,,,2019_Apr_12_1610,60.45872452,Cloud_Experiment_FR_REAL,1,37
,,,,,,,,,,,,,,,,,,,,,,,,,,,,,,,,,,,,,,3,,,,,,,,,,,,,2019_Apr_12_1610,60.45872452,Cloud_Experiment_FR_REAL,1,37
,,,,,,,,,,,,,,,,,,,,,,,,,,,,,,,,,,,,,,,5,,,,,,,,,,,,2019_Apr_12_1610,60.45872452,Cloud_Experiment_FR_REAL,1,37
,,,,,,,,,,,,,,,,,,,,,,,,,,,,,,,,,,,,,,,,4,,,,,,,,,,,2019_Apr_12_1610,60.45872452,Cloud_Experiment_FR_REAL,1,37
,,,,,,,,,,,,,,,,,,,,,,,,,,,,,,,,,,,,,,,,,5,,,,,,,,,,2019_Apr_12_1610,60.45872452,Cloud_Experiment_FR_REAL,1,37
,,,,,,,,,,,,,,,,,,,,,,,,,,,,,,,,,,,,,,,,,,7,,,,,,,,,2019_Apr_12_1610,60.45872452,Cloud_Experiment_FR_REAL,1,37
,,,,,,,,,,,,,,,,,,,,,,,,,,,,,,,,,,,,,,,,,,,4,,,,,,,,2019_Apr_12_1610,60.45872452,Cloud_Experiment_FR_REAL,1,37
,,,,,,,,,,,,,,,,,,,,,,,,,,,,,,,,,,,,,,,,,,,,space,1.1659692,,,,,,2019_Apr_12_1610,60.45872452,Cloud_Experiment_FR_REAL,1,37
images/fcloud_D1.9_1.tif,1.9,0,,,,,0,0,0,33,,,,,,,,,,,,,,,,,,,None,None,None,136.133,,,,,,,,,,,,,,,,,,,2019_Apr_12_1610,60.45872452,Cloud_Experiment_FR_REAL,1,37
images/fcloud80-20_D1_2.tif,1,2,,,,,0,1,1,79,,,,,,,,,,,,,,,,,,,None,None,None,145.857,,,,,,,,,,,,,,,,,,,2019_Apr_12_1610,60.45872452,Cloud_Experiment_FR_REAL,1,37
images/fcloud_D0.9_2.tif,0.9,0,,,,,0,2,2,4,,,,,,,,,,,,,,,,,,,2,space,4,4.282,5.2551647,,,,,,,,,,,,,,,,,,2019_Apr_12_1610,60.45872452,Cloud_Experiment_FR_REAL,1,37
images/fcloud65-35_D1.5_2.tif,1.5,1,,,,,0,3,3,58,,,,,,,,,,,,,,,,,,,None,None,None,13.721,,,,,,,,,,,,,,,,,,,2019_Apr_12_1610,60.45872452,Cloud_Experiment_FR_REAL,1,37
images/fcloud65-35_D1.5_3.tif,1.5,1,,,,,0,4,4,59,,,,,,,,,,,,,,,,,,,None,None,None,23.312,,,,,,,,,,,,,,,,,,,2019_Apr_12_1610,60.45872452,Cloud_Experiment_FR_REAL,1,37
images/fcloud80-20_D1.8_1.tif,1.8,2,,,,,0,5,5,102,,,,,,,,,,,,,,,,,,,1,space,3,3.066,4.5749329,,,,,,,,,,,,,,,,,,2019_Apr_12_1610,60.45872452,Cloud_Experiment_FR_REAL,1,37
images/fcloud65-35_D1_2.tif,1,1,,,,,0,6,6,43,,,,,,,,,,,,,,,,,,,None,None,None,11.974,,,,,,,,,,,,,,,,,,,2019_Apr_12_1610,60.45872452,Cloud_Experiment_FR_REAL,1,37
images/fcloud65-35_D1.6_2.tif,1.6,1,,,,,0,7,7,61,,,,,,,,,,,,,,,,,,,None,None,None,28.162,,,,,,,,,,,,,,,,,,,2019_Apr_12_1610,60.45872452,Cloud_Experiment_FR_REAL,1,37
images/fcloud65-35_D1.6_3.tif,1.6,1,,,,,0,8,8,62,,,,,,,,,,,,,,,,,,,1,space,3,2.234,11.1924997,,,,,,,,,,,,,,,,,,2019_Apr_12_1610,60.45872452,Cloud_Experiment_FR_REAL,1,37
images/fcloud_D1.3_2.tif,1.3,0,,,,,0,9,9,16,,,,,,,,,,,,,,,,,,,2,space,3,2.167,5.6448878,,,,,,,,,,,,,,,,,,2019_Apr_12_1610,60.45872452,Cloud_Experiment_FR_REAL,1,37
images/fcloud80-20_D1_3.tif,1,2,,,,,0,10,10,80,,,,,,,,,,,,,,,,,,,1,None,5,2,,,,,,,,,,,,,,,,,,,2019_Apr_12_1610,60.45872452,Cloud_Experiment_FR_REAL,1,37
images/fcloud80-20_D1.1_2.tif,1.1,2,,,,,0,11,11,82,,,,,,,,,,,,,,,,,,,1,None,5,2.334,,,,,,,,,,,,,,,,,,,2019_Apr_12_1610,60.45872452,Cloud_Experiment_FR_REAL,1,37
images/fcloud80-20_D1.3_2.tif,1.3,2,,,,,0,12,12,88,,,,,,,,,,,,,,,,,,,None,None,None,11.923,,,,,,,,,,,,,,,,,,,2019_Apr_12_1610,60.45872452,Cloud_Experiment_FR_REAL,1,37
images/fcloud80-20_D1.4_1.tif,1.4,2,,,,,0,13,13,90,,,,,,,,,,,,,,,,,,,1,space,4,2.719,5.5220269,,,,,,,,,,,,,,,,,,2019_Apr_12_1610,60.45872452,Cloud_Experiment_FR_REAL,1,37
images/fcloud_D0.8_1.tif,0.8,0,,,,,0,14,14,0,,,,,,,,,,,,,,,,,,,1,None,4,3.615,,,,,,,,,,,,,,,,,,,2019_Apr_12_1610,60.45872452,Cloud_Experiment_FR_REAL,1,37
images/fcloud_D1.2_2.tif,1.2,0,,,,,0,15,15,13,,,,,,,,,,,,,,,,,,,1,space,4,2.316,6.1400047,,,,,,,,,,,,,,,,,,2019_Apr_12_1610,60.45872452,Cloud_Experiment_FR_REAL,1,37
images/fcloud80-20_D1.1_1.tif,1.1,2,,,,,0,16,16,81,,,,,,,,,,,,,,,,,,,None,None,None,11.61,,,,,,,,,,,,,,,,,,,2019_Apr_12_1610,60.45872452,Cloud_Experiment_FR_REAL,1,37
images/fcloud80-20_D1.7_1.tif,1.7,2,,,,,0,17,17,99,,,,,,,,,,,,,,,,,,,1,space,5,1.785,4.5218746,,,,,,,,,,,,,,,,,,2019_Apr_12_1610,60.45872452,Cloud_Experiment_FR_REAL,1,37
images/fcloud65-35_D1.1_2.tif,1.1,1,,,,,0,18,18,46,,,,,,,,,,,,,,,,,,,1,space,4,1.422,5.7589484,,,,,,,,,,,,,,,,,,2019_Apr_12_1610,60.45872452,Cloud_Experiment_FR_REAL,1,37
images/fcloud_D1.2_3.tif,1.2,0,,,,,0,19,19,14,,,,,,,,,,,,,,,,,,,1,space,3,1.269,5.667495,,,,,,,,,,,,,,,,,,2019_Apr_12_1610,60.45872452,Cloud_Experiment_FR_REAL,1,37
images/fcloud_D1.7_3.tif,1.7,0,,,,,0,20,20,29,,,,,,,,,,,,,,,,,,,1,space,1,2.267,7.7072399,,,,,,,,,,,,,,,,,,2019_Apr_12_1610,60.45872452,Cloud_Experiment_FR_REAL,1,37
images/fcloud80-20_D0.8_1.tif,0.8,2,,,,,0,21,21,72,,,,,,,,,,,,,,,,,,,1,space,5,1.702,2.9577126,,,,,,,,,,,,,,,,,,2019_Apr_12_1610,60.45872452,Cloud_Experiment_FR_REAL,1,37
images/fcloud80-20_D1.8_2.tif,1.8,2,,,,,0,22,22,103,,,,,,,,,,,,,,,,,,,1,space,3,2.384,6.3407925,,,,,,,,,,,,,,,,,,2019_Apr_12_1610,60.45872452,Cloud_Experiment_FR_REAL,1,37
images/fcloud80-20_D0.8_3.tif,0.8,2,,,,,0,23,23,74,,,,,,,,,,,,,,,,,,,1,None,1,8.064,,,,,,,,,,,,,,,,,,,2019_Apr_12_1610,60.45872452,Cloud_Experiment_FR_REAL,1,37
images/fcloud_D1.7_1.tif,1.7,0,,,,,0,24,24,27,,,,,,,,,,,,,,,,,,,3,space,2,2.45,3.4054633,,,,,,,,,,,,,,,,,,2019_Apr_12_1610,60.45872452,Cloud_Experiment_FR_REAL,1,37
images/fcloud_D1.9_3.tif,1.9,0,,,,,0,25,25,35,,,,,,,,,,,,,,,,,,,1,None,1,1.602,,,,,,,,,,,,,,,,,,,2019_Apr_12_1610,60.45872452,Cloud_Experiment_FR_REAL,1,37
images/fcloud80-20_D0.8_2.tif,0.8,2,,,,,0,26,26,73,,,,,,,,,,,,,,,,,,,1,space,1,3.617,5.7193253,,,,,,,,,,,,,,,,,,2019_Apr_12_1610,60.45872452,Cloud_Experiment_FR_REAL,1,37
images/fcloud80-20_D1_1.tif,1,2,,,,,0,27,27,78,,,,,,,,,,,,,,,,,,,1,space,1,1.402,7.0397821,,,,,,,,,,,,,,,,,,2019_Apr_12_1610,60.45872452,Cloud_Experiment_FR_REAL,1,37
images/fcloud80-20_D1.5_2.tif,1.5,2,,,,,0,28,28,94,,,,,,,,,,,,,,,,,,,None,None,None,10.924,,,,,,,,,,,,,,,,,,,2019_Apr_12_1610,60.45872452,Cloud_Experiment_FR_REAL,1,37
images/fcloud_D1_1.tif,1,0,,,,,0,29,29,6,,,,,,,,,,,,,,,,,,,None,None,None,20.219,,,,,,,,,,,,,,,,,,,2019_Apr_12_1610,60.45872452,Cloud_Experiment_FR_REAL,1,37
images/fcloud80-20_D1.4_2.tif,1.4,2,,,,,0,30,30,91,,,,,,,,,,,,,,,,,,,None,None,None,29.375,,,,,,,,,,,,,,,,,,,2019_Apr_12_1610,60.45872452,Cloud_Experiment_FR_REAL,1,37
images/fcloud_D1.8_3.tif,1.8,0,,,,,0,31,31,32,,,,,,,,,,,,,,,,,,,None,None,None,38.438,,,,,,,,,,,,,,,,,,,2019_Apr_12_1610,60.45872452,Cloud_Experiment_FR_REAL,1,37
images/fcloud_D1.2_1.tif,1.2,0,,,,,0,32,32,12,,,,,,,,,,,,,,,,,,,2,space,1,1.368,2.532326,,,,,,,,,,,,,,,,,,2019_Apr_12_1610,60.45872452,Cloud_Experiment_FR_REAL,1,37
images/fcloud_D1_2.tif,1,0,,,,,0,33,33,7,,,,,,,,,,,,,,,,,,,2,space,3,2.45,2.641617,,,,,,,,,,,,,,,,,,2019_Apr_12_1610,60.45872452,Cloud_Experiment_FR_REAL,1,37
images/fcloud65-35_D0.9_3.tif,0.9,1,,,,,0,34,34,41,,,,,,,,,,,,,,,,,,,1,space,5,1.484,1.7465914,,,,,,,,,,,,,,,,,,2019_Apr_12_1610,60.45872452,Cloud_Experiment_FR_REAL,1,37
images/fcloud65-35_D1.3_3.tif,1.3,1,,,,,0,35,35,53,,,,,,,,,,,,,,,,,,,2,space,5,1.284,4.3860206,,,,,,,,,,,,,,,,,,2019_Apr_12_1610,60.45872452,Cloud_Experiment_FR_REAL,1,37
images/fcloud_D0.9_3.tif,0.9,0,,,,,0,36,36,5,,,,,,,,,,,,,,,,,,,1,space,5,1.135,4.0400897,,,,,,,,,,,,,,,,,,2019_Apr_12_1610,60.45872452,Cloud_Experiment_FR_REAL,1,37
images/fcloud_D1.6_2.tif,1.6,0,,,,,0,37,37,25,,,,,,,,,,,,,,,,,,,1,space,5,1.119,4.2254707,,,,,,,,,,,,,,,,,,2019_Apr_12_1610,60.45872452,Cloud_Experiment_FR_REAL,1,37
images/fcloud80-20_D1.7_3.tif,1.7,2,,,,,0,38,38,101,,,,,,,,,,,,,,,,,,,None,None,None,10.693,,,,,,,,,,,,,,,,,,,2019_Apr_12_1610,60.45872452,Cloud_Experiment_FR_REAL,1,37
images/fcloud65-35_D1.6_1.tif,1.6,1,,,,,0,39,39,60,,,,,,,,,,,,,,,,,,,2,space,4,1.318,4.3360316,,,,,,,,,,,,,,,,,,2019_Apr_12_1610,60.45872452,Cloud_Experiment_FR_REAL,1,37
images/fcloud_D1.4_2.tif,1.4,0,,,,,0,40,40,19,,,,,,,,,,,,,,,,,,,1,space,2,1.717,5.684411,,,,,,,,,,,,,,,,,,2019_Apr_12_1610,60.45872452,Cloud_Experiment_FR_REAL,1,37
images/fcloud_D1.3_1.tif,1.3,0,,,,,0,41,41,15,,,,,,,,,,,,,,,,,,,3,space,5,2.4,2.7108933,,,,,,,,,,,,,,,,,,2019_Apr_12_1610,60.45872452,Cloud_Experiment_FR_REAL,1,37
images/fcloud80-20_D1.9_2.tif,1.9,2,,,,,0,42,42,106,,,,,,,,,,,,,,,,,,,None,None,None,11.39,,,,,,,,,,,,,,,,,,,2019_Apr_12_1610,60.45872452,Cloud_Experiment_FR_REAL,1,37
images/fcloud_D1_3.tif,1,0,,,,,0,43,43,8,,,,,,,,,,,,,,,,,,,1,space,5,1.32,1.5918603,,,,,,,,,,,,,,,,,,2019_Apr_12_1610,60.45872452,Cloud_Experiment_FR_REAL,1,37
images/fcloud80-20_D0.9_3.tif,0.9,2,,,,,0,44,44,77,,,,,,,,,,,,,,,,,,,1,space,4,1.201,5.4114538,,,,,,,,,,,,,,,,,,2019_Apr_12_1610,60.45872452,Cloud_Experiment_FR_REAL,1,37
images/fcloud80-20_D1.9_3.tif,1.9,2,,,,,0,45,45,107,,,,,,,,,,,,,,,,,,,None,None,None,10.757,,,,,,,,,,,,,,,,,,,2019_Apr_12_1610,60.45872452,Cloud_Experiment_FR_REAL,1,37
images/fcloud80-20_D1.8_3.tif,1.8,2,,,,,0,46,46,104,,,,,,,,,,,,,,,,,,,None,None,None,19.852,,,,,,,,,,,,,,,,,,,2019_Apr_12_1610,60.45872452,Cloud_Experiment_FR_REAL,1,37
images/fcloud_D1.6_1.tif,1.6,0,,,,,0,47,47,24,,,,,,,,,,,,,,,,,,,2,space,4,2.216,5.6030809,,,,,,,,,,,,,,,,,,2019_Apr_12_1610,60.45872452,Cloud_Experiment_FR_REAL,1,37
images/fcloud80-20_D1.1_3.tif,1.1,2,,,,,0,48,48,83,,,,,,,,,,,,,,,,,,,1,space,5,2.067,2.7061953,,,,,,,,,,,,,,,,,,2019_Apr_12_1610,60.45872452,Cloud_Experiment_FR_REAL,1,37
images/fcloud_D0.8_3.tif,0.8,0,,,,,0,49,49,2,,,,,,,,,,,,,,,,,,,1,space,3,1.636,5.3728471,,,,,,,,,,,,,,,,,,2019_Apr_12_1610,60.45872452,Cloud_Experiment_FR_REAL,1,37
images/fcloud65-35_D1.2_1.tif,1.2,1,,,,,0,50,50,48,,,,,,,,,,,,,,,,,,,None,None,None,11.024,,,,,,,,,,,,,,,,,,,2019_Apr_12_1610,60.45872452,Cloud_Experiment_FR_REAL,1,37
images/fcloud65-35_D1.7_3.tif,1.7,1,,,,,0,51,51,65,,,,,,,,,,,,,,,,,,,2,space,3,1.417,4.6035364,,,,,,,,,,,,,,,,,,2019_Apr_12_1610,60.45872452,Cloud_Experiment_FR_REAL,1,37
images/fcloud80-20_D0.9_2.tif,0.9,2,,,,,0,52,52,76,,,,,,,,,,,,,,,,,,,1,space,5,2.564,3.72131,,,,,,,,,,,,,,,,,,2019_Apr_12_1610,60.45872452,Cloud_Experiment_FR_REAL,1,37
images/fcloud_D1.3_3.tif,1.3,0,,,,,0,53,53,17,,,,,,,,,,,,,,,,,,,3,space,5,1.267,3.4781122,,,,,,,,,,,,,,,,,,2019_Apr_12_1610,60.45872452,Cloud_Experiment_FR_REAL,1,37
images/fcloud65-35_D1.2_3.tif,1.2,1,,,,,0,54,54,50,,,,,,,,,,,,,,,,,,,1,space,5,2.433,1.8579807,,,,,,,,,,,,,,,,,,2019_Apr_12_1610,60.45872452,Cloud_Experiment_FR_REAL,1,37
images/fcloud80-20_D1.3_3.tif,1.3,2,,,,,0,55,55,89,,,,,,,,,,,,,,,,,,,3,space,3,2.617,3.3574604,,,,,,,,,,,,,,,,,,2019_Apr_12_1610,60.45872452,Cloud_Experiment_FR_REAL,1,37
images/fcloud_D1.1_3.tif,1.1,0,,,,,0,56,56,11,,,,,,,,,,,,,,,,,,,1,space,3,1.502,4.5392322,,,,,,,,,,,,,,,,,,2019_Apr_12_1610,60.45872452,Cloud_Experiment_FR_REAL,1,37
images/fcloud80-20_D1.5_1.tif,1.5,2,,,,,0,57,57,93,,,,,,,,,,,,,,,,,,,None,None,None,10.874,,,,,,,,,,,,,,,,,,,2019_Apr_12_1610,60.45872452,Cloud_Experiment_FR_REAL,1,37
images/fcloud_D0.8_2.tif,0.8,0,,,,,0,58,58,1,,,,,,,,,,,,,,,,,,,1,space,1,3.433,1.5965905,,,,,,,,,,,,,,,,,,2019_Apr_12_1610,60.45872452,Cloud_Experiment_FR_REAL,1,37
images/fcloud65-35_D1.9_2.tif,1.9,1,,,,,0,59,59,70,,,,,,,,,,,,,,,,,,,2,space,3,1.472,1.6589743,,,,,,,,,,,,,,,,,,2019_Apr_12_1610,60.45872452,Cloud_Experiment_FR_REAL,1,37
images/fcloud_D1.5_2.tif,1.5,0,,,,,0,60,60,22,,,,,,,,,,,,,,,,,,,2,space,5,2.549,1.535817,,,,,,,,,,,,,,,,,,2019_Apr_12_1610,60.45872452,Cloud_Experiment_FR_REAL,1,37
images/fcloud65-35_D1.4_3.tif,1.4,1,,,,,0,61,61,56,,,,,,,,,,,,,,,,,,,2,space,4,2.584,2.1714816,,,,,,,,,,,,,,,,,,2019_Apr_12_1610,60.45872452,Cloud_Experiment_FR_REAL,1,37
images/fcloud80-20_D1.4_3.tif,1.4,2,,,,,0,62,62,92,,,,,,,,,,,,,,,,,,,None,None,None,11.676,,,,,,,,,,,,,,,,,,,2019_Apr_12_1610,60.45872452,Cloud_Experiment_FR_REAL,1,37
images/fcloud_D1.5_3.tif,1.5,0,,,,,0,63,63,23,,,,,,,,,,,,,,,,,,,4,space,4,2.75,4.4729625,,,,,,,,,,,,,,,,,,2019_Apr_12_1610,60.45872452,Cloud_Experiment_FR_REAL,1,37
images/fcloud80-20_D1.2_1.tif,1.2,2,,,,,0,64,64,84,,,,,,,,,,,,,,,,,,,2,space,3,4.499,3.4248831,,,,,,,,,,,,,,,,,,2019_Apr_12_1610,60.45872452,Cloud_Experiment_FR_REAL,1,37
images/fcloud65-35_D1.5_1.tif,1.5,1,,,,,0,65,65,57,,,,,,,,,,,,,,,,,,,3,space,4,5.598,4.4862317,,,,,,,,,,,,,,,,,,2019_Apr_12_1610,60.45872452,Cloud_Experiment_FR_REAL,1,37
images/fcloud65-35_D1_1.tif,1,1,,,,,0,66,66,42,,,,,,,,,,,,,,,,,,,2,space,4,2.253,2.4448878,,,,,,,,,,,,,,,,,,2019_Apr_12_1610,60.45872452,Cloud_Experiment_FR_REAL,1,37
images/fcloud65-35_D1.4_2.tif,1.4,1,,,,,0,67,67,55,,,,,,,,,,,,,,,,,,,4,space,4,2.168,1.7617986,,,,,,,,,,,,,,,,,,2019_Apr_12_1610,60.45872452,Cloud_Experiment_FR_REAL,1,37
images/fcloud80-20_D1.2_2.tif,1.2,2,,,,,0,68,68,85,,,,,,,,,,,,,,,,,,,None,None,None,12.959,,,,,,,,,,,,,,,,,,,2019_Apr_12_1610,60.45872452,Cloud_Experiment_FR_REAL,1,37
images/fcloud80-20_D1.7_2.tif,1.7,2,,,,,0,69,69,100,,,,,,,,,,,,,,,,,,,1,space,5,1.304,3.9882332,,,,,,,,,,,,,,,,,,2019_Apr_12_1610,60.45872452,Cloud_Experiment_FR_REAL,1,37
images/fcloud_D1.7_2.tif,1.7,0,,,,,0,70,70,28,,,,,,,,,,,,,,,,,,,2,space,4,1.368,4.1076781,,,,,,,,,,,,,,,,,,2019_Apr_12_1610,60.45872452,Cloud_Experiment_FR_REAL,1,37
images/fcloud_D1.1_2.tif,1.1,0,,,,,0,71,71,10,,,,,,,,,,,,,,,,,,,1,space,5,1.236,7.3889491,,,,,,,,,,,,,,,,,,2019_Apr_12_1610,60.45872452,Cloud_Experiment_FR_REAL,1,37
images/fcloud80-20_D1.6_3.tif,1.6,2,,,,,0,72,72,98,,,,,,,,,,,,,,,,,,,4,space,4,2.934,2.0582114,,,,,,,,,,,,,,,,,,2019_Apr_12_1610,60.45872452,Cloud_Experiment_FR_REAL,1,37
images/fcloud65-35_D1.1_3.tif,1.1,1,,,,,0,73,73,47,,,,,,,,,,,,,,,,,,,3,space,5,01.05,1.8080676,,,,,,,,,,,,,,,,,,2019_Apr_12_1610,60.45872452,Cloud_Experiment_FR_REAL,1,37
images/fcloud_D1.9_2.tif,1.9,0,,,,,0,74,74,34,,,,,,,,,,,,,,,,,,,2,space,5,1.085,6.1404418,,,,,,,,,,,,,,,,,,2019_Apr_12_1610,60.45872452,Cloud_Experiment_FR_REAL,1,37
images/fcloud_D0.9_1.tif,0.9,0,,,,,0,75,75,3,,,,,,,,,,,,,,,,,,,2,space,5,2.4,2.3780499,,,,,,,,,,,,,,,,,,2019_Apr_12_1610,60.45872452,Cloud_Experiment_FR_REAL,1,37
images/fcloud65-35_D0.9_1.tif,0.9,1,,,,,0,76,76,39,,,,,,,,,,,,,,,,,,,2,space,4,1.335,1.9243984,,,,,,,,,,,,,,,,,,2019_Apr_12_1610,60.45872452,Cloud_Experiment_FR_REAL,1,37
images/fcloud80-20_D1.2_3.tif,1.2,2,,,,,0,77,77,86,,,,,,,,,,,,,,,,,,,2,space,4,2.183,4.5639417,,,,,,,,,,,,,,,,,,2019_Apr_12_1610,60.45872452,Cloud_Experiment_FR_REAL,1,37
images/fcloud65-35_D1.7_1.tif,1.7,1,,,,,0,78,78,63,,,,,,,,,,,,,,,,,,,1,space,3,2.502,4.4210822,,,,,,,,,,,,,,,,,,2019_Apr_12_1610,60.45872452,Cloud_Experiment_FR_REAL,1,37
images/fcloud65-35_D1.9_3.tif,1.9,1,,,,,0,79,79,71,,,,,,,,,,,,,,,,,,,None,None,None,12.04,,,,,,,,,,,,,,,,,,,2019_Apr_12_1610,60.45872452,Cloud_Experiment_FR_REAL,1,37
images/fcloud80-20_D1.6_1.tif,1.6,2,,,,,0,80,80,96,,,,,,,,,,,,,,,,,,,None,None,None,21.098,,,,,,,,,,,,,,,,,,,2019_Apr_12_1610,60.45872452,Cloud_Experiment_FR_REAL,1,37
images/fcloud65-35_D1.8_1.tif,1.8,1,,,,,0,81,81,66,,,,,,,,,,,,,,,,,,,1,space,5,1.187,2.9565745,,,,,,,,,,,,,,,,,,2019_Apr_12_1610,60.45872452,Cloud_Experiment_FR_REAL,1,37
images/fcloud80-20_D1.5_3.tif,1.5,2,,,,,0,82,82,95,,,,,,,,,,,,,,,,,,,1,space,3,2.517,7.2192613,,,,,,,,,,,,,,,,,,2019_Apr_12_1610,60.45872452,Cloud_Experiment_FR_REAL,1,37
images/fcloud80-20_D1.6_2.tif,1.6,2,,,,,0,83,83,97,,,,,,,,,,,,,,,,,,,1,space,2,1.219,7.369391,,,,,,,,,,,,,,,,,,2019_Apr_12_1610,60.45872452,Cloud_Experiment_FR_REAL,1,37
images/fcloud_D1.5_1.tif,1.5,0,,,,,0,84,84,21,,,,,,,,,,,,,,,,,,,2,space,5,1.617,2.0735192,,,,,,,,,,,,,,,,,,2019_Apr_12_1610,60.45872452,Cloud_Experiment_FR_REAL,1,37
images/fcloud65-35_D1.7_2.tif,1.7,1,,,,,0,85,85,64,,,,,,,,,,,,,,,,,,,1,space,5,2.767,3.4217079,,,,,,,,,,,,,,,,,,2019_Apr_12_1610,60.45872452,Cloud_Experiment_FR_REAL,1,37
images/fcloud65-35_D1.2_2.tif,1.2,1,,,,,0,86,86,49,,,,,,,,,,,,,,,,,,,1,space,5,2.135,6.0415573,,,,,,,,,,,,,,,,,,2019_Apr_12_1610,60.45872452,Cloud_Experiment_FR_REAL,1,37
images/fcloud65-35_D1.8_3.tif,1.8,1,,,,,0,87,87,68,,,,,,,,,,,,,,,,,,,1,space,4,35.789,3.2108105,,,,,,,,,,,,,,,,,,2019_Apr_12_1610,60.45872452,Cloud_Experiment_FR_REAL,1,37
images/fcloud80-20_D0.9_1.tif,0.9,2,,,,,0,88,88,75,,,,,,,,,,,,,,,,,,,2,space,5,1.037,2.9956237,,,,,,,,,,,,,,,,,,2019_Apr_12_1610,60.45872452,Cloud_Experiment_FR_REAL,1,37
images/fcloud_D1.1_1.tif,1.1,0,,,,,0,89,89,9,,,,,,,,,,,,,,,,,,,2,space,4,1.035,2.0751214,,,,,,,,,,,,,,,,,,2019_Apr_12_1610,60.45872452,Cloud_Experiment_FR_REAL,1,37
images/fcloud65-35_D1.4_1.tif,1.4,1,,,,,0,90,90,54,,,,,,,,,,,,,,,,,,,2,space,4,1.004,3.3093474,,,,,,,,,,,,,,,,,,2019_Apr_12_1610,60.45872452,Cloud_Experiment_FR_REAL,1,37
images/fcloud80-20_D1.9_1.tif,1.9,2,,,,,0,91,91,105,,,,,,,,,,,,,,,,,,,None,None,None,10.243,,,,,,,,,,,,,,,,,,,2019_Apr_12_1610,60.45872452,Cloud_Experiment_FR_REAL,1,37
images/fcloud65-35_D0.9_2.tif,0.9,1,,,,,0,92,92,40,,,,,,,,,,,,,,,,,,,1,space,5,1.501,2.104771,,,,,,,,,,,,,,,,,,2019_Apr_12_1610,60.45872452,Cloud_Experiment_FR_REAL,1,37
images/fcloud_D1.4_1.tif,1.4,0,,,,,0,93,93,18,,,,,,,,,,,,,,,,,,,None,None,None,10.876,,,,,,,,,,,,,,,,,,,2019_Apr_12_1610,60.45872452,Cloud_Experiment_FR_REAL,1,37
images/fcloud_D1.6_3.tif,1.6,0,,,,,0,94,94,26,,,,,,,,,,,,,,,,,,,3,space,5,3.066,3.8720111,,,,,,,,,,,,,,,,,,2019_Apr_12_1610,60.45872452,Cloud_Experiment_FR_REAL,1,37
images/fcloud65-35_D1.3_1.tif,1.3,1,,,,,0,95,95,51,,,,,,,,,,,,,,,,,,,3,space,5,1.068,2.4345135,,,,,,,,,,,,,,,,,,2019_Apr_12_1610,60.45872452,Cloud_Experiment_FR_REAL,1,37
images/fcloud65-35_D0.8_2.tif,0.8,1,,,,,0,96,96,37,,,,,,,,,,,,,,,,,,,2,space,4,1.685,1.261445,,,,,,,,,,,,,,,,,,2019_Apr_12_1610,60.45872452,Cloud_Experiment_FR_REAL,1,37
images/fcloud_D1.4_3.tif,1.4,0,,,,,0,97,97,20,,,,,,,,,,,,,,,,,,,4,space,5,2.317,4.0603622,,,,,,,,,,,,,,,,,,2019_Apr_12_1610,60.45872452,Cloud_Experiment_FR_REAL,1,37
images/fcloud_D1.8_1.tif,1.8,0,,,,,0,98,98,30,,,,,,,,,,,,,,,,,,,2,space,4,1.783,3.4735147,,,,,,,,,,,,,,,,,,2019_Apr_12_1610,60.45872452,Cloud_Experiment_FR_REAL,1,37
images/fcloud65-35_D1.9_1.tif,1.9,1,,,,,0,99,99,69,,,,,,,,,,,,,,,,,,,None,None,None,10.924,,,,,,,,,,,,,,,,,,,2019_Apr_12_1610,60.45872452,Cloud_Experiment_FR_REAL,1,37
images/fcloud_D1.8_2.tif,1.8,0,,,,,0,100,100,31,,,,,,,,,,,,,,,,,,,None,None,None,20.216,,,,,,,,,,,,,,,,,,,2019_Apr_12_1610,60.45872452,Cloud_Experiment_FR_REAL,1,37
images/fcloud65-35_D1.1_1.tif,1.1,1,,,,,0,101,101,45,,,,,,,,,,,,,,,,,,,1,space,2,2.301,5.4369759,,,,,,,,,,,,,,,,,,2019_Apr_12_1610,60.45872452,Cloud_Experiment_FR_REAL,1,37
images/fcloud65-35_D0.8_3.tif,0.8,1,,,,,0,102,102,38,,,,,,,,,,,,,,,,,,,1,space,3,2.536,4.9594408,,,,,,,,,,,,,,,,,,2019_Apr_12_1610,60.45872452,Cloud_Experiment_FR_REAL,1,37
images/fcloud65-35_D1.8_2.tif,1.8,1,,,,,0,103,103,67,,,,,,,,,,,,,,,,,,,1,space,2,1.203,7.8338997,,,,,,,,,,,,,,,,,,2019_Apr_12_1610,60.45872452,Cloud_Experiment_FR_REAL,1,37
images/fcloud65-35_D1.3_2.tif,1.3,1,,,,,0,104,104,52,,,,,,,,,,,,,,,,,,,1,space,5,1.685,4.8751843,,,,,,,,,,,,,,,,,,2019_Apr_12_1610,60.45872452,Cloud_Experiment_FR_REAL,1,37
images/fcloud80-20_D1.3_1.tif,1.3,2,,,,,0,105,105,87,,,,,,,,,,,,,,,,,,,2,space,5,1.67,3.6916274,,,,,,,,,,,,,,,,,,2019_Apr_12_1610,60.45872452,Cloud_Experiment_FR_REAL,1,37
images/fcloud65-35_D1_3.tif,1,1,,,,,0,106,106,44,,,,,,,,,,,,,,,,,,,1,space,5,21.815,3.6306584,,,,,,,,,,,,,,,,,,2019_Apr_12_1610,60.45872452,Cloud_Experiment_FR_REAL,1,37
images/fcloud65-35_D0.8_1.tif,0.8,1,,,,,0,107,107,36,,,,,,,,,,,,,,,,,,,1,space,5,3.549,3.0084907,,,,,,,,,,,,,,,,,,2019_Apr_12_1610,60.45872452,Cloud_Experiment_FR_REAL,1,37
,,,,,,,,,,,,,,,,,,,,,,,,,,,,,,,,,,,,,,,,,,,,,,space,1.5351074,,,,2019_Apr_12_1610,60.45872452,Cloud_Experiment_FR_REAL,1,37
,,,,,,,,,,,,,,,,,,,,,,,,,1,7.991,,,,,,,,,,,,,,,,,,,,,,,,,2019_Apr_12_1610,60.45872452,Cloud_Experiment_FR_REAL,1,37
,,,,,,,,,,,,,,,,,,,,,,,,,,,,,,,,,,7,,,,,,,,,,,,,,,,,2019_Apr_12_1610,60.45872452,Cloud_Experiment_FR_REAL,1,37
,,,,,,,,,,,,,,,,,,,,,,,,,,,,,,,,,,,6,,,,,,,,,,,,,,,,2019_Apr_12_1610,60.45872452,Cloud_Experiment_FR_REAL,1,37
,,,,,,,,,,,,,,,,,,,,,,,,,,,,,,,,,,,,2,,,,,,,,,,,,,,,2019_Apr_12_1610,60.45872452,Cloud_Experiment_FR_REAL,1,37
,,,,,,,,,,,,,,,,,,,,,,,,,,,,,,,,,,,,,3,,,,,,,,,,,,,,2019_Apr_12_1610,60.45872452,Cloud_Experiment_FR_REAL,1,37
,,,,,,,,,,,,,,,,,,,,,,,,,,,,,,,,,,,,,,6,,,,,,,,,,,,,2019_Apr_12_1610,60.45872452,Cloud_Experiment_FR_REAL,1,37
,,,,,,,,,,,,,,,,,,,,,,,,,,,,,,,,,,,,,,,5,,,,,,,,,,,,2019_Apr_12_1610,60.45872452,Cloud_Experiment_FR_REAL,1,37
,,,,,,,,,,,,,,,,,,,,,,,,,,,,,,,,,,,,,,,,6,,,,,,,,,,,2019_Apr_12_1610,60.45872452,Cloud_Experiment_FR_REAL,1,37
,,,,,,,,,,,,,,,,,,,,,,,,,,,,,,,,,,,,,,,,,6,,,,,,,,,,2019_Apr_12_1610,60.45872452,Cloud_Experiment_FR_REAL,1,37
,,,,,,,,,,,,,,,,,,,,,,,,,,,,,,,,,,,,,,,,,,6,,,,,,,,,2019_Apr_12_1610,60.45872452,Cloud_Experiment_FR_REAL,1,37
,,,,,,,,,,,,,,,,,,,,,,,,,,,,,,,,,,,,,,,,,,,2,,,,,,,,2019_Apr_12_1610,60.45872452,Cloud_Experiment_FR_REAL,1,37
,,,,,,,,,,,,,,,,,,,,,,,,,,,,,,,,,,,,,,,,,,,,,,,,space,1.0658514,,2019_Apr_12_1610,60.45872452,Cloud_Experiment_FR_REAL,1,37
images/fcloud65-35_D1.4_5.tif,1.4,1,,,,,,,,,0,0,0,55,,,,,,,,,,,,,,,None,None,None,698.627,,,,,,,,,,,,,,,,,,,2019_Apr_12_1610,60.45872452,Cloud_Experiment_FR_REAL,1,37
images/fcloud_D1.8_4.tif,1.8,0,,,,,,,,,0,1,1,30,,,,,,,,,,,,,,,None,None,None,708.135,,,,,,,,,,,,,,,,,,,2019_Apr_12_1610,60.45872452,Cloud_Experiment_FR_REAL,1,37
images/fcloud80-20_D1.1_5.tif,1.1,2,,,,,,,,,0,2,2,82,,,,,,,,,,,,,,,1,space,2,9.644,6.2951386,,,,,,,,,,,,,,,,,,2019_Apr_12_1610,60.45872452,Cloud_Experiment_FR_REAL,1,37
images/fcloud_D1.6_5.tif,1.6,0,,,,,,,,,0,3,3,25,,,,,,,,,,,,,,,2,space,4,1.37,3.2747721,,,,,,,,,,,,,,,,,,2019_Apr_12_1610,60.45872452,Cloud_Experiment_FR_REAL,1,37
images/fcloud80-20_D0.8_6.tif,0.8,2,,,,,,,,,0,4,4,74,,,,,,,,,,,,,,,1,space,2,2.251,2.8690581,,,,,,,,,,,,,,,,,,2019_Apr_12_1610,60.45872452,Cloud_Experiment_FR_REAL,1,37
images/fcloud65-35_D1.5_6.tif,1.5,1,,,,,,,,,0,5,5,59,,,,,,,,,,,,,,,None,None,None,11.64,,,,,,,,,,,,,,,,,,,2019_Apr_12_1610,60.45872452,Cloud_Experiment_FR_REAL,1,37
images/fcloud_D1.7_6.tif,1.7,0,,,,,,,,,0,6,6,29,,,,,,,,,,,,,,,None,None,None,20.749,,,,,,,,,,,,,,,,,,,2019_Apr_12_1610,60.45872452,Cloud_Experiment_FR_REAL,1,37
images/fcloud_D1_4.tif,1,0,,,,,,,,,0,7,7,6,,,,,,,,,,,,,,,2,space,4,1.167,2.8075151,,,,,,,,,,,,,,,,,,2019_Apr_12_1610,60.45872452,Cloud_Experiment_FR_REAL,1,37
images/fcloud65-35_D1.8_4.tif,1.8,1,,,,,,,,,0,8,8,66,,,,,,,,,,,,,,,None,None,None,10.277,,,,,,,,,,,,,,,,,,,2019_Apr_12_1610,60.45872452,Cloud_Experiment_FR_REAL,1,37
images/fcloud65-35_D1.7_4.tif,1.7,1,,,,,,,,,0,9,9,63,,,,,,,,,,,,,,,None,None,None,19.434,,,,,,,,,,,,,,,,,,,2019_Apr_12_1610,60.45872452,Cloud_Experiment_FR_REAL,1,37
images/fcloud_D1.6_6.tif,1.6,0,,,,,,,,,0,10,10,26,,,,,,,,,,,,,,,None,None,None,28.71,,,,,,,,,,,,,,,,,,,2019_Apr_12_1610,60.45872452,Cloud_Experiment_FR_REAL,1,37
images/fcloud_D1.5_6.tif,1.5,0,,,,,,,,,0,11,11,23,,,,,,,,,,,,,,,None,None,None,45.113,,,,,,,,,,,,,,,,,,,2019_Apr_12_1610,60.45872452,Cloud_Experiment_FR_REAL,1,37
images/fcloud_D1.3_5.tif,1.3,0,,,,,,,,,0,12,12,16,,,,,,,,,,,,,,,None,None,None,54.753,,,,,,,,,,,,,,,,,,,2019_Apr_12_1610,60.45872452,Cloud_Experiment_FR_REAL,1,37
images/fcloud65-35_D1.2_5.tif,1.2,1,,,,,,,,,0,13,13,49,,,,,,,,,,,,,,,2,space,2,1.517,2.1593281,,,,,,,,,,,,,,,,,,2019_Apr_12_1610,60.45872452,Cloud_Experiment_FR_REAL,1,37
images/fcloud_D1.7_4.tif,1.7,0,,,,,,,,,0,14,14,27,,,,,,,,,,,,,,,None,None,None,10.79,,,,,,,,,,,,,,,,,,,2019_Apr_12_1610,60.45872452,Cloud_Experiment_FR_REAL,1,37
images/fcloud_D1.1_4.tif,1.1,0,,,,,,,,,0,15,15,9,,,,,,,,,,,,,,,2,space,5,1.186,4.0415508,,,,,,,,,,,,,,,,,,2019_Apr_12_1610,60.45872452,Cloud_Experiment_FR_REAL,1,37
images/fcloud65-35_D1.3_5.tif,1.3,1,,,,,,,,,0,16,16,52,,,,,,,,,,,,,,,None,None,None,10.409,,,,,,,,,,,,,,,,,,,2019_Apr_12_1610,60.45872452,Cloud_Experiment_FR_REAL,1,37
images/fcloud80-20_D1.9_4.tif,1.9,2,,,,,,,,,0,17,17,105,,,,,,,,,,,,,,,3,space,3,1.387,2.1656905,,,,,,,,,,,,,,,,,,2019_Apr_12_1610,60.45872452,Cloud_Experiment_FR_REAL,1,37
images/fcloud65-35_D1.9_6.tif,1.9,1,,,,,,,,,0,18,18,71,,,,,,,,,,,,,,,1,space,1,1.4,5.6011999,,,,,,,,,,,,,,,,,,2019_Apr_12_1610,60.45872452,Cloud_Experiment_FR_REAL,1,37
images/fcloud65-35_D1.3_6.tif,1.3,1,,,,,,,,,0,19,19,53,,,,,,,,,,,,,,,1,space,2,1.468,3.2293025,,,,,,,,,,,,,,,,,,2019_Apr_12_1610,60.45872452,Cloud_Experiment_FR_REAL,1,37
images/fcloud65-35_D1.5_4.tif,1.5,1,,,,,,,,,0,20,20,57,,,,,,,,,,,,,,,None,None,None,10.526,,,,,,,,,,,,,,,,,,,2019_Apr_12_1610,60.45872452,Cloud_Experiment_FR_REAL,1,37
images/fcloud65-35_D1_6.tif,1,1,,,,,,,,,0,21,21,44,,,,,,,,,,,,,,,None,None,None,19.052,,,,,,,,,,,,,,,,,,,2019_Apr_12_1610,60.45872452,Cloud_Experiment_FR_REAL,1,37
images/fcloud80-20_D1.1_6.tif,1.1,2,,,,,,,,,0,22,22,83,,,,,,,,,,,,,,,3,space,4,1.202,1.6989428,,,,,,,,,,,,,,,,,,2019_Apr_12_1610,60.45872452,Cloud_Experiment_FR_REAL,1,37
images/fcloud65-35_D0.8_6.tif,0.8,1,,,,,,,,,0,23,23,38,,,,,,,,,,,,,,,3,space,3,2.201,4.5879419,,,,,,,,,,,,,,,,,,2019_Apr_12_1610,60.45872452,Cloud_Experiment_FR_REAL,1,37
images/fcloud80-20_D1.5_4.tif,1.5,2,,,,,,,,,0,24,24,93,,,,,,,,,,,,,,,1,space,2,1.816,5.7402235,,,,,,,,,,,,,,,,,,2019_Apr_12_1610,60.45872452,Cloud_Experiment_FR_REAL,1,37
images/fcloud_D0.8_4.tif,0.8,0,,,,,,,,,0,25,25,0,,,,,,,,,,,,,,,1,space,5,1.636,1.822641,,,,,,,,,,,,,,,,,,2019_Apr_12_1610,60.45872452,Cloud_Experiment_FR_REAL,1,37
images/fcloud65-35_D0.9_6.tif,0.9,1,,,,,,,,,0,26,26,41,,,,,,,,,,,,,,,2,space,5,1.085,1.6050137,,,,,,,,,,,,,,,,,,2019_Apr_12_1610,60.45872452,Cloud_Experiment_FR_REAL,1,37
images/fcloud65-35_D1.6_5.tif,1.6,1,,,,,,,,,0,27,27,61,,,,,,,,,,,,,,,1,space,3,1.186,7.2759866,,,,,,,,,,,,,,,,,,2019_Apr_12_1610,60.45872452,Cloud_Experiment_FR_REAL,1,37
images/fcloud_D1.5_5.tif,1.5,0,,,,,,,,,0,28,28,22,,,,,,,,,,,,,,,2,space,5,0.934,5.5085419,,,,,,,,,,,,,,,,,,2019_Apr_12_1610,60.45872452,Cloud_Experiment_FR_REAL,1,37
images/fcloud_D1.9_6.tif,1.9,0,,,,,,,,,0,29,29,35,,,,,,,,,,,,,,,1,space,5,1.053,3.2395211,,,,,,,,,,,,,,,,,,2019_Apr_12_1610,60.45872452,Cloud_Experiment_FR_REAL,1,37
images/fcloud65-35_D0.8_5.tif,0.8,1,,,,,,,,,0,30,30,37,,,,,,,,,,,,,,,2,space,1,2.619,1.6072332,,,,,,,,,,,,,,,,,,2019_Apr_12_1610,60.45872452,Cloud_Experiment_FR_REAL,1,37
images/fcloud80-20_D1.9_6.tif,1.9,2,,,,,,,,,0,31,31,107,,,,,,,,,,,,,,,None,None,None,12.026,,,,,,,,,,,,,,,,,,,2019_Apr_12_1610,60.45872452,Cloud_Experiment_FR_REAL,1,37
images/fcloud_D1.4_4.tif,1.4,0,,,,,,,,,0,32,32,18,,,,,,,,,,,,,,,3,space,4,1.753,3.8660649,,,,,,,,,,,,,,,,,,2019_Apr_12_1610,60.45872452,Cloud_Experiment_FR_REAL,1,37
images/fcloud_D1.7_5.tif,1.7,0,,,,,,,,,0,33,33,28,,,,,,,,,,,,,,,3,space,4,1.352,4.2591477,,,,,,,,,,,,,,,,,,2019_Apr_12_1610,60.45872452,Cloud_Experiment_FR_REAL,1,37
images/fcloud80-20_D1.2_6.tif,1.2,2,,,,,,,,,0,34,34,86,,,,,,,,,,,,,,,2,None,2,1.484,,,,,,,,,,,,,,,,,,,2019_Apr_12_1610,60.45872452,Cloud_Experiment_FR_REAL,1,37
images/fcloud80-20_D0.8_4.tif,0.8,2,,,,,,,,,0,35,35,72,,,,,,,,,,,,,,,2,space,5,1.919,3.2599982,,,,,,,,,,,,,,,,,,2019_Apr_12_1610,60.45872452,Cloud_Experiment_FR_REAL,1,37
images/fcloud_D1.8_5.tif,1.8,0,,,,,,,,,0,36,36,31,,,,,,,,,,,,,,,None,None,None,11.175,,,,,,,,,,,,,,,,,,,2019_Apr_12_1610,60.45872452,Cloud_Experiment_FR_REAL,1,37
images/fcloud80-20_D0.8_5.tif,0.8,2,,,,,,,,,0,37,37,73,,,,,,,,,,,,,,,None,None,None,20.236,,,,,,,,,,,,,,,,,,,2019_Apr_12_1610,60.45872452,Cloud_Experiment_FR_REAL,1,37
images/fcloud80-20_D1.6_5.tif,1.6,2,,,,,,,,,0,38,38,97,,,,,,,,,,,,,,,1,space,2,1.501,6.422467,,,,,,,,,,,,,,,,,,2019_Apr_12_1610,60.45872452,Cloud_Experiment_FR_REAL,1,37
images/fcloud65-35_D1.1_5.tif,1.1,1,,,,,,,,,0,39,39,46,,,,,,,,,,,,,,,3,space,3,2.35,1.9233996,,,,,,,,,,,,,,,,,,2019_Apr_12_1610,60.45872452,Cloud_Experiment_FR_REAL,1,37
images/fcloud65-35_D1.1_4.tif,1.1,1,,,,,,,,,0,40,40,45,,,,,,,,,,,,,,,1,space,5,1.135,1.5436758,,,,,,,,,,,,,,,,,,2019_Apr_12_1610,60.45872452,Cloud_Experiment_FR_REAL,1,37
images/fcloud65-35_D0.9_4.tif,0.9,1,,,,,,,,,0,41,41,39,,,,,,,,,,,,,,,2,space,4,1.167,3.2358151,,,,,,,,,,,,,,,,,,2019_Apr_12_1610,60.45872452,Cloud_Experiment_FR_REAL,1,37
images/fcloud_D1_6.tif,1,0,,,,,,,,,0,42,42,8,,,,,,,,,,,,,,,2,space,3,3.068,3.6854084,,,,,,,,,,,,,,,,,,2019_Apr_12_1610,60.45872452,Cloud_Experiment_FR_REAL,1,37
images/fcloud_D0.9_5.tif,0.9,0,,,,,,,,,0,43,43,4,,,,,,,,,,,,,,,1,space,4,1.718,2.4366178,,,,,,,,,,,,,,,,,,2019_Apr_12_1610,60.45872452,Cloud_Experiment_FR_REAL,1,37
images/fcloud_D1.8_6.tif,1.8,0,,,,,,,,,0,44,44,32,,,,,,,,,,,,,,,2,space,4,1.203,2.260787,,,,,,,,,,,,,,,,,,2019_Apr_12_1610,60.45872452,Cloud_Experiment_FR_REAL,1,37
images/fcloud_D1.3_4.tif,1.3,0,,,,,,,,,0,45,45,15,,,,,,,,,,,,,,,1,space,5,1.153,2.2471353,,,,,,,,,,,,,,,,,,2019_Apr_12_1610,60.45872452,Cloud_Experiment_FR_REAL,1,37
images/fcloud80-20_D1.2_4.tif,1.2,2,,,,,,,,,0,46,46,84,,,,,,,,,,,,,,,None,None,None,11.38,,,,,,,,,,,,,,,,,,,2019_Apr_12_1610,60.45872452,Cloud_Experiment_FR_REAL,1,37
images/fcloud80-20_D1.2_5.tif,1.2,2,,,,,,,,,0,47,47,85,,,,,,,,,,,,,,,1,space,5,1.055,4.2648115,,,,,,,,,,,,,,,,,,2019_Apr_12_1610,60.45872452,Cloud_Experiment_FR_REAL,1,37
images/fcloud80-20_D1.8_4.tif,1.8,2,,,,,,,,,0,48,48,102,,,,,,,,,,,,,,,None,None,None,10.941,,,,,,,,,,,,,,,,,,,2019_Apr_12_1610,60.45872452,Cloud_Experiment_FR_REAL,1,37
images/fcloud80-20_D1.7_4.tif,1.7,2,,,,,,,,,0,49,49,99,,,,,,,,,,,,,,,None,None,None,20.1,,,,,,,,,,,,,,,,,,,2019_Apr_12_1610,60.45872452,Cloud_Experiment_FR_REAL,1,37
images/fcloud_D1.3_6.tif,1.3,0,,,,,,,,,0,50,50,17,,,,,,,,,,,,,,,2,space,5,1.034,7.3396594,,,,,,,,,,,,,,,,,,2019_Apr_12_1610,60.45872452,Cloud_Experiment_FR_REAL,1,37
images/fcloud80-20_D1.3_6.tif,1.3,2,,,,,,,,,0,51,51,89,,,,,,,,,,,,,,,2,space,4,1.118,1.5915059,,,,,,,,,,,,,,,,,,2019_Apr_12_1610,60.45872452,Cloud_Experiment_FR_REAL,1,37
images/fcloud_D1.4_5.tif,1.4,0,,,,,,,,,0,52,52,19,,,,,,,,,,,,,,,3,space,5,1.153,3.1258137,,,,,,,,,,,,,,,,,,2019_Apr_12_1610,60.45872452,Cloud_Experiment_FR_REAL,1,37
images/fcloud80-20_D1.8_6.tif,1.8,2,,,,,,,,,0,53,53,104,,,,,,,,,,,,,,,2,space,1,1.152,2.1575229,,,,,,,,,,,,,,,,,,2019_Apr_12_1610,60.45872452,Cloud_Experiment_FR_REAL,1,37
images/fcloud65-35_D1.5_5.tif,1.5,1,,,,,,,,,0,54,54,58,,,,,,,,,,,,,,,2,space,4,1.856,5.8469871,,,,,,,,,,,,,,,,,,2019_Apr_12_1610,60.45872452,Cloud_Experiment_FR_REAL,1,37
images/fcloud65-35_D1.7_5.tif,1.7,1,,,,,,,,,0,55,55,64,,,,,,,,,,,,,,,3,space,4,1.201,1.6570502,,,,,,,,,,,,,,,,,,2019_Apr_12_1610,60.45872452,Cloud_Experiment_FR_REAL,1,37
images/fcloud_D1.6_4.tif,1.6,0,,,,,,,,,0,56,56,24,,,,,,,,,,,,,,,2,space,4,1.002,4.3027599,,,,,,,,,,,,,,,,,,2019_Apr_12_1610,60.45872452,Cloud_Experiment_FR_REAL,1,37
images/fcloud80-20_D1.5_6.tif,1.5,2,,,,,,,,,0,57,57,95,,,,,,,,,,,,,,,None,None,None,10.473,,,,,,,,,,,,,,,,,,,2019_Apr_12_1610,60.45872452,Cloud_Experiment_FR_REAL,1,37
images/fcloud80-20_D1.3_5.tif,1.3,2,,,,,,,,,0,58,58,88,,,,,,,,,,,,,,,3,space,4,1.018,4.3899105,,,,,,,,,,,,,,,,,,2019_Apr_12_1610,60.45872452,Cloud_Experiment_FR_REAL,1,37
images/fcloud_D1.1_5.tif,1.1,0,,,,,,,,,0,59,59,10,,,,,,,,,,,,,,,3,space,5,1.085,4.6889561,,,,,,,,,,,,,,,,,,2019_Apr_12_1610,60.45872452,Cloud_Experiment_FR_REAL,1,37
images/fcloud65-35_D1.8_5.tif,1.8,1,,,,,,,,,0,60,60,67,,,,,,,,,,,,,,,1,space,5,1.036,1.6272853,,,,,,,,,,,,,,,,,,2019_Apr_12_1610,60.45872452,Cloud_Experiment_FR_REAL,1,37
images/fcloud80-20_D1.6_6.tif,1.6,2,,,,,,,,,0,61,61,98,,,,,,,,,,,,,,,2,space,3,5.73,1.703388,,,,,,,,,,,,,,,,,,2019_Apr_12_1610,60.45872452,Cloud_Experiment_FR_REAL,1,37
images/fcloud80-20_D1.3_4.tif,1.3,2,,,,,,,,,0,62,62,87,,,,,,,,,,,,,,,None,None,None,21.499,,,,,,,,,,,,,,,,,,,2019_Apr_12_1610,60.45872452,Cloud_Experiment_FR_REAL,1,37
images/fcloud80-20_D1.7_6.tif,1.7,2,,,,,,,,,0,63,63,101,,,,,,,,,,,,,,,None,None,None,30.424,,,,,,,,,,,,,,,,,,,2019_Apr_12_1610,60.45872452,Cloud_Experiment_FR_REAL,1,37
images/fcloud_D0.9_6.tif,0.9,0,,,,,,,,,0,64,64,5,,,,,,,,,,,,,,,3,space,5,1.134,3.4651454,,,,,,,,,,,,,,,,,,2019_Apr_12_1610,60.45872452,Cloud_Experiment_FR_REAL,1,37
images/fcloud_D1.9_5.tif,1.9,0,,,,,,,,,0,65,65,34,,,,,,,,,,,,,,,1,space,5,1.9,2.326183,,,,,,,,,,,,,,,,,,2019_Apr_12_1610,60.45872452,Cloud_Experiment_FR_REAL,1,37
images/fcloud_D1.2_6.tif,1.2,0,,,,,,,,,0,66,66,14,,,,,,,,,,,,,,,2,space,3,4.55,3.3242054,,,,,,,,,,,,,,,,,,2019_Apr_12_1610,60.45872452,Cloud_Experiment_FR_REAL,1,37
images/fcloud65-35_D1.4_4.tif,1.4,1,,,,,,,,,0,67,67,54,,,,,,,,,,,,,,,None,None,None,14.139,,,,,,,,,,,,,,,,,,,2019_Apr_12_1610,60.45872452,Cloud_Experiment_FR_REAL,1,37
images/fcloud80-20_D1_5.tif,1,2,,,,,,,,,0,68,68,79,,,,,,,,,,,,,,,None,None,None,37.418,,,,,,,,,,,,,,,,,,,2019_Apr_12_1610,60.45872452,Cloud_Experiment_FR_REAL,1,37
images/fcloud_D1_5.tif,1,0,,,,,,,,,0,69,69,7,,,,,,,,,,,,,,,1,None,2,1.899,,,,,,,,,,,,,,,,,,,2019_Apr_12_1610,60.45872452,Cloud_Experiment_FR_REAL,1,37
images/fcloud80-20_D0.9_6.tif,0.9,2,,,,,,,,,0,70,70,77,,,,,,,,,,,,,,,None,None,None,14.854,,,,,,,,,,,,,,,,,,,2019_Apr_12_1610,60.45872452,Cloud_Experiment_FR_REAL,1,37
images/fcloud_D0.8_6.tif,0.8,0,,,,,,,,,0,71,71,2,,,,,,,,,,,,,,,1,None,2,1.834,,,,,,,,,,,,,,,,,,,2019_Apr_12_1610,60.45872452,Cloud_Experiment_FR_REAL,1,37
images/fcloud80-20_D1_4.tif,1,2,,,,,,,,,0,72,72,78,,,,,,,,,,,,,,,None,None,None,11.625,,,,,,,,,,,,,,,,,,,2019_Apr_12_1610,60.45872452,Cloud_Experiment_FR_REAL,1,37
images/fcloud65-35_D1.1_6.tif,1.1,1,,,,,,,,,0,73,73,47,,,,,,,,,,,,,,,1,None,2,2.552,,,,,,,,,,,,,,,,,,,2019_Apr_12_1610,60.45872452,Cloud_Experiment_FR_REAL,1,37
images/fcloud65-35_D1_5.tif,1,1,,,,,,,,,0,74,74,43,,,,,,,,,,,,,,,3,space,3,1.267,5.9535117,,,,,,,,,,,,,,,,,,2019_Apr_12_1610,60.45872452,Cloud_Experiment_FR_REAL,1,37
images/fcloud_D1.2_4.tif,1.2,0,,,,,,,,,0,75,75,12,,,,,,,,,,,,,,,None,None,None,10.843,,,,,,,,,,,,,,,,,,,2019_Apr_12_1610,60.45872452,Cloud_Experiment_FR_REAL,1,37
images/fcloud80-20_D1.7_5.tif,1.7,2,,,,,,,,,0,76,76,100,,,,,,,,,,,,,,,2,space,2,1.119,6.366883,,,,,,,,,,,,,,,,,,2019_Apr_12_1610,60.45872452,Cloud_Experiment_FR_REAL,1,37
images/fcloud80-20_D0.9_4.tif,0.9,2,,,,,,,,,0,77,77,75,,,,,,,,,,,,,,,1,space,5,1.036,4.2421534,,,,,,,,,,,,,,,,,,2019_Apr_12_1610,60.45872452,Cloud_Experiment_FR_REAL,1,37
images/fcloud80-20_D1.4_4.tif,1.4,2,,,,,,,,,0,78,78,90,,,,,,,,,,,,,,,None,None,None,18.851,,,,,,,,,,,,,,,,,,,2019_Apr_12_1610,60.45872452,Cloud_Experiment_FR_REAL,1,37
images/fcloud65-35_D1.2_6.tif,1.2,1,,,,,,,,,0,79,79,50,,,,,,,,,,,,,,,4,space,3,2.366,2.4364204,,,,,,,,,,,,,,,,,,2019_Apr_12_1610,60.45872452,Cloud_Experiment_FR_REAL,1,37
images/fcloud_D1.4_6.tif,1.4,0,,,,,,,,,0,80,80,20,,,,,,,,,,,,,,,None,None,None,16.354,,,,,,,,,,,,,,,,,,,2019_Apr_12_1610,60.45872452,Cloud_Experiment_FR_REAL,1,37
images/fcloud_D1.5_4.tif,1.5,0,,,,,,,,,0,81,81,21,,,,,,,,,,,,,,,2,space,3,2.299,7.1286611,,,,,,,,,,,,,,,,,,2019_Apr_12_1610,60.45872452,Cloud_Experiment_FR_REAL,1,37
images/fcloud65-35_D1.9_4.tif,1.9,1,,,,,,,,,0,82,82,69,,,,,,,,,,,,,,,None,None,None,11.758,,,,,,,,,,,,,,,,,,,2019_Apr_12_1610,60.45872452,Cloud_Experiment_FR_REAL,1,37
images/fcloud65-35_D0.9_5.tif,0.9,1,,,,,,,,,0,83,83,40,,,,,,,,,,,,,,,None,None,None,20.782,,,,,,,,,,,,,,,,,,,2019_Apr_12_1610,60.45872452,Cloud_Experiment_FR_REAL,1,37
images/fcloud65-35_D1.6_6.tif,1.6,1,,,,,,,,,0,84,84,62,,,,,,,,,,,,,,,2,space,4,1.984,3.5572023,,,,,,,,,,,,,,,,,,2019_Apr_12_1610,60.45872452,Cloud_Experiment_FR_REAL,1,37
images/fcloud65-35_D1_4.tif,1,1,,,,,,,,,0,85,85,42,,,,,,,,,,,,,,,1,space,5,1.219,4.7360481,,,,,,,,,,,,,,,,,,2019_Apr_12_1610,60.45872452,Cloud_Experiment_FR_REAL,1,37
images/fcloud65-35_D1.9_5.tif,1.9,1,,,,,,,,,0,86,86,70,,,,,,,,,,,,,,,1,space,5,1.251,4.9263617,,,,,,,,,,,,,,,,,,2019_Apr_12_1610,60.45872452,Cloud_Experiment_FR_REAL,1,37
images/fcloud80-20_D1.5_5.tif,1.5,2,,,,,,,,,0,87,87,94,,,,,,,,,,,,,,,None,None,None,10.991,,,,,,,,,,,,,,,,,,,2019_Apr_12_1610,60.45872452,Cloud_Experiment_FR_REAL,1,37
images/fcloud_D0.9_4.tif,0.9,0,,,,,,,,,0,88,88,3,,,,,,,,,,,,,,,1,space,3,1.436,1.8060432,,,,,,,,,,,,,,,,,,2019_Apr_12_1610,60.45872452,Cloud_Experiment_FR_REAL,1,37
images/fcloud80-20_D1_6.tif,1,2,,,,,,,,,0,89,89,80,,,,,,,,,,,,,,,2,space,5,1.584,3.8882104,,,,,,,,,,,,,,,,,,2019_Apr_12_1610,60.45872452,Cloud_Experiment_FR_REAL,1,37
images/fcloud80-20_D1.9_5.tif,1.9,2,,,,,,,,,0,90,90,106,,,,,,,,,,,,,,,None,None,None,10.79,,,,,,,,,,,,,,,,,,,2019_Apr_12_1610,60.45872452,Cloud_Experiment_FR_REAL,1,37
images/fcloud80-20_D1.1_4.tif,1.1,2,,,,,,,,,0,91,91,81,,,,,,,,,,,,,,,1,space,5,2.9,4.0238679,,,,,,,,,,,,,,,,,,2019_Apr_12_1610,60.45872452,Cloud_Experiment_FR_REAL,1,37
images/fcloud65-35_D0.8_4.tif,0.8,1,,,,,,,,,0,92,92,36,,,,,,,,,,,,,,,1,space,5,1.103,6.1581695,,,,,,,,,,,,,,,,,,2019_Apr_12_1610,60.45872452,Cloud_Experiment_FR_REAL,1,37
images/fcloud_D1.1_6.tif,1.1,0,,,,,,,,,0,93,93,11,,,,,,,,,,,,,,,2,space,4,4.898,3.7154379,,,,,,,,,,,,,,,,,,2019_Apr_12_1610,60.45872452,Cloud_Experiment_FR_REAL,1,37
images/fcloud80-20_D1.4_5.tif,1.4,2,,,,,,,,,0,94,94,91,,,,,,,,,,,,,,,None,None,None,14.022,,,,,,,,,,,,,,,,,,,2019_Apr_12_1610,60.45872452,Cloud_Experiment_FR_REAL,1,37
images/fcloud65-35_D1.6_4.tif,1.6,1,,,,,,,,,0,95,95,60,,,,,,,,,,,,,,,3,space,3,2.682,5.1566077,,,,,,,,,,,,,,,,,,2019_Apr_12_1610,60.45872452,Cloud_Experiment_FR_REAL,1,37
images/fcloud80-20_D1.6_4.tif,1.6,2,,,,,,,,,0,96,96,96,,,,,,,,,,,,,,,None,None,None,12.19,,,,,,,,,,,,,,,,,,,2019_Apr_12_1610,60.45872452,Cloud_Experiment_FR_REAL,1,37
images/fcloud_D1.9_4.tif,1.9,0,,,,,,,,,0,97,97,33,,,,,,,,,,,,,,,3,space,4,2.382,3.4908722,,,,,,,,,,,,,,,,,,2019_Apr_12_1610,60.45872452,Cloud_Experiment_FR_REAL,1,37
images/fcloud65-35_D1.3_4.tif,1.3,1,,,,,,,,,0,98,98,51,,,,,,,,,,,,,,,1,space,1,2.95,5.3271246,,,,,,,,,,,,,,,,,,2019_Apr_12_1610,60.45872452,Cloud_Experiment_FR_REAL,1,37
images/fcloud80-20_D1.4_6.tif,1.4,2,,,,,,,,,0,99,99,92,,,,,,,,,,,,,,,3,space,2,1.967,3.2417096,,,,,,,,,,,,,,,,,,2019_Apr_12_1610,60.45872452,Cloud_Experiment_FR_REAL,1,37
images/fcloud80-20_D0.9_5.tif,0.9,2,,,,,,,,,0,100,100,76,,,,,,,,,,,,,,,2,space,5,1.619,2.5296845,,,,,,,,,,,,,,,,,,2019_Apr_12_1610,60.45872452,Cloud_Experiment_FR_REAL,1,37
images/fcloud_D0.8_5.tif,0.8,0,,,,,,,,,0,101,101,1,,,,,,,,,,,,,,,1,space,4,1.267,7.0250084,,,,,,,,,,,,,,,,,,2019_Apr_12_1610,60.45872452,Cloud_Experiment_FR_REAL,1,37
images/fcloud65-35_D1.8_6.tif,1.8,1,,,,,,,,,0,102,102,68,,,,,,,,,,,,,,,3,space,5,1.587,1.5493406,,,,,,,,,,,,,,,,,,2019_Apr_12_1610,60.45872452,Cloud_Experiment_FR_REAL,1,37
images/fcloud65-35_D1.2_4.tif,1.2,1,,,,,,,,,0,103,103,48,,,,,,,,,,,,,,,2,space,3,1.235,1.5937264,,,,,,,,,,,,,,,,,,2019_Apr_12_1610,60.45872452,Cloud_Experiment_FR_REAL,1,37
images/fcloud_D1.2_5.tif,1.2,0,,,,,,,,,0,104,104,13,,,,,,,,,,,,,,,3,space,2,1.235,2.2546592,,,,,,,,,,,,,,,,,,2019_Apr_12_1610,60.45872452,Cloud_Experiment_FR_REAL,1,37
images/fcloud65-35_D1.4_6.tif,1.4,1,,,,,,,,,0,105,105,56,,,,,,,,,,,,,,,2,space,2,1.218,4.3064669,,,,,,,,,,,,,,,,,,2019_Apr_12_1610,60.45872452,Cloud_Experiment_FR_REAL,1,37
images/fcloud80-20_D1.8_5.tif,1.8,2,,,,,,,,,0,106,106,103,,,,,,,,,,,,,,,2,space,2,1.268,3.095809,,,,,,,,,,,,,,,,,,2019_Apr_12_1610,60.45872452,Cloud_Experiment_FR_REAL,1,37
images/fcloud65-35_D1.7_6.tif,1.7,1,,,,,,,,,0,107,107,65,,,,,,,,,,,,,,,4,space,3,1.268,2.4519887,,,,,,,,,,,,,,,,,,2019_Apr_12_1610,60.45872452,Cloud_Experiment_FR_REAL,1,37
,,,,,,,,,,,,,,,,,,,,,,,,,,,,,,,,,,,,,,,,,,,,,,space,3.0483115,,,,2019_Apr_12_1610,60.45872452,Cloud_Experiment_FR_REAL,1,37
,,,,,,,,,,,,,,,,,,,,,,,,,2,5.339,,,,,,,,,,,,,,,,,,,,,,,,,2019_Apr_12_1610,60.45872452,Cloud_Experiment_FR_REAL,1,37
,,,,,,,,,,,,,,,,,,,,,,,,,,,,,,,,,,7,,,,,,,,,,,,,,,,,2019_Apr_12_1610,60.45872452,Cloud_Experiment_FR_REAL,1,37
,,,,,,,,,,,,,,,,,,,,,,,,,,,,,,,,,,,6,,,,,,,,,,,,,,,,2019_Apr_12_1610,60.45872452,Cloud_Experiment_FR_REAL,1,37
,,,,,,,,,,,,,,,,,,,,,,,,,,,,,,,,,,,,6,,,,,,,,,,,,,,,2019_Apr_12_1610,60.45872452,Cloud_Experiment_FR_REAL,1,37
,,,,,,,,,,,,,,,,,,,,,,,,,,,,,,,,,,,,,2,,,,,,,,,,,,,,2019_Apr_12_1610,60.45872452,Cloud_Experiment_FR_REAL,1,37
,,,,,,,,,,,,,,,,,,,,,,,,,,,,,,,,,,,,,,4,,,,,,,,,,,,,2019_Apr_12_1610,60.45872452,Cloud_Experiment_FR_REAL,1,37
,,,,,,,,,,,,,,,,,,,,,,,,,,,,,,,,,,,,,,,5,,,,,,,,,,,,2019_Apr_12_1610,60.45872452,Cloud_Experiment_FR_REAL,1,37
,,,,,,,,,,,,,,,,,,,,,,,,,,,,,,,,,,,,,,,,6,,,,,,,,,,,2019_Apr_12_1610,60.45872452,Cloud_Experiment_FR_REAL,1,37
,,,,,,,,,,,,,,,,,,,,,,,,,,,,,,,,,,,,,,,,,7,,,,,,,,,,2019_Apr_12_1610,60.45872452,Cloud_Experiment_FR_REAL,1,37
,,,,,,,,,,,,,,,,,,,,,,,,,,,,,,,,,,,,,,,,,,7,,,,,,,,,2019_Apr_12_1610,60.45872452,Cloud_Experiment_FR_REAL,1,37
,,,,,,,,,,,,,,,,,,,,,,,,,,,,,,,,,,,,,,,,,,,2,,,,,,,,2019_Apr_12_1610,60.45872452,Cloud_Experiment_FR_REAL,1,37
,,,,,,,,,,,,,,,,,,,,,,,,,,,,,,,,,,,,,,,,,,,,,,,,space,753.1296785,,2019_Apr_12_1610,60.45872452,Cloud_Experiment_FR_REAL,1,37
images/fcloud80-20_D0.9_8.tif,0.9,2,,,,,,,,,,,,,0,0,0,101,,,,,,,,,,,1,space,4,5.042814,4.403,,,,,,,,,,,,,,,,,,2019_Apr_15_1020,59.59266034,Cloud_Experiment_FR_REAL,1,37
images/fcloud80-20_D0.8_10.tif,0.8,2,,,,,,,,,,,,,0,1,1,99,,,,,,,,,,,3,space,3,3.0634784,1.572,,,,,,,,,,,,,,,,,,2019_Apr_15_1020,59.59266034,Cloud_Experiment_FR_REAL,1,37
images/fcloud80-20_D1_10.tif,1,2,,,,,,,,,,,,,0,2,2,107,,,,,,,,,,,1,space,1,6.6709754,0.986,,,,,,,,,,,,,,,,,,2019_Apr_15_1020,59.59266034,Cloud_Experiment_FR_REAL,1,37
images/fcloud65-35_D0.8_7.tif,0.8,1,,,,,,,,,,,,,0,3,3,48,,,,,,,,,,,3,space,3,5.2318374,1.552,,,,,,,,,,,,,,,,,,2019_Apr_15_1020,59.59266034,Cloud_Experiment_FR_REAL,1,37
images/fcloud65-35_D1.8_7.tif,1.8,1,,,,,,,,,,,,,0,4,4,88,,,,,,,,,,,4,space,3,3.7855312,1.052,,,,,,,,,,,,,,,,,,2019_Apr_15_1020,59.59266034,Cloud_Experiment_FR_REAL,1,37
images/fcloud80-20_D1.4_7.tif,1.4,2,,,,,,,,,,,,,0,5,5,120,,,,,,,,,,,1,space,1,5.6132222,0.753,,,,,,,,,,,,,,,,,,2019_Apr_15_1020,59.59266034,Cloud_Experiment_FR_REAL,1,37
images/fcloud80-20_D1.3_10.tif,1.3,2,,,,,,,,,,,,,0,6,6,119,,,,,,,,,,,3,space,4,4.2501407,0.955,,,,,,,,,,,,,,,,,,2019_Apr_15_1020,59.59266034,Cloud_Experiment_FR_REAL,1,37
images/fcloud_D0.8_10.tif,0.8,0,,,,,,,,,,,,,0,7,7,3,,,,,,,,,,,2,space,4,3.4304892,0.887,,,,,,,,,,,,,,,,,,2019_Apr_15_1020,59.59266034,Cloud_Experiment_FR_REAL,1,37
images/fcloud80-20_D1.3_8.tif,1.3,2,,,,,,,,,,,,,0,8,8,117,,,,,,,,,,,2,space,1,1.7137059,0.803,,,,,,,,,,,,,,,,,,2019_Apr_15_1020,59.59266034,Cloud_Experiment_FR_REAL,1,37
images/fcloud_D1.9_10.tif,1.9,0,,,,,,,,,,,,,0,9,9,47,,,,,,,,,,,1,space,4,3.3330564,1.102,,,,,,,,,,,,,,,,,,2019_Apr_15_1020,59.59266034,Cloud_Experiment_FR_REAL,1,37
images/fcloud65-35_D1_9.tif,1,1,,,,,,,,,,,,,0,10,10,58,,,,,,,,,,,4,space,4,4.3463022,0.905,,,,,,,,,,,,,,,,,,2019_Apr_15_1020,59.59266034,Cloud_Experiment_FR_REAL,1,37
images/fcloud80-20_D0.9_10.tif,0.9,2,,,,,,,,,,,,,0,11,11,103,,,,,,,,,,,2,space,3,3.4074611,5.601,,,,,,,,,,,,,,,,,,2019_Apr_15_1020,59.59266034,Cloud_Experiment_FR_REAL,1,37
images/fcloud_D1.1_8.tif,1.1,0,,,,,,,,,,,,,0,12,12,13,,,,,,,,,,,2,space,5,2.606464,1.159,,,,,,,,,,,,,,,,,,2019_Apr_15_1020,59.59266034,Cloud_Experiment_FR_REAL,1,37
images/fcloud80-20_D0.8_9.tif,0.8,2,,,,,,,,,,,,,0,13,13,98,,,,,,,,,,,None,None,None,,10.728,,,,,,,,,,,,,,,,,,2019_Apr_15_1020,59.59266034,Cloud_Experiment_FR_REAL,1,37
images/fcloud65-35_D0.9_8.tif,0.9,1,,,,,,,,,,,,,0,14,14,53,,,,,,,,,,,2,space,5,1.2260456,0.906,,,,,,,,,,,,,,,,,,2019_Apr_15_1020,59.59266034,Cloud_Experiment_FR_REAL,1,37
images/fcloud_D1.1_10.tif,1.1,0,,,,,,,,,,,,,0,15,15,15,,,,,,,,,,,2,space,5,2.0068563,1.286,,,,,,,,,,,,,,,,,,2019_Apr_15_1020,59.59266034,Cloud_Experiment_FR_REAL,1,37
images/fcloud80-20_D1_7.tif,1,2,,,,,,,,,,,,,0,16,16,104,,,,,,,,,,,2,space,4,3.9949792,0.738,,,,,,,,,,,,,,,,,,2019_Apr_15_1020,59.59266034,Cloud_Experiment_FR_REAL,1,37
images/fcloud80-20_D1.2_8.tif,1.2,2,,,,,,,,,,,,,0,17,17,113,,,,,,,,,,,1,space,2,4.8224692,0.687,,,,,,,,,,,,,,,,,,2019_Apr_15_1020,59.59266034,Cloud_Experiment_FR_REAL,1,37
images/fcloud80-20_D1.9_9.tif,1.9,2,,,,,,,,,,,,,0,18,18,142,,,,,,,,,,,None,None,None,,9.98,,,,,,,,,,,,,,,,,,2019_Apr_15_1020,59.59266034,Cloud_Experiment_FR_REAL,1,37
images/fcloud65-35_D1_8.tif,1,1,,,,,,,,,,,,,0,19,19,57,,,,,,,,,,,2,space,4,1.9615104,6.849,,,,,,,,,,,,,,,,,,2019_Apr_15_1020,59.59266034,Cloud_Experiment_FR_REAL,1,37
images/fcloud80-20_D1.7_9.tif,1.7,2,,,,,,,,,,,,,0,20,20,134,,,,,,,,,,,1,space,1,5.8690727,1.007,,,,,,,,,,,,,,,,,,2019_Apr_15_1020,59.59266034,Cloud_Experiment_FR_REAL,1,37
images/fcloud65-35_D0.8_8.tif,0.8,1,,,,,,,,,,,,,0,21,21,49,,,,,,,,,,,2,space,4,2.8125296,0.702,,,,,,,,,,,,,,,,,,2019_Apr_15_1020,59.59266034,Cloud_Experiment_FR_REAL,1,37
images/fcloud_D1_10.tif,1,0,,,,,,,,,,,,,0,22,22,11,,,,,,,,,,,2,space,4,1.7187253,0.671,,,,,,,,,,,,,,,,,,2019_Apr_15_1020,59.59266034,Cloud_Experiment_FR_REAL,1,37
images/fcloud_D0.9_8.tif,0.9,0,,,,,,,,,,,,,0,23,23,5,,,,,,,,,,,2,space,3,4.8110624,0.889,,,,,,,,,,,,,,,,,,2019_Apr_15_1020,59.59266034,Cloud_Experiment_FR_REAL,1,37
images/fcloud65-35_D1.7_9.tif,1.7,1,,,,,,,,,,,,,0,24,24,86,,,,,,,,,,,2,space,4,4.2015222,0.541,,,,,,,,,,,,,,,,,,2019_Apr_15_1020,59.59266034,Cloud_Experiment_FR_REAL,1,37
images/fcloud65-35_D1.5_9.tif,1.5,1,,,,,,,,,,,,,0,25,25,78,,,,,,,,,,,3,space,4,1.8790155,0.622,,,,,,,,,,,,,,,,,,2019_Apr_15_1020,59.59266034,Cloud_Experiment_FR_REAL,1,37
images/fcloud80-20_D1.2_7.tif,1.2,2,,,,,,,,,,,,,0,26,26,112,,,,,,,,,,,None,None,None,,9.829,,,,,,,,,,,,,,,,,,2019_Apr_15_1020,59.59266034,Cloud_Experiment_FR_REAL,1,37
images/fcloud_D1.5_10.tif,1.5,0,,,,,,,,,,,,,0,27,27,31,,,,,,,,,,,3,space,4,3.3783305,0.622,,,,,,,,,,,,,,,,,,2019_Apr_15_1020,59.59266034,Cloud_Experiment_FR_REAL,1,37
images/fcloud80-20_D1.3_9.tif,1.3,2,,,,,,,,,,,,,0,28,28,118,,,,,,,,,,,1,space,4,7.2072536,0.638,,,,,,,,,,,,,,,,,,2019_Apr_15_1020,59.59266034,Cloud_Experiment_FR_REAL,1,37
images/fcloud65-35_D1.4_7.tif,1.4,1,,,,,,,,,,,,,0,29,29,72,,,,,,,,,,,3,space,4,1.206036,0.608,,,,,,,,,,,,,,,,,,2019_Apr_15_1020,59.59266034,Cloud_Experiment_FR_REAL,1,37
images/fcloud65-35_D0.8_9.tif,0.8,1,,,,,,,,,,,,,0,30,30,50,,,,,,,,,,,3,space,5,1.9067249,0.753,,,,,,,,,,,,,,,,,,2019_Apr_15_1020,59.59266034,Cloud_Experiment_FR_REAL,1,37
images/fcloud80-20_D1.4_9.tif,1.4,2,,,,,,,,,,,,,0,31,31,122,,,,,,,,,,,2,space,4,5.9651739,0.74,,,,,,,,,,,,,,,,,,2019_Apr_15_1020,59.59266034,Cloud_Experiment_FR_REAL,1,37
images/fcloud65-35_D1.5_8.tif,1.5,1,,,,,,,,,,,,,0,32,32,77,,,,,,,,,,,4,space,4,1.369011,0.672,,,,,,,,,,,,,,,,,,2019_Apr_15_1020,59.59266034,Cloud_Experiment_FR_REAL,1,37
images/fcloud_D1.3_9.tif,1.3,0,,,,,,,,,,,,,0,33,33,22,,,,,,,,,,,3,space,3,2.6501079,0.636,,,,,,,,,,,,,,,,,,2019_Apr_15_1020,59.59266034,Cloud_Experiment_FR_REAL,1,37
images/fcloud_D1.8_9.tif,1.8,0,,,,,,,,,,,,,0,34,34,42,,,,,,,,,,,2,space,5,3.0682711,0.573,,,,,,,,,,,,,,,,,,2019_Apr_15_1020,59.59266034,Cloud_Experiment_FR_REAL,1,37
images/fcloud_D1.2_10.tif,1.2,0,,,,,,,,,,,,,0,35,35,19,,,,,,,,,,,1,space,1,5.6042073,0.902,,,,,,,,,,,,,,,,,,2019_Apr_15_1020,59.59266034,Cloud_Experiment_FR_REAL,1,37
images/fcloud80-20_D1.5_7.tif,1.5,2,,,,,,,,,,,,,0,36,36,124,,,,,,,,,,,2,space,4,1.6556928,0.671,,,,,,,,,,,,,,,,,,2019_Apr_15_1020,59.59266034,Cloud_Experiment_FR_REAL,1,37
images/fcloud65-35_D1.8_8.tif,1.8,1,,,,,,,,,,,,,0,37,37,89,,,,,,,,,,,1,space,1,6.4767496,7.446,,,,,,,,,,,,,,,,,,2019_Apr_15_1020,59.59266034,Cloud_Experiment_FR_REAL,1,37
images/fcloud65-35_D1.6_7.tif,1.6,1,,,,,,,,,,,,,0,38,38,80,,,,,,,,,,,3,space,4,1.2106756,0.656,,,,,,,,,,,,,,,,,,2019_Apr_15_1020,59.59266034,Cloud_Experiment_FR_REAL,1,37
images/fcloud_D0.9_10.tif,0.9,0,,,,,,,,,,,,,0,39,39,7,,,,,,,,,,,1,space,3,3.5114821,01.07,,,,,,,,,,,,,,,,,,2019_Apr_15_1020,59.59266034,Cloud_Experiment_FR_REAL,1,37
images/fcloud80-20_D1.1_9.tif,1.1,2,,,,,,,,,,,,,0,40,40,110,,,,,,,,,,,None,None,None,,20.52,,,,,,,,,,,,,,,,,,2019_Apr_15_1020,59.59266034,Cloud_Experiment_FR_REAL,1,37
images/fcloud65-35_D1.4_8.tif,1.4,1,,,,,,,,,,,,,0,41,41,73,,,,,,,,,,,4,space,4,1.4631528,0.62,,,,,,,,,,,,,,,,,,2019_Apr_15_1020,59.59266034,Cloud_Experiment_FR_REAL,1,37
images/fcloud80-20_D0.8_8.tif,0.8,2,,,,,,,,,,,,,0,42,42,97,,,,,,,,,,,2,space,3,2.6957682,0.607,,,,,,,,,,,,,,,,,,2019_Apr_15_1020,59.59266034,Cloud_Experiment_FR_REAL,1,37
images/fcloud65-35_D1.6_10.tif,1.6,1,,,,,,,,,,,,,0,43,43,83,,,,,,,,,,,1,space,3,3.9173283,0.556,,,,,,,,,,,,,,,,,,2019_Apr_15_1020,59.59266034,Cloud_Experiment_FR_REAL,1,37
images/fcloud80-20_D1.9_8.tif,1.9,2,,,,,,,,,,,,,0,44,44,141,,,,,,,,,,,None,None,None,,9.696,,,,,,,,,,,,,,,,,,2019_Apr_15_1020,59.59266034,Cloud_Experiment_FR_REAL,1,37
images/fcloud_D1.6_8.tif,1.6,0,,,,,,,,,,,,,0,45,45,33,,,,,,,,,,,3,space,4,2.1001527,1.388,,,,,,,,,,,,,,,,,,2019_Apr_15_1020,59.59266034,Cloud_Experiment_FR_REAL,1,37
images/fcloud65-35_D1_10.tif,1,1,,,,,,,,,,,,,0,46,46,59,,,,,,,,,,,1,space,4,6.3386236,1.272,,,,,,,,,,,,,,,,,,2019_Apr_15_1020,59.59266034,Cloud_Experiment_FR_REAL,1,37
images/fcloud65-35_D1.9_7.tif,1.9,1,,,,,,,,,,,,,0,47,47,92,,,,,,,,,,,None,None,None,,10.261,,,,,,,,,,,,,,,,,,2019_Apr_15_1020,59.59266034,Cloud_Experiment_FR_REAL,1,37
images/fcloud65-35_D1.3_7.tif,1.3,1,,,,,,,,,,,,,0,48,48,68,,,,,,,,,,,2,space,3,1.6101822,0.871,,,,,,,,,,,,,,,,,,2019_Apr_15_1020,59.59266034,Cloud_Experiment_FR_REAL,1,37
images/fcloud65-35_D1.1_10.tif,1.1,1,,,,,,,,,,,,,0,49,49,63,,,,,,,,,,,4,space,5,1.659036,0.705,,,,,,,,,,,,,,,,,,2019_Apr_15_1020,59.59266034,Cloud_Experiment_FR_REAL,1,37
images/fcloud80-20_D1.6_10.tif,1.6,2,,,,,,,,,,,,,0,50,50,131,,,,,,,,,,,2,space,3,4.2649344,2.137,,,,,,,,,,,,,,,,,,2019_Apr_15_1020,59.59266034,Cloud_Experiment_FR_REAL,1,37
images/fcloud65-35_D0.9_10.tif,0.9,1,,,,,,,,,,,,,0,51,51,55,,,,,,,,,,,4,space,4,2.478022,0.97,,,,,,,,,,,,,,,,,,2019_Apr_15_1020,59.59266034,Cloud_Experiment_FR_REAL,1,37
images/fcloud80-20_D1.1_8.tif,1.1,2,,,,,,,,,,,,,0,52,52,109,,,,,,,,,,,2,space,3,4.5370422,0.537,,,,,,,,,,,,,,,,,,2019_Apr_15_1020,59.59266034,Cloud_Experiment_FR_REAL,1,37
images/fcloud65-35_D1.2_8.tif,1.2,1,,,,,,,,,,,,,0,53,53,65,,,,,,,,,,,1,space,2,6.6521299,8.014,,,,,,,,,,,,,,,,,,2019_Apr_15_1020,59.59266034,Cloud_Experiment_FR_REAL,1,37
images/fcloud80-20_D1_9.tif,1,2,,,,,,,,,,,,,0,54,54,106,,,,,,,,,,,1,space,1,3.2298016,1.041,,,,,,,,,,,,,,,,,,2019_Apr_15_1020,59.59266034,Cloud_Experiment_FR_REAL,1,37
images/fcloud80-20_D1.7_7.tif,1.7,2,,,,,,,,,,,,,0,55,55,132,,,,,,,,,,,2,space,3,5.3184979,0.757,,,,,,,,,,,,,,,,,,2019_Apr_15_1020,59.59266034,Cloud_Experiment_FR_REAL,1,37
images/fcloud_D1.7_8.tif,1.7,0,,,,,,,,,,,,,0,56,56,37,,,,,,,,,,,4,space,4,3.8796134,1.235,,,,,,,,,,,,,,,,,,2019_Apr_15_1020,59.59266034,Cloud_Experiment_FR_REAL,1,37
images/fcloud65-35_D0.8_10.tif,0.8,1,,,,,,,,,,,,,0,57,57,51,,,,,,,,,,,2,space,4,3.8668337,0.821,,,,,,,,,,,,,,,,,,2019_Apr_15_1020,59.59266034,Cloud_Experiment_FR_REAL,1,37
images/fcloud80-20_D1.5_8.tif,1.5,2,,,,,,,,,,,,,0,58,58,125,,,,,,,,,,,None,None,None,,18.022,,,,,,,,,,,,,,,,,,2019_Apr_15_1020,59.59266034,Cloud_Experiment_FR_REAL,1,37
images/fcloud_D1.2_7.tif,1.2,0,,,,,,,,,,,,,0,59,59,16,,,,,,,,,,,5,space,5,1.8286898,1.94,,,,,,,,,,,,,,,,,,2019_Apr_15_1020,59.59266034,Cloud_Experiment_FR_REAL,1,37
images/fcloud65-35_D1.4_10.tif,1.4,1,,,,,,,,,,,,,0,60,60,75,,,,,,,,,,,None,None,None,,11.295,,,,,,,,,,,,,,,,,,2019_Apr_15_1020,59.59266034,Cloud_Experiment_FR_REAL,1,37
images/fcloud_D1.2_9.tif,1.2,0,,,,,,,,,,,,,0,61,61,18,,,,,,,,,,,3,space,4,4.9851227,0.689,,,,,,,,,,,,,,,,,,2019_Apr_15_1020,59.59266034,Cloud_Experiment_FR_REAL,1,37
images/fcloud80-20_D1.8_9.tif,1.8,2,,,,,,,,,,,,,0,62,62,138,,,,,,,,,,,None,None,None,,10.276,,,,,,,,,,,,,,,,,,2019_Apr_15_1020,59.59266034,Cloud_Experiment_FR_REAL,1,37
images/fcloud65-35_D1.7_7.tif,1.7,1,,,,,,,,,,,,,0,63,63,84,,,,,,,,,,,3,space,3,2.219137,1.052,,,,,,,,,,,,,,,,,,2019_Apr_15_1020,59.59266034,Cloud_Experiment_FR_REAL,1,37
images/fcloud65-35_D1.2_10.tif,1.2,1,,,,,,,,,,,,,0,64,64,67,,,,,,,,,,,2,space,4,1.2546676,0.72,,,,,,,,,,,,,,,,,,2019_Apr_15_1020,59.59266034,Cloud_Experiment_FR_REAL,1,37
images/fcloud65-35_D1.2_9.tif,1.2,1,,,,,,,,,,,,,0,65,65,66,,,,,,,,,,,3,space,4,0.7895356,0.722,,,,,,,,,,,,,,,,,,2019_Apr_15_1020,59.59266034,Cloud_Experiment_FR_REAL,1,37
images/fcloud65-35_D1.3_10.tif,1.3,1,,,,,,,,,,,,,0,66,66,71,,,,,,,,,,,3,space,4,0.9900563,2.7,,,,,,,,,,,,,,,,,,2019_Apr_15_1020,59.59266034,Cloud_Experiment_FR_REAL,1,37
images/fcloud_D1.7_10.tif,1.7,0,,,,,,,,,,,,,0,67,67,39,,,,,,,,,,,2,space,4,3.5435578,0.603,,,,,,,,,,,,,,,,,,2019_Apr_15_1020,59.59266034,Cloud_Experiment_FR_REAL,1,37
images/fcloud80-20_D0.8_7.tif,0.8,2,,,,,,,,,,,,,0,68,68,96,,,,,,,,,,,2,space,4,3.6930523,0.919,,,,,,,,,,,,,,,,,,2019_Apr_15_1020,59.59266034,Cloud_Experiment_FR_REAL,1,37
images/fcloud80-20_D1.9_10.tif,1.9,2,,,,,,,,,,,,,0,69,69,143,,,,,,,,,,,2,space,3,2.6966932,0.619,,,,,,,,,,,,,,,,,,2019_Apr_15_1020,59.59266034,Cloud_Experiment_FR_REAL,1,37
images/fcloud65-35_D1.9_8.tif,1.9,1,,,,,,,,,,,,,0,70,70,93,,,,,,,,,,,2,space,4,2.0654987,0.703,,,,,,,,,,,,,,,,,,2019_Apr_15_1020,59.59266034,Cloud_Experiment_FR_REAL,1,37
images/fcloud_D1.7_7.tif,1.7,0,,,,,,,,,,,,,0,71,71,36,,,,,,,,,,,4,space,4,1.0880266,1.369,,,,,,,,,,,,,,,,,,2019_Apr_15_1020,59.59266034,Cloud_Experiment_FR_REAL,1,37
images/fcloud80-20_D1.9_7.tif,1.9,2,,,,,,,,,,,,,0,72,72,140,,,,,,,,,,,2,space,3,3.8160828,0.603,,,,,,,,,,,,,,,,,,2019_Apr_15_1020,59.59266034,Cloud_Experiment_FR_REAL,1,37
images/fcloud_D1_8.tif,1,0,,,,,,,,,,,,,0,73,73,9,,,,,,,,,,,2,space,5,2.5864269,0.669,,,,,,,,,,,,,,,,,,2019_Apr_15_1020,59.59266034,Cloud_Experiment_FR_REAL,1,37
images/fcloud65-35_D1.3_8.tif,1.3,1,,,,,,,,,,,,,0,74,74,69,,,,,,,,,,,1,space,5,6.0367347,0.769,,,,,,,,,,,,,,,,,,2019_Apr_15_1020,59.59266034,Cloud_Experiment_FR_REAL,1,37
images/fcloud_D1.1_7.tif,1.1,0,,,,,,,,,,,,,0,75,75,12,,,,,,,,,,,2,space,4,2.6571982,0.587,,,,,,,,,,,,,,,,,,2019_Apr_15_1020,59.59266034,Cloud_Experiment_FR_REAL,1,37
images/fcloud65-35_D1.8_9.tif,1.8,1,,,,,,,,,,,,,0,76,76,90,,,,,,,,,,,3,space,4,1.8138811,0.735,,,,,,,,,,,,,,,,,,2019_Apr_15_1020,59.59266034,Cloud_Experiment_FR_REAL,1,37
images/fcloud_D1.1_9.tif,1.1,0,,,,,,,,,,,,,0,77,77,14,,,,,,,,,,,3,space,4,1.9888609,2.483,,,,,,,,,,,,,,,,,,2019_Apr_15_1020,59.59266034,Cloud_Experiment_FR_REAL,1,37
images/fcloud80-20_D1.7_8.tif,1.7,2,,,,,,,,,,,,,0,78,78,133,,,,,,,,,,,2,space,3,4.6437106,7.447,,,,,,,,,,,,,,,,,,2019_Apr_15_1020,59.59266034,Cloud_Experiment_FR_REAL,1,37
images/fcloud65-35_D1.8_10.tif,1.8,1,,,,,,,,,,,,,0,79,79,91,,,,,,,,,,,None,None,None,,16.526,,,,,,,,,,,,,,,,,,2019_Apr_15_1020,59.59266034,Cloud_Experiment_FR_REAL,1,37
images/fcloud65-35_D1.6_9.tif,1.6,1,,,,,,,,,,,,,0,80,80,82,,,,,,,,,,,3,space,3,1.5292182,0.587,,,,,,,,,,,,,,,,,,2019_Apr_15_1020,59.59266034,Cloud_Experiment_FR_REAL,1,37
images/fcloud80-20_D0.9_7.tif,0.9,2,,,,,,,,,,,,,0,81,81,100,,,,,,,,,,,2,space,5,2.7919626,0.69,,,,,,,,,,,,,,,,,,2019_Apr_15_1020,59.59266034,Cloud_Experiment_FR_REAL,1,37
images/fcloud_D1.4_10.tif,1.4,0,,,,,,,,,,,,,0,82,82,27,,,,,,,,,,,1,space,3,6.2569372,1.871,,,,,,,,,,,,,,,,,,2019_Apr_15_1020,59.59266034,Cloud_Experiment_FR_REAL,1,37
images/fcloud_D0.8_8.tif,0.8,0,,,,,,,,,,,,,0,83,83,1,,,,,,,,,,,3,space,4,1.5049122,0.737,,,,,,,,,,,,,,,,,,2019_Apr_15_1020,59.59266034,Cloud_Experiment_FR_REAL,1,37
images/fcloud_D1.6_9.tif,1.6,0,,,,,,,,,,,,,0,84,84,34,,,,,,,,,,,4,space,5,2.8492087,0.853,,,,,,,,,,,,,,,,,,2019_Apr_15_1020,59.59266034,Cloud_Experiment_FR_REAL,1,37
images/fcloud65-35_D1.3_9.tif,1.3,1,,,,,,,,,,,,,0,85,85,70,,,,,,,,,,,4,space,5,2.6392579,0.623,,,,,,,,,,,,,,,,,,2019_Apr_15_1020,59.59266034,Cloud_Experiment_FR_REAL,1,37
images/fcloud80-20_D1.8_10.tif,1.8,2,,,,,,,,,,,,,0,86,86,139,,,,,,,,,,,2,space,4,2.4012702,0.602,,,,,,,,,,,,,,,,,,2019_Apr_15_1020,59.59266034,Cloud_Experiment_FR_REAL,1,37
images/fcloud65-35_D1.9_10.tif,1.9,1,,,,,,,,,,,,,0,87,87,95,,,,,,,,,,,1,None,1,,7.468,,,,,,,,,,,,,,,,,,2019_Apr_15_1020,59.59266034,Cloud_Experiment_FR_REAL,1,37
images/fcloud65-35_D1.7_8.tif,1.7,1,,,,,,,,,,,,,0,88,88,85,,,,,,,,,,,2,space,2,2.6750353,1.659,,,,,,,,,,,,,,,,,,2019_Apr_15_1020,59.59266034,Cloud_Experiment_FR_REAL,1,37
images/fcloud80-20_D1.6_8.tif,1.6,2,,,,,,,,,,,,,0,89,89,129,,,,,,,,,,,2,space,2,1.9431566,10.449,,,,,,,,,,,,,,,,,,2019_Apr_15_1020,59.59266034,Cloud_Experiment_FR_REAL,1,37
images/fcloud_D1.4_8.tif,1.4,0,,,,,,,,,,,,,0,90,90,25,,,,,,,,,,,3,None,3,,2.417,,,,,,,,,,,,,,,,,,2019_Apr_15_1020,59.59266034,Cloud_Experiment_FR_REAL,1,37
images/fcloud_D1.3_7.tif,1.3,0,,,,,,,,,,,,,0,91,91,20,,,,,,,,,,,4,space,4,3.2647989,1.507,,,,,,,,,,,,,,,,,,2019_Apr_15_1020,59.59266034,Cloud_Experiment_FR_REAL,1,37
images/fcloud80-20_D1_8.tif,1,2,,,,,,,,,,,,,0,92,92,105,,,,,,,,,,,3,space,3,1.4760302,0.857,,,,,,,,,,,,,,,,,,2019_Apr_15_1020,59.59266034,Cloud_Experiment_FR_REAL,1,37
images/fcloud80-20_D1.8_8.tif,1.8,2,,,,,,,,,,,,,0,93,93,137,,,,,,,,,,,2,space,3,4.9898738,1.39,,,,,,,,,,,,,,,,,,2019_Apr_15_1020,59.59266034,Cloud_Experiment_FR_REAL,1,37
images/fcloud_D0.8_7.tif,0.8,0,,,,,,,,,,,,,0,94,94,0,,,,,,,,,,,1,space,4,3.7632842,0.605,,,,,,,,,,,,,,,,,,2019_Apr_15_1020,59.59266034,Cloud_Experiment_FR_REAL,1,37
images/fcloud65-35_D1.7_10.tif,1.7,1,,,,,,,,,,,,,0,95,95,87,,,,,,,,,,,3,space,5,2.714045,0.969,,,,,,,,,,,,,,,,,,2019_Apr_15_1020,59.59266034,Cloud_Experiment_FR_REAL,1,37
images/fcloud_D1_7.tif,1,0,,,,,,,,,,,,,0,96,96,8,,,,,,,,,,,4,space,4,3.0171441,1.003,,,,,,,,,,,,,,,,,,2019_Apr_15_1020,59.59266034,Cloud_Experiment_FR_REAL,1,37
images/fcloud65-35_D1.1_9.tif,1.1,1,,,,,,,,,,,,,0,97,97,62,,,,,,,,,,,4,space,4,2.4937688,1.638,,,,,,,,,,,,,,,,,,2019_Apr_15_1020,59.59266034,Cloud_Experiment_FR_REAL,1,37
images/fcloud_D1.3_8.tif,1.3,0,,,,,,,,,,,,,0,98,98,21,,,,,,,,,,,2,space,4,2.9475531,1.476,,,,,,,,,,,,,,,,,,2019_Apr_15_1020,59.59266034,Cloud_Experiment_FR_REAL,1,37
images/fcloud65-35_D1.9_9.tif,1.9,1,,,,,,,,,,,,,0,99,99,94,,,,,,,,,,,3,space,3,2.671856,2.569,,,,,,,,,,,,,,,,,,2019_Apr_15_1020,59.59266034,Cloud_Experiment_FR_REAL,1,37
images/fcloud65-35_D1.1_7.tif,1.1,1,,,,,,,,,,,,,0,100,100,60,,,,,,,,,,,4,space,3,1.9010527,0.92,,,,,,,,,,,,,,,,,,2019_Apr_15_1020,59.59266034,Cloud_Experiment_FR_REAL,1,37
images/fcloud_D1.9_7.tif,1.9,0,,,,,,,,,,,,,0,101,101,44,,,,,,,,,,,3,space,5,2.4939993,0.619,,,,,,,,,,,,,,,,,,2019_Apr_15_1020,59.59266034,Cloud_Experiment_FR_REAL,1,37
images/fcloud80-20_D1.1_7.tif,1.1,2,,,,,,,,,,,,,0,102,102,108,,,,,,,,,,,3,space,3,2.3979807,3.352,,,,,,,,,,,,,,,,,,2019_Apr_15_1020,59.59266034,Cloud_Experiment_FR_REAL,1,37
images/fcloud_D1.7_9.tif,1.7,0,,,,,,,,,,,,,0,103,103,38,,,,,,,,,,,3,space,4,1.5216434,0.807,,,,,,,,,,,,,,,,,,2019_Apr_15_1020,59.59266034,Cloud_Experiment_FR_REAL,1,37
images/fcloud_D1.8_10.tif,1.8,0,,,,,,,,,,,,,0,104,104,43,,,,,,,,,,,5,space,4,1.3243677,1.039,,,,,,,,,,,,,,,,,,2019_Apr_15_1020,59.59266034,Cloud_Experiment_FR_REAL,1,37
images/fcloud65-35_D1.5_7.tif,1.5,1,,,,,,,,,,,,,0,105,105,76,,,,,,,,,,,5,space,4,0.9657785,0.621,,,,,,,,,,,,,,,,,,2019_Apr_15_1020,59.59266034,Cloud_Experiment_FR_REAL,1,37
images/fcloud_D1.5_7.tif,1.5,0,,,,,,,,,,,,,0,106,106,28,,,,,,,,,,,4,space,4,1.8374704,0.739,,,,,,,,,,,,,,,,,,2019_Apr_15_1020,59.59266034,Cloud_Experiment_FR_REAL,1,37
images/fcloud65-35_D1_7.tif,1,1,,,,,,,,,,,,,0,107,107,56,,,,,,,,,,,3,space,3,1.1203117,0.72,,,,,,,,,,,,,,,,,,2019_Apr_15_1020,59.59266034,Cloud_Experiment_FR_REAL,1,37
images/fcloud_D1.3_10.tif,1.3,0,,,,,,,,,,,,,0,108,108,23,,,,,,,,,,,3,space,3,1.807563,2.689,,,,,,,,,,,,,,,,,,2019_Apr_15_1020,59.59266034,Cloud_Experiment_FR_REAL,1,37
images/fcloud_D0.9_9.tif,0.9,0,,,,,,,,,,,,,0,109,109,6,,,,,,,,,,,1,space,5,3.3044939,0.709,,,,,,,,,,,,,,,,,,2019_Apr_15_1020,59.59266034,Cloud_Experiment_FR_REAL,1,37
images/fcloud_D1.8_8.tif,1.8,0,,,,,,,,,,,,,0,110,110,41,,,,,,,,,,,3,space,4,3.6968049,0.654,,,,,,,,,,,,,,,,,,2019_Apr_15_1020,59.59266034,Cloud_Experiment_FR_REAL,1,37
images/fcloud80-20_D1.6_7.tif,1.6,2,,,,,,,,,,,,,0,111,111,128,,,,,,,,,,,3,space,3,1.2915536,0.703,,,,,,,,,,,,,,,,,,2019_Apr_15_1020,59.59266034,Cloud_Experiment_FR_REAL,1,37
images/fcloud_D1.5_9.tif,1.5,0,,,,,,,,,,,,,0,112,112,30,,,,,,,,,,,3,space,3,3.2132178,1.988,,,,,,,,,,,,,,,,,,2019_Apr_15_1020,59.59266034,Cloud_Experiment_FR_REAL,1,37
images/fcloud_D0.9_7.tif,0.9,0,,,,,,,,,,,,,0,113,113,4,,,,,,,,,,,3,space,3,4.0642596,1.023,,,,,,,,,,,,,,,,,,2019_Apr_15_1020,59.59266034,Cloud_Experiment_FR_REAL,1,37
images/fcloud80-20_D1.6_9.tif,1.6,2,,,,,,,,,,,,,0,114,114,130,,,,,,,,,,,3,space,5,1.8315993,0.654,,,,,,,,,,,,,,,,,,2019_Apr_15_1020,59.59266034,Cloud_Experiment_FR_REAL,1,37
images/fcloud80-20_D1.4_10.tif,1.4,2,,,,,,,,,,,,,0,115,115,123,,,,,,,,,,,3,space,3,3.7693661,0.872,,,,,,,,,,,,,,,,,,2019_Apr_15_1020,59.59266034,Cloud_Experiment_FR_REAL,1,37
images/fcloud65-35_D1.5_10.tif,1.5,1,,,,,,,,,,,,,0,116,116,79,,,,,,,,,,,4,space,5,1.3604733,1.672,,,,,,,,,,,,,,,,,,2019_Apr_15_1020,59.59266034,Cloud_Experiment_FR_REAL,1,37
images/fcloud65-35_D0.9_9.tif,0.9,1,,,,,,,,,,,,,0,117,117,54,,,,,,,,,,,5,space,5,1.9688063,1.672,,,,,,,,,,,,,,,,,,2019_Apr_15_1020,59.59266034,Cloud_Experiment_FR_REAL,1,37
images/fcloud_D1.6_7.tif,1.6,0,,,,,,,,,,,,,0,118,118,32,,,,,,,,,,,4,space,4,1.9130435,0.775,,,,,,,,,,,,,,,,,,2019_Apr_15_1020,59.59266034,Cloud_Experiment_FR_REAL,1,37
images/fcloud_D0.8_9.tif,0.8,0,,,,,,,,,,,,,0,119,119,2,,,,,,,,,,,4,space,5,2.2133711,0.604,,,,,,,,,,,,,,,,,,2019_Apr_15_1020,59.59266034,Cloud_Experiment_FR_REAL,1,37
images/fcloud_D1.4_9.tif,1.4,0,,,,,,,,,,,,,0,120,120,26,,,,,,,,,,,5,space,5,2.1970013,0.872,,,,,,,,,,,,,,,,,,2019_Apr_15_1020,59.59266034,Cloud_Experiment_FR_REAL,1,37
images/fcloud_D1.9_9.tif,1.9,0,,,,,,,,,,,,,0,121,121,46,,,,,,,,,,,5,space,4,2.1998526,2.003,,,,,,,,,,,,,,,,,,2019_Apr_15_1020,59.59266034,Cloud_Experiment_FR_REAL,1,37
images/fcloud80-20_D1.7_10.tif,1.7,2,,,,,,,,,,,,,0,122,122,135,,,,,,,,,,,3,space,3,2.0962552,0.855,,,,,,,,,,,,,,,,,,2019_Apr_15_1020,59.59266034,Cloud_Experiment_FR_REAL,1,37
images/fcloud80-20_D1.5_9.tif,1.5,2,,,,,,,,,,,,,0,123,123,126,,,,,,,,,,,3,space,3,1.8861336,1.156,,,,,,,,,,,,,,,,,,2019_Apr_15_1020,59.59266034,Cloud_Experiment_FR_REAL,1,37
images/fcloud65-35_D1.4_9.tif,1.4,1,,,,,,,,,,,,,0,124,124,74,,,,,,,,,,,5,space,4,1.5151512,2.669,,,,,,,,,,,,,,,,,,2019_Apr_15_1020,59.59266034,Cloud_Experiment_FR_REAL,1,37
images/fcloud80-20_D1.1_10.tif,1.1,2,,,,,,,,,,,,,0,125,125,111,,,,,,,,,,,2,space,4,5.8242377,0.936,,,,,,,,,,,,,,,,,,2019_Apr_15_1020,59.59266034,Cloud_Experiment_FR_REAL,1,37
images/fcloud_D1_9.tif,1,0,,,,,,,,,,,,,0,126,126,10,,,,,,,,,,,3,space,4,2.2812188,0.624,,,,,,,,,,,,,,,,,,2019_Apr_15_1020,59.59266034,Cloud_Experiment_FR_REAL,1,37
images/fcloud65-35_D1.6_8.tif,1.6,1,,,,,,,,,,,,,0,127,127,81,,,,,,,,,,,2,space,4,4.4962994,0.489,,,,,,,,,,,,,,,,,,2019_Apr_15_1020,59.59266034,Cloud_Experiment_FR_REAL,1,37
images/fcloud80-20_D1.2_10.tif,1.2,2,,,,,,,,,,,,,0,128,128,115,,,,,,,,,,,2,space,3,1.982514,1.055,,,,,,,,,,,,,,,,,,2019_Apr_15_1020,59.59266034,Cloud_Experiment_FR_REAL,1,37
images/fcloud80-20_D1.2_9.tif,1.2,2,,,,,,,,,,,,,0,129,129,114,,,,,,,,,,,2,space,3,2.3023681,7.715,,,,,,,,,,,,,,,,,,2019_Apr_15_1020,59.59266034,Cloud_Experiment_FR_REAL,1,37
images/fcloud80-20_D0.9_9.tif,0.9,2,,,,,,,,,,,,,0,130,130,102,,,,,,,,,,,1,space,2,3.2056408,0.69,,,,,,,,,,,,,,,,,,2019_Apr_15_1020,59.59266034,Cloud_Experiment_FR_REAL,1,37
images/fcloud_D1.8_7.tif,1.8,0,,,,,,,,,,,,,0,131,131,40,,,,,,,,,,,4,space,4,3.5007776,1.102,,,,,,,,,,,,,,,,,,2019_Apr_15_1020,59.59266034,Cloud_Experiment_FR_REAL,1,37
images/fcloud65-35_D1.1_8.tif,1.1,1,,,,,,,,,,,,,0,132,132,61,,,,,,,,,,,3,space,4,1.3545841,0.636,,,,,,,,,,,,,,,,,,2019_Apr_15_1020,59.59266034,Cloud_Experiment_FR_REAL,1,37
images/fcloud65-35_D1.2_7.tif,1.2,1,,,,,,,,,,,,,0,133,133,64,,,,,,,,,,,5,space,4,2.0412979,01.04,,,,,,,,,,,,,,,,,,2019_Apr_15_1020,59.59266034,Cloud_Experiment_FR_REAL,1,37
images/fcloud_D1.5_8.tif,1.5,0,,,,,,,,,,,,,0,134,134,29,,,,,,,,,,,4,space,4,2.1124282,1.22,,,,,,,,,,,,,,,,,,2019_Apr_15_1020,59.59266034,Cloud_Experiment_FR_REAL,1,37
images/fcloud80-20_D1.5_10.tif,1.5,2,,,,,,,,,,,,,0,135,135,127,,,,,,,,,,,3,space,3,2.0573132,0.637,,,,,,,,,,,,,,,,,,2019_Apr_15_1020,59.59266034,Cloud_Experiment_FR_REAL,1,37
images/fcloud80-20_D1.4_8.tif,1.4,2,,,,,,,,,,,,,0,136,136,121,,,,,,,,,,,4,space,4,1.5126922,0.873,,,,,,,,,,,,,,,,,,2019_Apr_15_1020,59.59266034,Cloud_Experiment_FR_REAL,1,37
images/fcloud65-35_D0.9_7.tif,0.9,1,,,,,,,,,,,,,0,137,137,52,,,,,,,,,,,2,space,2,1.5680376,0.79,,,,,,,,,,,,,,,,,,2019_Apr_15_1020,59.59266034,Cloud_Experiment_FR_REAL,1,37
images/fcloud_D1.2_8.tif,1.2,0,,,,,,,,,,,,,0,138,138,17,,,,,,,,,,,3,space,3,2.4183751,1.218,,,,,,,,,,,,,,,,,,2019_Apr_15_1020,59.59266034,Cloud_Experiment_FR_REAL,1,37
images/fcloud_D1.4_7.tif,1.4,0,,,,,,,,,,,,,0,139,139,24,,,,,,,,,,,3,space,4,1.5811835,0.636,,,,,,,,,,,,,,,,,,2019_Apr_15_1020,59.59266034,Cloud_Experiment_FR_REAL,1,37
images/fcloud_D1.9_8.tif,1.9,0,,,,,,,,,,,,,0,140,140,45,,,,,,,,,,,3,space,4,1.8205516,1.204,,,,,,,,,,,,,,,,,,2019_Apr_15_1020,59.59266034,Cloud_Experiment_FR_REAL,1,37
images/fcloud80-20_D1.8_7.tif,1.8,2,,,,,,,,,,,,,0,141,141,136,,,,,,,,,,,1,space,1,7.5191031,0.489,,,,,,,,,,,,,,,,,,2019_Apr_15_1020,59.59266034,Cloud_Experiment_FR_REAL,1,37
images/fcloud_D1.6_10.tif,1.6,0,,,,,,,,,,,,,0,142,142,35,,,,,,,,,,,3,space,1,3.2470924,0.569,,,,,,,,,,,,,,,,,,2019_Apr_15_1020,59.59266034,Cloud_Experiment_FR_REAL,1,37
images/fcloud80-20_D1.3_7.tif,1.3,2,,,,,,,,,,,,,0,143,143,116,,,,,,,,,,,5,space,3,1.2989758,2.734,,,,,,,,,,,,,,,,,,2019_Apr_15_1020,59.59266034,Cloud_Experiment_FR_REAL,1,37
,,,,,,,,,,,,,,,,,,,,,,,,,9,9.877,,,,,,,,,,,,,,,,,,,,,,,,,2019_Apr_15_1020,59.59266034,Cloud_Experiment_FR_REAL,1,37
,,,,,,,,,,,,,,,,,,,,,,,,,,,,,,,,,,7,,,,,,,,,,,,,,,,,2019_Apr_15_1020,59.59266034,Cloud_Experiment_FR_REAL,1,37
,,,,,,,,,,,,,,,,,,,,,,,,,,,,,,,,,,,7,,,,,,,,,,,,,,,,2019_Apr_15_1020,59.59266034,Cloud_Experiment_FR_REAL,1,37
,,,,,,,,,,,,,,,,,,,,,,,,,,,,,,,,,,,,5,,,,,,,,,,,,,,,2019_Apr_15_1020,59.59266034,Cloud_Experiment_FR_REAL,1,37
,,,,,,,,,,,,,,,,,,,,,,,,,,,,,,,,,,,,,7,,,,,,,,,,,,,,2019_Apr_15_1020,59.59266034,Cloud_Experiment_FR_REAL,1,37
,,,,,,,,,,,,,,,,,,,,,,,,,,,,,,,,,,,,,,7,,,,,,,,,,,,,2019_Apr_15_1020,59.59266034,Cloud_Experiment_FR_REAL,1,37
,,,,,,,,,,,,,,,,,,,,,,,,,,,,,,,,,,,,,,,7,,,,,,,,,,,,2019_Apr_15_1020,59.59266034,Cloud_Experiment_FR_REAL,1,37
,,,,,,,,,,,,,,,,,,,,,,,,,,,,,,,,,,,,,,,,7,,,,,,,,,,,2019_Apr_15_1020,59.59266034,Cloud_Experiment_FR_REAL,1,37
,,,,,,,,,,,,,,,,,,,,,,,,,,,,,,,,,,,,,,,,,7,,,,,,,,,,2019_Apr_15_1020,59.59266034,Cloud_Experiment_FR_REAL,1,37
,,,,,,,,,,,,,,,,,,,,,,,,,,,,,,,,,,,,,,,,,,7,,,,,,,,,2019_Apr_15_1020,59.59266034,Cloud_Experiment_FR_REAL,1,37
,,,,,,,,,,,,,,,,,,,,,,,,,,,,,,,,,,,,,,,,,,,2,,,,,,,,2019_Apr_15_1020,59.59266034,Cloud_Experiment_FR_REAL,1,37
,,,,,,,,,,,,,,,,,,,,,,,,,,,,,,,,,,,,,,,,,,,,,,,,,,1,2019_Apr_15_1020,59.59266034,Cloud_Experiment_FR_REAL,1,37