ImageFile,FD,Contrast,trials_4.thisRepN,trials_4.thisTrialN,trials_4.thisN,trials_4.thisIndex,trials.thisRepN,trials.thisTrialN,trials.thisN,trials.thisIndex,trials_2.thisRepN,trials_2.thisTrialN,trials_2.thisN,trials_2.thisIndex,trials_3.thisRepN,trials_3.thisTrialN,trials_3.thisN,trials_3.thisIndex,end_instructions.keys,end_instructions.rt,key_resp_4.keys,key_resp_4.rt,key_resp_6.keys,key_resp_6.rt,Fatigue.response,Fatigue.rt,key_resp_5.keys,key_resp_5.rt,n_objets.response,reaction_time.keys,reaction_time.rt,vividness.response,vividness.rt,Flow01.response,Flow02.response,Flow03.response,Flow04.response,Flow05.response,Flow06.response,Flow07.response,Flow08.response,Flow09.response,Flow10.response,key_resp_2.keys,key_resp_2.rt,key_resp_8.keys,key_resp_8.rt,key_resp_3.keys,key_resp_3.rt,Redondance_question.response,date,frameRate,expName,session,participant,
,,,,,,,,,,,,,,,,,,,space,16.2109039,,,,,,,,,,,,,,,,,,,,,,,,,,,,,,,2019_Apr_16_1704,60.04819467752818,Cloud_Experiment_FR_REAL,001,38,
,,,,,,,,,,,,,,,,,,,,,space,37.4518529,,,,,,,,,,,,,,,,,,,,,,,,,,,,,2019_Apr_16_1704,60.04819467752818,Cloud_Experiment_FR_REAL,001,38,
,,,,,,,,,,,,,,,,,,,,,,,space,19.2197712,,,,,,,,,,,,,,,,,,,,,,,,,,,2019_Apr_16_1704,60.04819467752818,Cloud_Experiment_FR_REAL,001,38,
,,,,,,,,,,,,,,,,,,,,,,,,,4,131.598,,,,,,,,,,,,,,,,,,,,,,,,,2019_Apr_16_1704,60.04819467752818,Cloud_Experiment_FR_REAL,001,38,
,,,,,,,,,,,,,,,,,,,,,,,,,,,space,4.51327609998,,,,,,,,,,,,,,,,,,,,,,,2019_Apr_16_1704,60.04819467752818,Cloud_Experiment_FR_REAL,001,38,
pratique/fcloud80-20_D1.8_30,1.8,2,0,0,0,4,,,,,,,,,,,,,,,,,,,,,,,1,space,55.9320006,2,31.726,,,,,,,,,,,,,,,,,,2019_Apr_16_1704,60.04819467752818,Cloud_Experiment_FR_REAL,001,38,
pratique/fcloud65-35_D1.9_29,1.9,1,0,1,1,7,,,,,,,,,,,,,,,,,,,,,,,None,None,,None,45.344,,,,,,,,,,,,,,,,,,2019_Apr_16_1704,60.04819467752818,Cloud_Experiment_FR_REAL,001,38,
pratique/fcloud65-35_D1.6_30,1.6,1,0,2,2,2,,,,,,,,,,,,,,,,,,,,,,,3,space,6.2277549,3,53.205,,,,,,,,,,,,,,,,,,2019_Apr_16_1704,60.04819467752818,Cloud_Experiment_FR_REAL,001,38,
pratique/fcloud65-35_D1.2_30,1.2,1,0,3,3,3,,,,,,,,,,,,,,,,,,,,,,,None,None,,None,66.194,,,,,,,,,,,,,,,,,,2019_Apr_16_1704,60.04819467752818,Cloud_Experiment_FR_REAL,001,38,
pratique/fcloud65-35_D1.3_30,1.3,1,0,4,4,6,,,,,,,,,,,,,,,,,,,,,,,1,space,7.24184470001,1,5.915,,,,,,,,,,,,,,,,,,2019_Apr_16_1704,60.04819467752818,Cloud_Experiment_FR_REAL,001,38,
pratique/fcloud80-20_D1.5_30,1.5,2,0,5,5,8,,,,,,,,,,,,,,,,,,,,,,,1,None,,2,3.668,,,,,,,,,,,,,,,,,,2019_Apr_16_1704,60.04819467752818,Cloud_Experiment_FR_REAL,001,38,
pratique/fcloud_D1.6_28,1.6,0,0,6,6,5,,,,,,,,,,,,,,,,,,,,,,,2,space,7.01292070001,3,4.897,,,,,,,,,,,,,,,,,,2019_Apr_16_1704,60.04819467752818,Cloud_Experiment_FR_REAL,001,38,
pratique/fcloud_D0.8_30,0.8,0,0,7,7,0,,,,,,,,,,,,,,,,,,,,,,,2,space,4.79107510002,3,1.267,,,,,,,,,,,,,,,,,,2019_Apr_16_1704,60.04819467752818,Cloud_Experiment_FR_REAL,001,38,
pratique/fcloud80-20_D1_30,1.0,2,0,8,8,9,,,,,,,,,,,,,,,,,,,,,,,1,space,4.93732620002,1,2.799,,,,,,,,,,,,,,,,,,2019_Apr_16_1704,60.04819467752818,Cloud_Experiment_FR_REAL,001,38,
pratique/fcloud_D1.4_30,1.4,0,0,9,9,1,,,,,,,,,,,,,,,,,,,,,,,1,space,6.01952639996,1,4.215,,,,,,,,,,,,,,,,,,2019_Apr_16_1704,60.04819467752818,Cloud_Experiment_FR_REAL,001,38,
,,,,,,,,,,,,,,,,,,,,,,,,,,,,,,,,,,6,,,,,,,,,,,,,,,,,2019_Apr_16_1704,60.04819467752818,Cloud_Experiment_FR_REAL,001,38,
,,,,,,,,,,,,,,,,,,,,,,,,,,,,,,,,,,,3,,,,,,,,,,,,,,,,2019_Apr_16_1704,60.04819467752818,Cloud_Experiment_FR_REAL,001,38,
,,,,,,,,,,,,,,,,,,,,,,,,,,,,,,,,,,,,4,,,,,,,,,,,,,,,2019_Apr_16_1704,60.04819467752818,Cloud_Experiment_FR_REAL,001,38,
,,,,,,,,,,,,,,,,,,,,,,,,,,,,,,,,,,,,,3,,,,,,,,,,,,,,2019_Apr_16_1704,60.04819467752818,Cloud_Experiment_FR_REAL,001,38,
,,,,,,,,,,,,,,,,,,,,,,,,,,,,,,,,,,,,,,3,,,,,,,,,,,,,2019_Apr_16_1704,60.04819467752818,Cloud_Experiment_FR_REAL,001,38,
,,,,,,,,,,,,,,,,,,,,,,,,,,,,,,,,,,,,,,,3,,,,,,,,,,,,2019_Apr_16_1704,60.04819467752818,Cloud_Experiment_FR_REAL,001,38,
,,,,,,,,,,,,,,,,,,,,,,,,,,,,,,,,,,,,,,,,4,,,,,,,,,,,2019_Apr_16_1704,60.04819467752818,Cloud_Experiment_FR_REAL,001,38,
,,,,,,,,,,,,,,,,,,,,,,,,,,,,,,,,,,,,,,,,,6,,,,,,,,,,2019_Apr_16_1704,60.04819467752818,Cloud_Experiment_FR_REAL,001,38,
,,,,,,,,,,,,,,,,,,,,,,,,,,,,,,,,,,,,,,,,,,4,,,,,,,,,2019_Apr_16_1704,60.04819467752818,Cloud_Experiment_FR_REAL,001,38,
,,,,,,,,,,,,,,,,,,,,,,,,,,,,,,,,,,,,,,,,,,,4,,,,,,,,2019_Apr_16_1704,60.04819467752818,Cloud_Experiment_FR_REAL,001,38,
,,,,,,,,,,,,,,,,,,,,,,,,,,,,,,,,,,,,,,,,,,,,space,1.91701059998,,,,,,2019_Apr_16_1704,60.04819467752818,Cloud_Experiment_FR_REAL,001,38,
images/fcloud_D1.9_2.tif,1.9,0,,,,,0,0,0,34,,,,,,,,,,,,,,,,,,,1,space,4.29414990003,2,3.6,,,,,,,,,,,,,,,,,,2019_Apr_16_1704,60.04819467752818,Cloud_Experiment_FR_REAL,001,38,
images/fcloud80-20_D1.2_2.tif,1.2,2,,,,,0,1,1,85,,,,,,,,,,,,,,,,,,,1,space,5.42255070002,2,2.15,,,,,,,,,,,,,,,,,,2019_Apr_16_1704,60.04819467752818,Cloud_Experiment_FR_REAL,001,38,
images/fcloud80-20_D1.4_1.tif,1.4,2,,,,,0,2,2,90,,,,,,,,,,,,,,,,,,,1,space,4.46884460002,2,13.623,,,,,,,,,,,,,,,,,,2019_Apr_16_1704,60.04819467752818,Cloud_Experiment_FR_REAL,001,38,
images/fcloud80-20_D0.9_3.tif,0.9,2,,,,,0,3,3,77,,,,,,,,,,,,,,,,,,,1,space,4.02124210005,1,2.934,,,,,,,,,,,,,,,,,,2019_Apr_16_1704,60.04819467752818,Cloud_Experiment_FR_REAL,001,38,
images/fcloud65-35_D1.2_1.tif,1.2,1,,,,,0,4,4,48,,,,,,,,,,,,,,,,,,,1,space,3.19883150002,3,4.316,,,,,,,,,,,,,,,,,,2019_Apr_16_1704,60.04819467752818,Cloud_Experiment_FR_REAL,001,38,
images/fcloud65-35_D1.5_2.tif,1.5,1,,,,,0,5,5,58,,,,,,,,,,,,,,,,,,,None,None,,None,14.339,,,,,,,,,,,,,,,,,,2019_Apr_16_1704,60.04819467752818,Cloud_Experiment_FR_REAL,001,38,
images/fcloud80-20_D1.5_3.tif,1.5,2,,,,,0,6,6,95,,,,,,,,,,,,,,,,,,,None,None,,None,23.532,,,,,,,,,,,,,,,,,,2019_Apr_16_1704,60.04819467752818,Cloud_Experiment_FR_REAL,001,38,
images/fcloud65-35_D1.7_1.tif,1.7,1,,,,,0,7,7,63,,,,,,,,,,,,,,,,,,,None,None,,None,32.757,,,,,,,,,,,,,,,,,,2019_Apr_16_1704,60.04819467752818,Cloud_Experiment_FR_REAL,001,38,
images/fcloud80-20_D1.3_1.tif,1.3,2,,,,,0,8,8,87,,,,,,,,,,,,,,,,,,,1,space,4.33494829998,2,2.717,,,,,,,,,,,,,,,,,,2019_Apr_16_1704,60.04819467752818,Cloud_Experiment_FR_REAL,001,38,
images/fcloud80-20_D1.1_3.tif,1.1,2,,,,,0,9,9,83,,,,,,,,,,,,,,,,,,,1,space,5.09205879999,3,5.598,,,,,,,,,,,,,,,,,,2019_Apr_16_1704,60.04819467752818,Cloud_Experiment_FR_REAL,001,38,
images/fcloud65-35_D1.3_2.tif,1.3,1,,,,,0,10,10,52,,,,,,,,,,,,,,,,,,,1,space,6.88060929999,3,2.119,,,,,,,,,,,,,,,,,,2019_Apr_16_1704,60.04819467752818,Cloud_Experiment_FR_REAL,001,38,
images/fcloud_D0.8_3.tif,0.8,0,,,,,0,11,11,2,,,,,,,,,,,,,,,,,,,1,None,,1,1.898,,,,,,,,,,,,,,,,,,2019_Apr_16_1704,60.04819467752818,Cloud_Experiment_FR_REAL,001,38,
images/fcloud65-35_D1.5_1.tif,1.5,1,,,,,0,12,12,57,,,,,,,,,,,,,,,,,,,2,space,6.78280639998,1,1.583,,,,,,,,,,,,,,,,,,2019_Apr_16_1704,60.04819467752818,Cloud_Experiment_FR_REAL,001,38,
images/fcloud65-35_D0.9_2.tif,0.9,1,,,,,0,13,13,40,,,,,,,,,,,,,,,,,,,1,space,3.45443799999,1,2.701,,,,,,,,,,,,,,,,,,2019_Apr_16_1704,60.04819467752818,Cloud_Experiment_FR_REAL,001,38,
images/fcloud80-20_D0.9_2.tif,0.9,2,,,,,0,14,14,76,,,,,,,,,,,,,,,,,,,1,space,4.62833550002,3,2.551,,,,,,,,,,,,,,,,,,2019_Apr_16_1704,60.04819467752818,Cloud_Experiment_FR_REAL,001,38,
images/fcloud65-35_D1.1_2.tif,1.1,1,,,,,0,15,15,46,,,,,,,,,,,,,,,,,,,None,None,,None,12.108,,,,,,,,,,,,,,,,,,2019_Apr_16_1704,60.04819467752818,Cloud_Experiment_FR_REAL,001,38,
images/fcloud_D1.5_1.tif,1.5,0,,,,,0,16,16,21,,,,,,,,,,,,,,,,,,,1,space,3.54539769999,4,2.849,,,,,,,,,,,,,,,,,,2019_Apr_16_1704,60.04819467752818,Cloud_Experiment_FR_REAL,001,38,
images/fcloud_D1.1_1.tif,1.1,0,,,,,0,17,17,9,,,,,,,,,,,,,,,,,,,2,space,1.97764520004,3,3.417,,,,,,,,,,,,,,,,,,2019_Apr_16_1704,60.04819467752818,Cloud_Experiment_FR_REAL,001,38,
images/fcloud80-20_D1.6_3.tif,1.6,2,,,,,0,18,18,98,,,,,,,,,,,,,,,,,,,1,space,5.63587880001,2,1.486,,,,,,,,,,,,,,,,,,2019_Apr_16_1704,60.04819467752818,Cloud_Experiment_FR_REAL,001,38,
images/fcloud80-20_D1.3_2.tif,1.3,2,,,,,0,19,19,88,,,,,,,,,,,,,,,,,,,1,space,5.94702600001,1,1.536,,,,,,,,,,,,,,,,,,2019_Apr_16_1704,60.04819467752818,Cloud_Experiment_FR_REAL,001,38,
images/fcloud_D1.3_3.tif,1.3,0,,,,,0,20,20,17,,,,,,,,,,,,,,,,,,,3,space,4.93603360001,4,4.1,,,,,,,,,,,,,,,,,,2019_Apr_16_1704,60.04819467752818,Cloud_Experiment_FR_REAL,001,38,
images/fcloud80-20_D1.4_3.tif,1.4,2,,,,,0,21,21,92,,,,,,,,,,,,,,,,,,,1,None,,1,3.184,,,,,,,,,,,,,,,,,,2019_Apr_16_1704,60.04819467752818,Cloud_Experiment_FR_REAL,001,38,
images/fcloud65-35_D1.6_1.tif,1.6,1,,,,,0,22,22,60,,,,,,,,,,,,,,,,,,,2,space,5.44099870004,3,1.835,,,,,,,,,,,,,,,,,,2019_Apr_16_1704,60.04819467752818,Cloud_Experiment_FR_REAL,001,38,
images/fcloud80-20_D1.8_3.tif,1.8,2,,,,,0,23,23,104,,,,,,,,,,,,,,,,,,,1,space,6.65734470001,1,2.652,,,,,,,,,,,,,,,,,,2019_Apr_16_1704,60.04819467752818,Cloud_Experiment_FR_REAL,001,38,
images/fcloud80-20_D1.2_3.tif,1.2,2,,,,,0,24,24,86,,,,,,,,,,,,,,,,,,,2,space,3.60666319996,2,2.186,,,,,,,,,,,,,,,,,,2019_Apr_16_1704,60.04819467752818,Cloud_Experiment_FR_REAL,001,38,
images/fcloud65-35_D1.8_1.tif,1.8,1,,,,,0,25,25,66,,,,,,,,,,,,,,,,,,,1,space,6.1642764,3,1.735,,,,,,,,,,,,,,,,,,2019_Apr_16_1704,60.04819467752818,Cloud_Experiment_FR_REAL,001,38,
images/fcloud_D1.7_3.tif,1.7,0,,,,,0,26,26,29,,,,,,,,,,,,,,,,,,,2,space,5.92558089999,3,2.334,,,,,,,,,,,,,,,,,,2019_Apr_16_1704,60.04819467752818,Cloud_Experiment_FR_REAL,001,38,
images/fcloud_D1_1.tif,1.0,0,,,,,0,27,27,6,,,,,,,,,,,,,,,,,,,2,space,3.23155099998,4,1.634,,,,,,,,,,,,,,,,,,2019_Apr_16_1704,60.04819467752818,Cloud_Experiment_FR_REAL,001,38,
images/fcloud_D0.9_3.tif,0.9,0,,,,,0,28,28,5,,,,,,,,,,,,,,,,,,,2,space,6.37949419999,3,8.028,,,,,,,,,,,,,,,,,,2019_Apr_16_1704,60.04819467752818,Cloud_Experiment_FR_REAL,001,38,
images/fcloud65-35_D1.6_2.tif,1.6,1,,,,,0,29,29,61,,,,,,,,,,,,,,,,,,,2,space,5.666157,3,3.851,,,,,,,,,,,,,,,,,,2019_Apr_16_1704,60.04819467752818,Cloud_Experiment_FR_REAL,001,38,
images/fcloud80-20_D1.4_2.tif,1.4,2,,,,,0,30,30,91,,,,,,,,,,,,,,,,,,,2,None,,3,1.853,,,,,,,,,,,,,,,,,,2019_Apr_16_1704,60.04819467752818,Cloud_Experiment_FR_REAL,001,38,
images/fcloud65-35_D1.2_3.tif,1.2,1,,,,,0,31,31,50,,,,,,,,,,,,,,,,,,,2,space,6.4327068,2,2.785,,,,,,,,,,,,,,,,,,2019_Apr_16_1704,60.04819467752818,Cloud_Experiment_FR_REAL,001,38,
images/fcloud_D1.2_2.tif,1.2,0,,,,,0,32,32,13,,,,,,,,,,,,,,,,,,,2,None,,3,3.516,,,,,,,,,,,,,,,,,,2019_Apr_16_1704,60.04819467752818,Cloud_Experiment_FR_REAL,001,38,
images/fcloud_D1.9_1.tif,1.9,0,,,,,0,33,33,33,,,,,,,,,,,,,,,,,,,2,space,6.4139711,3,1.816,,,,,,,,,,,,,,,,,,2019_Apr_16_1704,60.04819467752818,Cloud_Experiment_FR_REAL,001,38,
images/fcloud_D0.8_1.tif,0.8,0,,,,,0,34,34,0,,,,,,,,,,,,,,,,,,,2,space,3.76186139998,4,2.768,,,,,,,,,,,,,,,,,,2019_Apr_16_1704,60.04819467752818,Cloud_Experiment_FR_REAL,001,38,
images/fcloud80-20_D1_1.tif,1.0,2,,,,,0,35,35,78,,,,,,,,,,,,,,,,,,,None,None,,None,12.127,,,,,,,,,,,,,,,,,,2019_Apr_16_1704,60.04819467752818,Cloud_Experiment_FR_REAL,001,38,
images/fcloud_D1.5_3.tif,1.5,0,,,,,0,36,36,23,,,,,,,,,,,,,,,,,,,3,space,6.93794410001,2,2.602,,,,,,,,,,,,,,,,,,2019_Apr_16_1704,60.04819467752818,Cloud_Experiment_FR_REAL,001,38,
images/fcloud65-35_D1.2_2.tif,1.2,1,,,,,0,37,37,49,,,,,,,,,,,,,,,,,,,2,None,,2,0.936,,,,,,,,,,,,,,,,,,2019_Apr_16_1704,60.04819467752818,Cloud_Experiment_FR_REAL,001,38,
images/fcloud80-20_D0.9_1.tif,0.9,2,,,,,0,38,38,75,,,,,,,,,,,,,,,,,,,1,space,5.76775480004,3,1.219,,,,,,,,,,,,,,,,,,2019_Apr_16_1704,60.04819467752818,Cloud_Experiment_FR_REAL,001,38,
images/fcloud65-35_D1.4_3.tif,1.4,1,,,,,0,39,39,56,,,,,,,,,,,,,,,,,,,None,None,,None,10.595,,,,,,,,,,,,,,,,,,2019_Apr_16_1704,60.04819467752818,Cloud_Experiment_FR_REAL,001,38,
images/fcloud80-20_D1.7_2.tif,1.7,2,,,,,0,40,40,100,,,,,,,,,,,,,,,,,,,1,None,,1,0.918,,,,,,,,,,,,,,,,,,2019_Apr_16_1704,60.04819467752818,Cloud_Experiment_FR_REAL,001,38,
images/fcloud80-20_D0.8_3.tif,0.8,2,,,,,0,41,41,74,,,,,,,,,,,,,,,,,,,3,space,2.11576849996,3,1.169,,,,,,,,,,,,,,,,,,2019_Apr_16_1704,60.04819467752818,Cloud_Experiment_FR_REAL,001,38,
images/fcloud65-35_D1.7_3.tif,1.7,1,,,,,0,42,42,65,,,,,,,,,,,,,,,,,,,1,None,,2,0.953,,,,,,,,,,,,,,,,,,2019_Apr_16_1704,60.04819467752818,Cloud_Experiment_FR_REAL,001,38,
images/fcloud_D1.6_1.tif,1.6,0,,,,,0,43,43,24,,,,,,,,,,,,,,,,,,,2,space,6.00672259997,3,1.252,,,,,,,,,,,,,,,,,,2019_Apr_16_1704,60.04819467752818,Cloud_Experiment_FR_REAL,001,38,
images/fcloud80-20_D1_2.tif,1.0,2,,,,,0,44,44,79,,,,,,,,,,,,,,,,,,,None,None,,None,10.508,,,,,,,,,,,,,,,,,,2019_Apr_16_1704,60.04819467752818,Cloud_Experiment_FR_REAL,001,38,
images/fcloud65-35_D1.4_2.tif,1.4,1,,,,,0,45,45,55,,,,,,,,,,,,,,,,,,,2,space,3.85648400005,2,1.735,,,,,,,,,,,,,,,,,,2019_Apr_16_1704,60.04819467752818,Cloud_Experiment_FR_REAL,001,38,
images/fcloud80-20_D1.5_2.tif,1.5,2,,,,,0,46,46,94,,,,,,,,,,,,,,,,,,,1,space,5.04736979998,3,0.783,,,,,,,,,,,,,,,,,,2019_Apr_16_1704,60.04819467752818,Cloud_Experiment_FR_REAL,001,38,
images/fcloud_D1_2.tif,1.0,0,,,,,0,47,47,7,,,,,,,,,,,,,,,,,,,2,space,2.7891002,3,2.552,,,,,,,,,,,,,,,,,,2019_Apr_16_1704,60.04819467752818,Cloud_Experiment_FR_REAL,001,38,
images/fcloud65-35_D1.9_3.tif,1.9,1,,,,,0,48,48,71,,,,,,,,,,,,,,,,,,,None,None,,None,14.292,,,,,,,,,,,,,,,,,,2019_Apr_16_1704,60.04819467752818,Cloud_Experiment_FR_REAL,001,38,
images/fcloud80-20_D1.9_3.tif,1.9,2,,,,,0,49,49,107,,,,,,,,,,,,,,,,,,,1,space,7.82134849997,1,1.302,,,,,,,,,,,,,,,,,,2019_Apr_16_1704,60.04819467752818,Cloud_Experiment_FR_REAL,001,38,
images/fcloud65-35_D1.8_2.tif,1.8,1,,,,,0,50,50,67,,,,,,,,,,,,,,,,,,,1,space,6.24397950002,2,1.336,,,,,,,,,,,,,,,,,,2019_Apr_16_1704,60.04819467752818,Cloud_Experiment_FR_REAL,001,38,
images/fcloud80-20_D0.8_2.tif,0.8,2,,,,,0,51,51,73,,,,,,,,,,,,,,,,,,,None,None,,None,10.726,,,,,,,,,,,,,,,,,,2019_Apr_16_1704,60.04819467752818,Cloud_Experiment_FR_REAL,001,38,
images/fcloud_D1.1_2.tif,1.1,0,,,,,0,52,52,10,,,,,,,,,,,,,,,,,,,1,space,4.16196170001,3,1.668,,,,,,,,,,,,,,,,,,2019_Apr_16_1704,60.04819467752818,Cloud_Experiment_FR_REAL,001,38,
images/fcloud65-35_D0.9_3.tif,0.9,1,,,,,0,53,53,41,,,,,,,,,,,,,,,,,,,1,space,2.58176489995,4,1.585,,,,,,,,,,,,,,,,,,2019_Apr_16_1704,60.04819467752818,Cloud_Experiment_FR_REAL,001,38,
images/fcloud65-35_D0.8_1.tif,0.8,1,,,,,0,54,54,36,,,,,,,,,,,,,,,,,,,2,space,4.5303022,4,3.248,,,,,,,,,,,,,,,,,,2019_Apr_16_1704,60.04819467752818,Cloud_Experiment_FR_REAL,001,38,
images/fcloud_D1.9_3.tif,1.9,0,,,,,0,55,55,35,,,,,,,,,,,,,,,,,,,1,None,,2,0.835,,,,,,,,,,,,,,,,,,2019_Apr_16_1704,60.04819467752818,Cloud_Experiment_FR_REAL,001,38,
images/fcloud65-35_D1.3_3.tif,1.3,1,,,,,0,56,56,53,,,,,,,,,,,,,,,,,,,2,space,5.65859270003,3,1.001,,,,,,,,,,,,,,,,,,2019_Apr_16_1704,60.04819467752818,Cloud_Experiment_FR_REAL,001,38,
images/fcloud80-20_D1.7_3.tif,1.7,2,,,,,0,57,57,101,,,,,,,,,,,,,,,,,,,None,None,,None,10.375,,,,,,,,,,,,,,,,,,2019_Apr_16_1704,60.04819467752818,Cloud_Experiment_FR_REAL,001,38,
images/fcloud_D1.1_3.tif,1.1,0,,,,,0,58,58,11,,,,,,,,,,,,,,,,,,,3,space,3.54961089999,3,2.151,,,,,,,,,,,,,,,,,,2019_Apr_16_1704,60.04819467752818,Cloud_Experiment_FR_REAL,001,38,
images/fcloud_D0.8_2.tif,0.8,0,,,,,0,59,59,1,,,,,,,,,,,,,,,,,,,1,space,4.00721399998,4,1.051,,,,,,,,,,,,,,,,,,2019_Apr_16_1704,60.04819467752818,Cloud_Experiment_FR_REAL,001,38,
images/fcloud_D1.2_1.tif,1.2,0,,,,,0,60,60,12,,,,,,,,,,,,,,,,,,,1,space,5.51251190004,4,2.119,,,,,,,,,,,,,,,,,,2019_Apr_16_1704,60.04819467752818,Cloud_Experiment_FR_REAL,001,38,
images/fcloud65-35_D0.8_3.tif,0.8,1,,,,,0,61,61,38,,,,,,,,,,,,,,,,,,,3,space,4.71486499999,1,1.052,,,,,,,,,,,,,,,,,,2019_Apr_16_1704,60.04819467752818,Cloud_Experiment_FR_REAL,001,38,
images/fcloud65-35_D1.6_3.tif,1.6,1,,,,,0,62,62,62,,,,,,,,,,,,,,,,,,,2,space,3.24173350004,2,1.17,,,,,,,,,,,,,,,,,,2019_Apr_16_1704,60.04819467752818,Cloud_Experiment_FR_REAL,001,38,
images/fcloud65-35_D1.9_1.tif,1.9,1,,,,,0,63,63,69,,,,,,,,,,,,,,,,,,,1,space,3.30725460005,5,3.234,,,,,,,,,,,,,,,,,,2019_Apr_16_1704,60.04819467752818,Cloud_Experiment_FR_REAL,001,38,
images/fcloud65-35_D1_3.tif,1.0,1,,,,,0,64,64,44,,,,,,,,,,,,,,,,,,,2,space,6.72642739996,2,1.452,,,,,,,,,,,,,,,,,,2019_Apr_16_1704,60.04819467752818,Cloud_Experiment_FR_REAL,001,38,
images/fcloud65-35_D1.4_1.tif,1.4,1,,,,,0,65,65,54,,,,,,,,,,,,,,,,,,,1,space,5.85813109996,2,1.418,,,,,,,,,,,,,,,,,,2019_Apr_16_1704,60.04819467752818,Cloud_Experiment_FR_REAL,001,38,
images/fcloud80-20_D1.8_1.tif,1.8,2,,,,,0,66,66,102,,,,,,,,,,,,,,,,,,,1,None,,1,0.769,,,,,,,,,,,,,,,,,,2019_Apr_16_1704,60.04819467752818,Cloud_Experiment_FR_REAL,001,38,
images/fcloud_D1.4_3.tif,1.4,0,,,,,0,67,67,20,,,,,,,,,,,,,,,,,,,2,space,1.84892239998,3,3.65,,,,,,,,,,,,,,,,,,2019_Apr_16_1704,60.04819467752818,Cloud_Experiment_FR_REAL,001,38,
images/fcloud65-35_D0.9_1.tif,0.9,1,,,,,0,68,68,39,,,,,,,,,,,,,,,,,,,2,space,2.82616320002,3,0.969,,,,,,,,,,,,,,,,,,2019_Apr_16_1704,60.04819467752818,Cloud_Experiment_FR_REAL,001,38,
images/fcloud_D1.6_2.tif,1.6,0,,,,,0,69,69,25,,,,,,,,,,,,,,,,,,,3,space,3.28493169998,3,0.985,,,,,,,,,,,,,,,,,,2019_Apr_16_1704,60.04819467752818,Cloud_Experiment_FR_REAL,001,38,
images/fcloud80-20_D1.9_1.tif,1.9,2,,,,,0,70,70,105,,,,,,,,,,,,,,,,,,,None,None,,None,10.426,,,,,,,,,,,,,,,,,,2019_Apr_16_1704,60.04819467752818,Cloud_Experiment_FR_REAL,001,38,
images/fcloud_D1.7_1.tif,1.7,0,,,,,0,71,71,27,,,,,,,,,,,,,,,,,,,3,space,3.15446440002,3,1.786,,,,,,,,,,,,,,,,,,2019_Apr_16_1704,60.04819467752818,Cloud_Experiment_FR_REAL,001,38,
images/fcloud65-35_D1.3_1.tif,1.3,1,,,,,0,72,72,51,,,,,,,,,,,,,,,,,,,4,space,2.86329790001,3,4.38,,,,,,,,,,,,,,,,,,2019_Apr_16_1704,60.04819467752818,Cloud_Experiment_FR_REAL,001,38,
images/fcloud_D1_3.tif,1.0,0,,,,,0,73,73,8,,,,,,,,,,,,,,,,,,,2,space,1.3875972,3,1.169,,,,,,,,,,,,,,,,,,2019_Apr_16_1704,60.04819467752818,Cloud_Experiment_FR_REAL,001,38,
images/fcloud65-35_D1.1_3.tif,1.1,1,,,,,0,74,74,47,,,,,,,,,,,,,,,,,,,1,space,2.28529279999,3,1.617,,,,,,,,,,,,,,,,,,2019_Apr_16_1704,60.04819467752818,Cloud_Experiment_FR_REAL,001,38,
images/fcloud_D1.8_2.tif,1.8,0,,,,,0,75,75,31,,,,,,,,,,,,,,,,,,,1,space,5.57257770002,2,0.902,,,,,,,,,,,,,,,,,,2019_Apr_16_1704,60.04819467752818,Cloud_Experiment_FR_REAL,001,38,
images/fcloud65-35_D1.5_3.tif,1.5,1,,,,,0,76,76,59,,,,,,,,,,,,,,,,,,,1,space,4.02109980001,2,2.568,,,,,,,,,,,,,,,,,,2019_Apr_16_1704,60.04819467752818,Cloud_Experiment_FR_REAL,001,38,
images/fcloud80-20_D1_3.tif,1.0,2,,,,,0,77,77,80,,,,,,,,,,,,,,,,,,,2,space,5.14885629999,2,3.303,,,,,,,,,,,,,,,,,,2019_Apr_16_1704,60.04819467752818,Cloud_Experiment_FR_REAL,001,38,
images/fcloud_D1.2_3.tif,1.2,0,,,,,0,78,78,14,,,,,,,,,,,,,,,,,,,2,space,1.497286,2,2.385,,,,,,,,,,,,,,,,,,2019_Apr_16_1704,60.04819467752818,Cloud_Experiment_FR_REAL,001,38,
images/fcloud65-35_D1_2.tif,1.0,1,,,,,0,79,79,43,,,,,,,,,,,,,,,,,,,2,space,4.84347059997,3,0.767,,,,,,,,,,,,,,,,,,2019_Apr_16_1704,60.04819467752818,Cloud_Experiment_FR_REAL,001,38,
images/fcloud_D1.6_3.tif,1.6,0,,,,,0,80,80,26,,,,,,,,,,,,,,,,,,,3,space,7.95641490002,3,0.918,,,,,,,,,,,,,,,,,,2019_Apr_16_1704,60.04819467752818,Cloud_Experiment_FR_REAL,001,38,
images/fcloud65-35_D1.8_3.tif,1.8,1,,,,,0,81,81,68,,,,,,,,,,,,,,,,,,,1,space,3.74028119998,3,1.785,,,,,,,,,,,,,,,,,,2019_Apr_16_1704,60.04819467752818,Cloud_Experiment_FR_REAL,001,38,
images/fcloud65-35_D1.7_2.tif,1.7,1,,,,,0,82,82,64,,,,,,,,,,,,,,,,,,,1,None,,2,1.669,,,,,,,,,,,,,,,,,,2019_Apr_16_1704,60.04819467752818,Cloud_Experiment_FR_REAL,001,38,
images/fcloud80-20_D0.8_1.tif,0.8,2,,,,,0,83,83,72,,,,,,,,,,,,,,,,,,,2,space,3.42095280002,3,0.953,,,,,,,,,,,,,,,,,,2019_Apr_16_1704,60.04819467752818,Cloud_Experiment_FR_REAL,001,38,
images/fcloud_D0.9_1.tif,0.9,0,,,,,0,84,84,3,,,,,,,,,,,,,,,,,,,3,space,1.69008019997,3,2.101,,,,,,,,,,,,,,,,,,2019_Apr_16_1704,60.04819467752818,Cloud_Experiment_FR_REAL,001,38,
images/fcloud_D1.5_2.tif,1.5,0,,,,,0,85,85,22,,,,,,,,,,,,,,,,,,,1,space,6.00227709999,1,0.651,,,,,,,,,,,,,,,,,,2019_Apr_16_1704,60.04819467752818,Cloud_Experiment_FR_REAL,001,38,
images/fcloud80-20_D1.3_3.tif,1.3,2,,,,,0,86,86,89,,,,,,,,,,,,,,,,,,,1,space,3.43196830002,2,2.532,,,,,,,,,,,,,,,,,,2019_Apr_16_1704,60.04819467752818,Cloud_Experiment_FR_REAL,001,38,
images/fcloud_D1.3_2.tif,1.3,0,,,,,0,87,87,16,,,,,,,,,,,,,,,,,,,3,space,1.42906559998,3,0.802,,,,,,,,,,,,,,,,,,2019_Apr_16_1704,60.04819467752818,Cloud_Experiment_FR_REAL,001,38,
images/fcloud80-20_D1.5_1.tif,1.5,2,,,,,0,88,88,93,,,,,,,,,,,,,,,,,,,None,None,,None,10.558,,,,,,,,,,,,,,,,,,2019_Apr_16_1704,60.04819467752818,Cloud_Experiment_FR_REAL,001,38,
images/fcloud80-20_D1.9_2.tif,1.9,2,,,,,0,89,89,106,,,,,,,,,,,,,,,,,,,1,space,5.59035790002,1,0.62,,,,,,,,,,,,,,,,,,2019_Apr_16_1704,60.04819467752818,Cloud_Experiment_FR_REAL,001,38,
images/fcloud_D1.8_3.tif,1.8,0,,,,,0,90,90,32,,,,,,,,,,,,,,,,,,,2,space,2.8990952,2,1.184,,,,,,,,,,,,,,,,,,2019_Apr_16_1704,60.04819467752818,Cloud_Experiment_FR_REAL,001,38,
images/fcloud_D0.9_2.tif,0.9,0,,,,,0,91,91,4,,,,,,,,,,,,,,,,,,,3,space,1.22637730004,3,1.051,,,,,,,,,,,,,,,,,,2019_Apr_16_1704,60.04819467752818,Cloud_Experiment_FR_REAL,001,38,
images/fcloud65-35_D0.8_2.tif,0.8,1,,,,,0,92,92,37,,,,,,,,,,,,,,,,,,,3,space,1.99404070002,2,6.764,,,,,,,,,,,,,,,,,,2019_Apr_16_1704,60.04819467752818,Cloud_Experiment_FR_REAL,001,38,
images/fcloud_D1.7_2.tif,1.7,0,,,,,0,93,93,28,,,,,,,,,,,,,,,,,,,2,space,6.20254239999,3,6.297,,,,,,,,,,,,,,,,,,2019_Apr_16_1704,60.04819467752818,Cloud_Experiment_FR_REAL,001,38,
images/fcloud_D1.8_1.tif,1.8,0,,,,,0,94,94,30,,,,,,,,,,,,,,,,,,,1,space,5.5448721,1,1.685,,,,,,,,,,,,,,,,,,2019_Apr_16_1704,60.04819467752818,Cloud_Experiment_FR_REAL,001,38,
images/fcloud80-20_D1.7_1.tif,1.7,2,,,,,0,95,95,99,,,,,,,,,,,,,,,,,,,1,space,7.48882149998,1,1.77,,,,,,,,,,,,,,,,,,2019_Apr_16_1704,60.04819467752818,Cloud_Experiment_FR_REAL,001,38,
images/fcloud80-20_D1.6_1.tif,1.6,2,,,,,0,96,96,96,,,,,,,,,,,,,,,,,,,1,None,,1,1.768,,,,,,,,,,,,,,,,,,2019_Apr_16_1704,60.04819467752818,Cloud_Experiment_FR_REAL,001,38,
images/fcloud80-20_D1.1_2.tif,1.1,2,,,,,0,97,97,82,,,,,,,,,,,,,,,,,,,1,space,6.01690019999,1,1.834,,,,,,,,,,,,,,,,,,2019_Apr_16_1704,60.04819467752818,Cloud_Experiment_FR_REAL,001,38,
images/fcloud80-20_D1.8_2.tif,1.8,2,,,,,0,98,98,103,,,,,,,,,,,,,,,,,,,2,None,,1,0.784,,,,,,,,,,,,,,,,,,2019_Apr_16_1704,60.04819467752818,Cloud_Experiment_FR_REAL,001,38,
images/fcloud80-20_D1.1_1.tif,1.1,2,,,,,0,99,99,81,,,,,,,,,,,,,,,,,,,1,space,6.9629328,1,0.802,,,,,,,,,,,,,,,,,,2019_Apr_16_1704,60.04819467752818,Cloud_Experiment_FR_REAL,001,38,
images/fcloud80-20_D1.2_1.tif,1.2,2,,,,,0,100,100,84,,,,,,,,,,,,,,,,,,,2,space,5.31658430002,2,0.952,,,,,,,,,,,,,,,,,,2019_Apr_16_1704,60.04819467752818,Cloud_Experiment_FR_REAL,001,38,
images/fcloud80-20_D1.6_2.tif,1.6,2,,,,,0,101,101,97,,,,,,,,,,,,,,,,,,,2,space,6.0421742,1,0.837,,,,,,,,,,,,,,,,,,2019_Apr_16_1704,60.04819467752818,Cloud_Experiment_FR_REAL,001,38,
images/fcloud_D1.4_2.tif,1.4,0,,,,,0,102,102,19,,,,,,,,,,,,,,,,,,,2,space,5.18051530002,1,0.852,,,,,,,,,,,,,,,,,,2019_Apr_16_1704,60.04819467752818,Cloud_Experiment_FR_REAL,001,38,
images/fcloud65-35_D1.1_1.tif,1.1,1,,,,,0,103,103,45,,,,,,,,,,,,,,,,,,,1,space,5.64910089999,2,1.503,,,,,,,,,,,,,,,,,,2019_Apr_16_1704,60.04819467752818,Cloud_Experiment_FR_REAL,001,38,
images/fcloud_D1.4_1.tif,1.4,0,,,,,0,104,104,18,,,,,,,,,,,,,,,,,,,2,None,,2,1.468,,,,,,,,,,,,,,,,,,2019_Apr_16_1704,60.04819467752818,Cloud_Experiment_FR_REAL,001,38,
images/fcloud65-35_D1_1.tif,1.0,1,,,,,0,105,105,42,,,,,,,,,,,,,,,,,,,1,space,6.45565169997,1,1.668,,,,,,,,,,,,,,,,,,2019_Apr_16_1704,60.04819467752818,Cloud_Experiment_FR_REAL,001,38,
images/fcloud65-35_D1.9_2.tif,1.9,1,,,,,0,106,106,70,,,,,,,,,,,,,,,,,,,2,space,3.88886300003,1,0.672,,,,,,,,,,,,,,,,,,2019_Apr_16_1704,60.04819467752818,Cloud_Experiment_FR_REAL,001,38,
images/fcloud_D1.3_1.tif,1.3,0,,,,,0,107,107,15,,,,,,,,,,,,,,,,,,,3,space,1.72074669995,2,1.484,,,,,,,,,,,,,,,,,,2019_Apr_16_1704,60.04819467752818,Cloud_Experiment_FR_REAL,001,38,
,,,,,,,,,,,,,,,,,,,,,,,,,,,,,,,,,,,,,,,,,,,,,,space,2.86669140001,,,,2019_Apr_16_1704,60.04819467752818,Cloud_Experiment_FR_REAL,001,38,
,,,,,,,,,,,,,,,,,,,,,,,,,5,41.279,,,,,,,,,,,,,,,,,,,,,,,,,2019_Apr_16_1704,60.04819467752818,Cloud_Experiment_FR_REAL,001,38,
,,,,,,,,,,,,,,,,,,,,,,,,,,,,,,,,,,4,,,,,,,,,,,,,,,,,2019_Apr_16_1704,60.04819467752818,Cloud_Experiment_FR_REAL,001,38,
,,,,,,,,,,,,,,,,,,,,,,,,,,,,,,,,,,,3,,,,,,,,,,,,,,,,2019_Apr_16_1704,60.04819467752818,Cloud_Experiment_FR_REAL,001,38,
,,,,,,,,,,,,,,,,,,,,,,,,,,,,,,,,,,,,3,,,,,,,,,,,,,,,2019_Apr_16_1704,60.04819467752818,Cloud_Experiment_FR_REAL,001,38,
,,,,,,,,,,,,,,,,,,,,,,,,,,,,,,,,,,,,,2,,,,,,,,,,,,,,2019_Apr_16_1704,60.04819467752818,Cloud_Experiment_FR_REAL,001,38,
,,,,,,,,,,,,,,,,,,,,,,,,,,,,,,,,,,,,,,2,,,,,,,,,,,,,2019_Apr_16_1704,60.04819467752818,Cloud_Experiment_FR_REAL,001,38,
,,,,,,,,,,,,,,,,,,,,,,,,,,,,,,,,,,,,,,,4,,,,,,,,,,,,2019_Apr_16_1704,60.04819467752818,Cloud_Experiment_FR_REAL,001,38,
,,,,,,,,,,,,,,,,,,,,,,,,,,,,,,,,,,,,,,,,3,,,,,,,,,,,2019_Apr_16_1704,60.04819467752818,Cloud_Experiment_FR_REAL,001,38,
,,,,,,,,,,,,,,,,,,,,,,,,,,,,,,,,,,,,,,,,,5,,,,,,,,,,2019_Apr_16_1704,60.04819467752818,Cloud_Experiment_FR_REAL,001,38,
,,,,,,,,,,,,,,,,,,,,,,,,,,,,,,,,,,,,,,,,,,3,,,,,,,,,2019_Apr_16_1704,60.04819467752818,Cloud_Experiment_FR_REAL,001,38,
,,,,,,,,,,,,,,,,,,,,,,,,,,,,,,,,,,,,,,,,,,,4,,,,,,,,2019_Apr_16_1704,60.04819467752818,Cloud_Experiment_FR_REAL,001,38,
,,,,,,,,,,,,,,,,,,,,,,,,,,,,,,,,,,,,,,,,,,,,,,,,space,2.41441319999,,2019_Apr_16_1704,60.04819467752818,Cloud_Experiment_FR_REAL,001,38,
images/fcloud80-20_D1_5.tif,1.0,2,,,,,,,,,0,0,0,79,,,,,,,,,,,,,,,4,None,,2,15.974,,,,,,,,,,,,,,,,,,2019_Apr_16_1704,60.04819467752818,Cloud_Experiment_FR_REAL,001,38,
images/fcloud80-20_D1.9_5.tif,1.9,2,,,,,,,,,0,1,1,106,,,,,,,,,,,,,,,2,None,,2,1.07,,,,,,,,,,,,,,,,,,2019_Apr_16_1704,60.04819467752818,Cloud_Experiment_FR_REAL,001,38,
images/fcloud65-35_D1.8_4.tif,1.8,1,,,,,,,,,0,2,2,66,,,,,,,,,,,,,,,2,space,7.68827809999,3,1.003,,,,,,,,,,,,,,,,,,2019_Apr_16_1704,60.04819467752818,Cloud_Experiment_FR_REAL,001,38,
images/fcloud_D1.9_5.tif,1.9,0,,,,,,,,,0,3,3,34,,,,,,,,,,,,,,,2,space,6.49675519997,2,1.451,,,,,,,,,,,,,,,,,,2019_Apr_16_1704,60.04819467752818,Cloud_Experiment_FR_REAL,001,38,
images/fcloud80-20_D1.8_4.tif,1.8,2,,,,,,,,,0,4,4,102,,,,,,,,,,,,,,,2,space,6.93883880001,2,3.3,,,,,,,,,,,,,,,,,,2019_Apr_16_1704,60.04819467752818,Cloud_Experiment_FR_REAL,001,38,
images/fcloud80-20_D1.7_5.tif,1.7,2,,,,,,,,,0,5,5,100,,,,,,,,,,,,,,,3,space,6.60806120001,2,1.133,,,,,,,,,,,,,,,,,,2019_Apr_16_1704,60.04819467752818,Cloud_Experiment_FR_REAL,001,38,
images/fcloud_D1.3_6.tif,1.3,0,,,,,,,,,0,6,6,17,,,,,,,,,,,,,,,4,space,2.9080921,3,0.853,,,,,,,,,,,,,,,,,,2019_Apr_16_1704,60.04819467752818,Cloud_Experiment_FR_REAL,001,38,
images/fcloud80-20_D1.8_5.tif,1.8,2,,,,,,,,,0,7,7,103,,,,,,,,,,,,,,,2,space,4.59925720003,2,0.834,,,,,,,,,,,,,,,,,,2019_Apr_16_1704,60.04819467752818,Cloud_Experiment_FR_REAL,001,38,
images/fcloud_D1.8_5.tif,1.8,0,,,,,,,,,0,8,8,31,,,,,,,,,,,,,,,3,space,2.08400199999,3,1.253,,,,,,,,,,,,,,,,,,2019_Apr_16_1704,60.04819467752818,Cloud_Experiment_FR_REAL,001,38,
images/fcloud80-20_D0.8_6.tif,0.8,2,,,,,,,,,0,9,9,74,,,,,,,,,,,,,,,1,space,2.41256170004,2,2.365,,,,,,,,,,,,,,,,,,2019_Apr_16_1704,60.04819467752818,Cloud_Experiment_FR_REAL,001,38,
images/fcloud65-35_D1.8_6.tif,1.8,1,,,,,,,,,0,10,10,68,,,,,,,,,,,,,,,3,space,6.19922479999,3,1.519,,,,,,,,,,,,,,,,,,2019_Apr_16_1704,60.04819467752818,Cloud_Experiment_FR_REAL,001,38,
images/fcloud65-35_D1.1_4.tif,1.1,1,,,,,,,,,0,11,11,45,,,,,,,,,,,,,,,2,space,2.58261599997,3,3.317,,,,,,,,,,,,,,,,,,2019_Apr_16_1704,60.04819467752818,Cloud_Experiment_FR_REAL,001,38,
images/fcloud80-20_D0.8_4.tif,0.8,2,,,,,,,,,0,12,12,72,,,,,,,,,,,,,,,1,space,3.22489110002,2,2.066,,,,,,,,,,,,,,,,,,2019_Apr_16_1704,60.04819467752818,Cloud_Experiment_FR_REAL,001,38,
images/fcloud65-35_D1.4_5.tif,1.4,1,,,,,,,,,0,13,13,55,,,,,,,,,,,,,,,2,space,3.83346260001,3,1.235,,,,,,,,,,,,,,,,,,2019_Apr_16_1704,60.04819467752818,Cloud_Experiment_FR_REAL,001,38,
images/fcloud80-20_D1.5_6.tif,1.5,2,,,,,,,,,0,14,14,95,,,,,,,,,,,,,,,2,space,2.78200900002,2,3.135,,,,,,,,,,,,,,,,,,2019_Apr_16_1704,60.04819467752818,Cloud_Experiment_FR_REAL,001,38,
images/fcloud_D0.9_4.tif,0.9,0,,,,,,,,,0,15,15,3,,,,,,,,,,,,,,,4,space,1.84969080001,3,10.044,,,,,,,,,,,,,,,,,,2019_Apr_16_1704,60.04819467752818,Cloud_Experiment_FR_REAL,001,38,
images/fcloud_D1.3_4.tif,1.3,0,,,,,,,,,0,16,16,15,,,,,,,,,,,,,,,3,space,3.3236148,3,1.552,,,,,,,,,,,,,,,,,,2019_Apr_16_1704,60.04819467752818,Cloud_Experiment_FR_REAL,001,38,
images/fcloud_D1.7_4.tif,1.7,0,,,,,,,,,0,17,17,27,,,,,,,,,,,,,,,4,space,1.87490760005,2,1.868,,,,,,,,,,,,,,,,,,2019_Apr_16_1704,60.04819467752818,Cloud_Experiment_FR_REAL,001,38,
images/fcloud_D0.8_4.tif,0.8,0,,,,,,,,,0,18,18,0,,,,,,,,,,,,,,,2,space,3.17377629998,2,0.917,,,,,,,,,,,,,,,,,,2019_Apr_16_1704,60.04819467752818,Cloud_Experiment_FR_REAL,001,38,
images/fcloud_D1.4_6.tif,1.4,0,,,,,,,,,0,19,19,20,,,,,,,,,,,,,,,2,space,5.79193040001,1,1.303,,,,,,,,,,,,,,,,,,2019_Apr_16_1704,60.04819467752818,Cloud_Experiment_FR_REAL,001,38,
images/fcloud80-20_D1.7_6.tif,1.7,2,,,,,,,,,0,20,20,101,,,,,,,,,,,,,,,1,space,3.72724550002,1,0.885,,,,,,,,,,,,,,,,,,2019_Apr_16_1704,60.04819467752818,Cloud_Experiment_FR_REAL,001,38,
images/fcloud_D1_5.tif,1.0,0,,,,,,,,,0,21,21,7,,,,,,,,,,,,,,,3,space,2.46682779997,1,1.252,,,,,,,,,,,,,,,,,,2019_Apr_16_1704,60.04819467752818,Cloud_Experiment_FR_REAL,001,38,
images/fcloud65-35_D1.5_4.tif,1.5,1,,,,,,,,,0,22,22,57,,,,,,,,,,,,,,,3,space,3.8229428,2,1.185,,,,,,,,,,,,,,,,,,2019_Apr_16_1704,60.04819467752818,Cloud_Experiment_FR_REAL,001,38,
images/fcloud80-20_D1.3_4.tif,1.3,2,,,,,,,,,0,23,23,87,,,,,,,,,,,,,,,2,space,6.40050010005,1,1.868,,,,,,,,,,,,,,,,,,2019_Apr_16_1704,60.04819467752818,Cloud_Experiment_FR_REAL,001,38,
images/fcloud_D1.7_5.tif,1.7,0,,,,,,,,,0,24,24,28,,,,,,,,,,,,,,,3,space,5.17057060002,2,2.285,,,,,,,,,,,,,,,,,,2019_Apr_16_1704,60.04819467752818,Cloud_Experiment_FR_REAL,001,38,
images/fcloud80-20_D1.5_5.tif,1.5,2,,,,,,,,,0,25,25,94,,,,,,,,,,,,,,,3,space,4.06509459997,2,1.185,,,,,,,,,,,,,,,,,,2019_Apr_16_1704,60.04819467752818,Cloud_Experiment_FR_REAL,001,38,
images/fcloud_D1.2_6.tif,1.2,0,,,,,,,,,0,26,26,14,,,,,,,,,,,,,,,2,space,2.6098184,3,2.785,,,,,,,,,,,,,,,,,,2019_Apr_16_1704,60.04819467752818,Cloud_Experiment_FR_REAL,001,38,
images/fcloud80-20_D1.5_4.tif,1.5,2,,,,,,,,,0,27,27,93,,,,,,,,,,,,,,,1,None,,2,0.969,,,,,,,,,,,,,,,,,,2019_Apr_16_1704,60.04819467752818,Cloud_Experiment_FR_REAL,001,38,
images/fcloud_D1.2_5.tif,1.2,0,,,,,,,,,0,28,28,13,,,,,,,,,,,,,,,4,space,2.28408739995,3,1.952,,,,,,,,,,,,,,,,,,2019_Apr_16_1704,60.04819467752818,Cloud_Experiment_FR_REAL,001,38,
images/fcloud80-20_D1.6_5.tif,1.6,2,,,,,,,,,0,29,29,97,,,,,,,,,,,,,,,1,space,4.36905799998,1,2.002,,,,,,,,,,,,,,,,,,2019_Apr_16_1704,60.04819467752818,Cloud_Experiment_FR_REAL,001,38,
images/fcloud_D1.2_4.tif,1.2,0,,,,,,,,,0,30,30,12,,,,,,,,,,,,,,,3,space,2.17138419999,2,1.201,,,,,,,,,,,,,,,,,,2019_Apr_16_1704,60.04819467752818,Cloud_Experiment_FR_REAL,001,38,
images/fcloud80-20_D1.4_4.tif,1.4,2,,,,,,,,,0,31,31,90,,,,,,,,,,,,,,,1,space,3.10751980002,1,1.134,,,,,,,,,,,,,,,,,,2019_Apr_16_1704,60.04819467752818,Cloud_Experiment_FR_REAL,001,38,
images/fcloud65-35_D1.5_5.tif,1.5,1,,,,,,,,,0,32,32,58,,,,,,,,,,,,,,,2,space,5.04759680002,1,0.62,,,,,,,,,,,,,,,,,,2019_Apr_16_1704,60.04819467752818,Cloud_Experiment_FR_REAL,001,38,
images/fcloud80-20_D1_6.tif,1.0,2,,,,,,,,,0,33,33,80,,,,,,,,,,,,,,,1,space,4.83067649999,1,0.585,,,,,,,,,,,,,,,,,,2019_Apr_16_1704,60.04819467752818,Cloud_Experiment_FR_REAL,001,38,
images/fcloud65-35_D0.9_5.tif,0.9,1,,,,,,,,,0,34,34,40,,,,,,,,,,,,,,,2,space,2.82107810001,2,0.769,,,,,,,,,,,,,,,,,,2019_Apr_16_1704,60.04819467752818,Cloud_Experiment_FR_REAL,001,38,
images/fcloud65-35_D1.4_4.tif,1.4,1,,,,,,,,,0,35,35,54,,,,,,,,,,,,,,,2,space,6.34409139998,2,0.819,,,,,,,,,,,,,,,,,,2019_Apr_16_1704,60.04819467752818,Cloud_Experiment_FR_REAL,001,38,
images/fcloud65-35_D1.3_5.tif,1.3,1,,,,,,,,,0,36,36,52,,,,,,,,,,,,,,,3,space,5.10387400002,2,1.001,,,,,,,,,,,,,,,,,,2019_Apr_16_1704,60.04819467752818,Cloud_Experiment_FR_REAL,001,38,
images/fcloud65-35_D1.4_6.tif,1.4,1,,,,,,,,,0,37,37,56,,,,,,,,,,,,,,,2,space,1.3631969,3,0.735,,,,,,,,,,,,,,,,,,2019_Apr_16_1704,60.04819467752818,Cloud_Experiment_FR_REAL,001,38,
images/fcloud65-35_D1.7_6.tif,1.7,1,,,,,,,,,0,38,38,65,,,,,,,,,,,,,,,1,space,4.13929989998,2,1.335,,,,,,,,,,,,,,,,,,2019_Apr_16_1704,60.04819467752818,Cloud_Experiment_FR_REAL,001,38,
images/fcloud65-35_D1.6_5.tif,1.6,1,,,,,,,,,0,39,39,61,,,,,,,,,,,,,,,1,space,6.16360009997,1,1.453,,,,,,,,,,,,,,,,,,2019_Apr_16_1704,60.04819467752818,Cloud_Experiment_FR_REAL,001,38,
images/fcloud80-20_D1_4.tif,1.0,2,,,,,,,,,0,40,40,78,,,,,,,,,,,,,,,2,space,6.28680930001,2,0.969,,,,,,,,,,,,,,,,,,2019_Apr_16_1704,60.04819467752818,Cloud_Experiment_FR_REAL,001,38,
images/fcloud80-20_D1.3_6.tif,1.3,2,,,,,,,,,0,41,41,89,,,,,,,,,,,,,,,2,space,4.0774911,3,2.101,,,,,,,,,,,,,,,,,,2019_Apr_16_1704,60.04819467752818,Cloud_Experiment_FR_REAL,001,38,
images/fcloud_D1.7_6.tif,1.7,0,,,,,,,,,0,42,42,29,,,,,,,,,,,,,,,2,space,3.1070741,1,1.352,,,,,,,,,,,,,,,,,,2019_Apr_16_1704,60.04819467752818,Cloud_Experiment_FR_REAL,001,38,
images/fcloud_D1.9_6.tif,1.9,0,,,,,,,,,0,43,43,35,,,,,,,,,,,,,,,1,space,4.6796875,1,0.786,,,,,,,,,,,,,,,,,,2019_Apr_16_1704,60.04819467752818,Cloud_Experiment_FR_REAL,001,38,
images/fcloud_D1.1_6.tif,1.1,0,,,,,,,,,0,44,44,11,,,,,,,,,,,,,,,3,space,3.32051519997,2,1.002,,,,,,,,,,,,,,,,,,2019_Apr_16_1704,60.04819467752818,Cloud_Experiment_FR_REAL,001,38,
images/fcloud80-20_D1.1_5.tif,1.1,2,,,,,,,,,0,45,45,82,,,,,,,,,,,,,,,2,space,3.73999579996,1,0.718,,,,,,,,,,,,,,,,,,2019_Apr_16_1704,60.04819467752818,Cloud_Experiment_FR_REAL,001,38,
images/fcloud80-20_D1.9_6.tif,1.9,2,,,,,,,,,0,46,46,107,,,,,,,,,,,,,,,1,space,7.34088000003,1,0.534,,,,,,,,,,,,,,,,,,2019_Apr_16_1704,60.04819467752818,Cloud_Experiment_FR_REAL,001,38,
images/fcloud65-35_D1_6.tif,1.0,1,,,,,,,,,0,47,47,44,,,,,,,,,,,,,,,3,space,2.36810219998,1,1.703,,,,,,,,,,,,,,,,,,2019_Apr_16_1704,60.04819467752818,Cloud_Experiment_FR_REAL,001,38,
images/fcloud_D1.6_4.tif,1.6,0,,,,,,,,,0,48,48,24,,,,,,,,,,,,,,,2,space,7.21476170002,2,0.801,,,,,,,,,,,,,,,,,,2019_Apr_16_1704,60.04819467752818,Cloud_Experiment_FR_REAL,001,38,
images/fcloud80-20_D1.2_4.tif,1.2,2,,,,,,,,,0,49,49,84,,,,,,,,,,,,,,,2,space,4.33933610003,1,4.0,,,,,,,,,,,,,,,,,,2019_Apr_16_1704,60.04819467752818,Cloud_Experiment_FR_REAL,001,38,
images/fcloud_D1.4_4.tif,1.4,0,,,,,,,,,0,50,50,18,,,,,,,,,,,,,,,3,space,1.50618809997,2,1.552,,,,,,,,,,,,,,,,,,2019_Apr_16_1704,60.04819467752818,Cloud_Experiment_FR_REAL,001,38,
images/fcloud80-20_D1.4_6.tif,1.4,2,,,,,,,,,0,51,51,92,,,,,,,,,,,,,,,1,space,5.14763270004,1,0.835,,,,,,,,,,,,,,,,,,2019_Apr_16_1704,60.04819467752818,Cloud_Experiment_FR_REAL,001,38,
images/fcloud_D1_6.tif,1.0,0,,,,,,,,,0,52,52,8,,,,,,,,,,,,,,,2,space,1.18725720001,5,2.55,,,,,,,,,,,,,,,,,,2019_Apr_16_1704,60.04819467752818,Cloud_Experiment_FR_REAL,001,38,
images/fcloud80-20_D1.6_4.tif,1.6,2,,,,,,,,,0,53,53,96,,,,,,,,,,,,,,,2,space,4.71428650001,1,0.703,,,,,,,,,,,,,,,,,,2019_Apr_16_1704,60.04819467752818,Cloud_Experiment_FR_REAL,001,38,
images/fcloud65-35_D1.7_4.tif,1.7,1,,,,,,,,,0,54,54,63,,,,,,,,,,,,,,,2,space,4.18311659998,1,1.2,,,,,,,,,,,,,,,,,,2019_Apr_16_1704,60.04819467752818,Cloud_Experiment_FR_REAL,001,38,
images/fcloud80-20_D1.9_4.tif,1.9,2,,,,,,,,,0,55,55,105,,,,,,,,,,,,,,,3,space,1.53182109998,1,0.6,,,,,,,,,,,,,,,,,,2019_Apr_16_1704,60.04819467752818,Cloud_Experiment_FR_REAL,001,38,
images/fcloud_D1.8_4.tif,1.8,0,,,,,,,,,0,56,56,30,,,,,,,,,,,,,,,2,space,2.70395970001,1,0.701,,,,,,,,,,,,,,,,,,2019_Apr_16_1704,60.04819467752818,Cloud_Experiment_FR_REAL,001,38,
images/fcloud65-35_D0.9_6.tif,0.9,1,,,,,,,,,0,57,57,41,,,,,,,,,,,,,,,3,space,3.40433519997,2,0.669,,,,,,,,,,,,,,,,,,2019_Apr_16_1704,60.04819467752818,Cloud_Experiment_FR_REAL,001,38,
images/fcloud80-20_D1.2_5.tif,1.2,2,,,,,,,,,0,58,58,85,,,,,,,,,,,,,,,2,space,4.28848009999,1,0.653,,,,,,,,,,,,,,,,,,2019_Apr_16_1704,60.04819467752818,Cloud_Experiment_FR_REAL,001,38,
images/fcloud65-35_D1.1_6.tif,1.1,1,,,,,,,,,0,59,59,47,,,,,,,,,,,,,,,3,space,2.52448140003,1,1.45,,,,,,,,,,,,,,,,,,2019_Apr_16_1704,60.04819467752818,Cloud_Experiment_FR_REAL,001,38,
images/fcloud65-35_D1.2_5.tif,1.2,1,,,,,,,,,0,60,60,49,,,,,,,,,,,,,,,2,space,2.19433949998,2,0.787,,,,,,,,,,,,,,,,,,2019_Apr_16_1704,60.04819467752818,Cloud_Experiment_FR_REAL,001,38,
images/fcloud80-20_D0.9_5.tif,0.9,2,,,,,,,,,0,61,61,76,,,,,,,,,,,,,,,1,space,2.59877429996,2,0.801,,,,,,,,,,,,,,,,,,2019_Apr_16_1704,60.04819467752818,Cloud_Experiment_FR_REAL,001,38,
images/fcloud_D1.5_6.tif,1.5,0,,,,,,,,,0,62,62,23,,,,,,,,,,,,,,,2,space,3.01902130002,3,4.602,,,,,,,,,,,,,,,,,,2019_Apr_16_1704,60.04819467752818,Cloud_Experiment_FR_REAL,001,38,
images/fcloud_D1.9_4.tif,1.9,0,,,,,,,,,0,63,63,33,,,,,,,,,,,,,,,1,space,7.06847619999,1,5.964,,,,,,,,,,,,,,,,,,2019_Apr_16_1704,60.04819467752818,Cloud_Experiment_FR_REAL,001,38,
images/fcloud65-35_D1.6_6.tif,1.6,1,,,,,,,,,0,64,64,62,,,,,,,,,,,,,,,1,space,3.85853900004,2,0.586,,,,,,,,,,,,,,,,,,2019_Apr_16_1704,60.04819467752818,Cloud_Experiment_FR_REAL,001,38,
images/fcloud65-35_D1.2_4.tif,1.2,1,,,,,,,,,0,65,65,48,,,,,,,,,,,,,,,2,space,1.3498269,2,4.05,,,,,,,,,,,,,,,,,,2019_Apr_16_1704,60.04819467752818,Cloud_Experiment_FR_REAL,001,38,
images/fcloud_D1.5_5.tif,1.5,0,,,,,,,,,0,66,66,22,,,,,,,,,,,,,,,4,space,3.62055749999,3,1.384,,,,,,,,,,,,,,,,,,2019_Apr_16_1704,60.04819467752818,Cloud_Experiment_FR_REAL,001,38,
images/fcloud80-20_D1.1_4.tif,1.1,2,,,,,,,,,0,67,67,81,,,,,,,,,,,,,,,1,space,2.95508699998,1,0.453,,,,,,,,,,,,,,,,,,2019_Apr_16_1704,60.04819467752818,Cloud_Experiment_FR_REAL,001,38,
images/fcloud_D1.3_5.tif,1.3,0,,,,,,,,,0,68,68,16,,,,,,,,,,,,,,,4,space,4.63982630003,1,0.602,,,,,,,,,,,,,,,,,,2019_Apr_16_1704,60.04819467752818,Cloud_Experiment_FR_REAL,001,38,
images/fcloud_D1.1_5.tif,1.1,0,,,,,,,,,0,69,69,10,,,,,,,,,,,,,,,3,space,3.29416230001,2,1.685,,,,,,,,,,,,,,,,,,2019_Apr_16_1704,60.04819467752818,Cloud_Experiment_FR_REAL,001,38,
images/fcloud65-35_D1.3_4.tif,1.3,1,,,,,,,,,0,70,70,51,,,,,,,,,,,,,,,2,space,4.24456219998,1,0.671,,,,,,,,,,,,,,,,,,2019_Apr_16_1704,60.04819467752818,Cloud_Experiment_FR_REAL,001,38,
images/fcloud_D1.6_6.tif,1.6,0,,,,,,,,,0,71,71,26,,,,,,,,,,,,,,,2,space,3.29391859996,2,1.585,,,,,,,,,,,,,,,,,,2019_Apr_16_1704,60.04819467752818,Cloud_Experiment_FR_REAL,001,38,
images/fcloud65-35_D1.3_6.tif,1.3,1,,,,,,,,,0,72,72,53,,,,,,,,,,,,,,,3,space,2.52003140002,1,1.634,,,,,,,,,,,,,,,,,,2019_Apr_16_1704,60.04819467752818,Cloud_Experiment_FR_REAL,001,38,
images/fcloud65-35_D1.2_6.tif,1.2,1,,,,,,,,,0,73,73,50,,,,,,,,,,,,,,,2,space,4.09939270001,1,0.621,,,,,,,,,,,,,,,,,,2019_Apr_16_1704,60.04819467752818,Cloud_Experiment_FR_REAL,001,38,
images/fcloud65-35_D0.8_6.tif,0.8,1,,,,,,,,,0,74,74,38,,,,,,,,,,,,,,,2,space,3.49753230001,1,0.587,,,,,,,,,,,,,,,,,,2019_Apr_16_1704,60.04819467752818,Cloud_Experiment_FR_REAL,001,38,
images/fcloud_D0.8_5.tif,0.8,0,,,,,,,,,0,75,75,1,,,,,,,,,,,,,,,3,space,1.3878884,1,1.169,,,,,,,,,,,,,,,,,,2019_Apr_16_1704,60.04819467752818,Cloud_Experiment_FR_REAL,001,38,
images/fcloud65-35_D1.9_4.tif,1.9,1,,,,,,,,,0,76,76,69,,,,,,,,,,,,,,,2,space,4.43923979998,1,0.501,,,,,,,,,,,,,,,,,,2019_Apr_16_1704,60.04819467752818,Cloud_Experiment_FR_REAL,001,38,
images/fcloud65-35_D1.9_5.tif,1.9,1,,,,,,,,,0,77,77,70,,,,,,,,,,,,,,,1,space,4.93569790001,4,2.035,,,,,,,,,,,,,,,,,,2019_Apr_16_1704,60.04819467752818,Cloud_Experiment_FR_REAL,001,38,
images/fcloud_D1.1_4.tif,1.1,0,,,,,,,,,0,78,78,9,,,,,,,,,,,,,,,2,space,2.0050306,3,0.603,,,,,,,,,,,,,,,,,,2019_Apr_16_1704,60.04819467752818,Cloud_Experiment_FR_REAL,001,38,
images/fcloud65-35_D1.1_5.tif,1.1,1,,,,,,,,,0,79,79,46,,,,,,,,,,,,,,,1,space,6.11593549995,1,9.744,,,,,,,,,,,,,,,,,,2019_Apr_16_1704,60.04819467752818,Cloud_Experiment_FR_REAL,001,38,
images/fcloud65-35_D1.7_5.tif,1.7,1,,,,,,,,,0,80,80,64,,,,,,,,,,,,,,,1,space,7.99944089999,2,2.434,,,,,,,,,,,,,,,,,,2019_Apr_16_1704,60.04819467752818,Cloud_Experiment_FR_REAL,001,38,
images/fcloud_D1.8_6.tif,1.8,0,,,,,,,,,0,81,81,32,,,,,,,,,,,,,,,1,space,5.60799399996,2,0.768,,,,,,,,,,,,,,,,,,2019_Apr_16_1704,60.04819467752818,Cloud_Experiment_FR_REAL,001,38,
images/fcloud80-20_D0.8_5.tif,0.8,2,,,,,,,,,0,82,82,73,,,,,,,,,,,,,,,2,space,2.57957429998,2,0.92,,,,,,,,,,,,,,,,,,2019_Apr_16_1704,60.04819467752818,Cloud_Experiment_FR_REAL,001,38,
images/fcloud80-20_D0.9_4.tif,0.9,2,,,,,,,,,0,83,83,75,,,,,,,,,,,,,,,1,space,1.66919620003,2,0.884,,,,,,,,,,,,,,,,,,2019_Apr_16_1704,60.04819467752818,Cloud_Experiment_FR_REAL,001,38,
images/fcloud65-35_D1.8_5.tif,1.8,1,,,,,,,,,0,84,84,67,,,,,,,,,,,,,,,1,space,3.38011000003,2,1.469,,,,,,,,,,,,,,,,,,2019_Apr_16_1704,60.04819467752818,Cloud_Experiment_FR_REAL,001,38,
images/fcloud65-35_D0.8_5.tif,0.8,1,,,,,,,,,0,85,85,37,,,,,,,,,,,,,,,2,space,5.10373429995,1,0.618,,,,,,,,,,,,,,,,,,2019_Apr_16_1704,60.04819467752818,Cloud_Experiment_FR_REAL,001,38,
images/fcloud_D1.6_5.tif,1.6,0,,,,,,,,,0,86,86,25,,,,,,,,,,,,,,,2,space,4.96422219998,2,1.25,,,,,,,,,,,,,,,,,,2019_Apr_16_1704,60.04819467752818,Cloud_Experiment_FR_REAL,001,38,
images/fcloud80-20_D1.8_6.tif,1.8,2,,,,,,,,,0,87,87,104,,,,,,,,,,,,,,,None,None,,None,9.71,,,,,,,,,,,,,,,,,,2019_Apr_16_1704,60.04819467752818,Cloud_Experiment_FR_REAL,001,38,
images/fcloud80-20_D1.7_4.tif,1.7,2,,,,,,,,,0,88,88,99,,,,,,,,,,,,,,,1,space,5.71645049995,1,0.719,,,,,,,,,,,,,,,,,,2019_Apr_16_1704,60.04819467752818,Cloud_Experiment_FR_REAL,001,38,
images/fcloud80-20_D1.2_6.tif,1.2,2,,,,,,,,,0,89,89,86,,,,,,,,,,,,,,,3,space,5.83921210002,2,0.835,,,,,,,,,,,,,,,,,,2019_Apr_16_1704,60.04819467752818,Cloud_Experiment_FR_REAL,001,38,
images/fcloud65-35_D1.6_4.tif,1.6,1,,,,,,,,,0,90,90,60,,,,,,,,,,,,,,,2,space,7.34691170003,1,0.951,,,,,,,,,,,,,,,,,,2019_Apr_16_1704,60.04819467752818,Cloud_Experiment_FR_REAL,001,38,
images/fcloud80-20_D1.3_5.tif,1.3,2,,,,,,,,,0,91,91,88,,,,,,,,,,,,,,,3,space,3.78620480001,1,0.501,,,,,,,,,,,,,,,,,,2019_Apr_16_1704,60.04819467752818,Cloud_Experiment_FR_REAL,001,38,
images/fcloud80-20_D1.6_6.tif,1.6,2,,,,,,,,,0,92,92,98,,,,,,,,,,,,,,,None,None,,None,9.742,,,,,,,,,,,,,,,,,,2019_Apr_16_1704,60.04819467752818,Cloud_Experiment_FR_REAL,001,38,
images/fcloud_D0.9_6.tif,0.9,0,,,,,,,,,0,93,93,5,,,,,,,,,,,,,,,2,space,1.80240760004,2,1.371,,,,,,,,,,,,,,,,,,2019_Apr_16_1704,60.04819467752818,Cloud_Experiment_FR_REAL,001,38,
images/fcloud80-20_D1.4_5.tif,1.4,2,,,,,,,,,0,94,94,91,,,,,,,,,,,,,,,1,space,4.2125734,2,0.969,,,,,,,,,,,,,,,,,,2019_Apr_16_1704,60.04819467752818,Cloud_Experiment_FR_REAL,001,38,
images/fcloud65-35_D1.9_6.tif,1.9,1,,,,,,,,,0,95,95,71,,,,,,,,,,,,,,,None,None,,None,10.128,,,,,,,,,,,,,,,,,,2019_Apr_16_1704,60.04819467752818,Cloud_Experiment_FR_REAL,001,38,
images/fcloud80-20_D0.9_6.tif,0.9,2,,,,,,,,,0,96,96,77,,,,,,,,,,,,,,,1,space,6.05047660001,1,1.783,,,,,,,,,,,,,,,,,,2019_Apr_16_1704,60.04819467752818,Cloud_Experiment_FR_REAL,001,38,
images/fcloud65-35_D1_5.tif,1.0,1,,,,,,,,,0,97,97,43,,,,,,,,,,,,,,,2,space,3.8657962,2,0.72,,,,,,,,,,,,,,,,,,2019_Apr_16_1704,60.04819467752818,Cloud_Experiment_FR_REAL,001,38,
images/fcloud65-35_D1_4.tif,1.0,1,,,,,,,,,0,98,98,42,,,,,,,,,,,,,,,2,space,6.17959950003,1,0.554,,,,,,,,,,,,,,,,,,2019_Apr_16_1704,60.04819467752818,Cloud_Experiment_FR_REAL,001,38,
images/fcloud65-35_D0.9_4.tif,0.9,1,,,,,,,,,0,99,99,39,,,,,,,,,,,,,,,1,space,1.2785749,4,4.948,,,,,,,,,,,,,,,,,,2019_Apr_16_1704,60.04819467752818,Cloud_Experiment_FR_REAL,001,38,
images/fcloud_D1_4.tif,1.0,0,,,,,,,,,0,100,100,6,,,,,,,,,,,,,,,4,space,3.2133153,4,1.786,,,,,,,,,,,,,,,,,,2019_Apr_16_1704,60.04819467752818,Cloud_Experiment_FR_REAL,001,38,
images/fcloud_D0.9_5.tif,0.9,0,,,,,,,,,0,101,101,4,,,,,,,,,,,,,,,2,space,3.71196629998,2,2.7,,,,,,,,,,,,,,,,,,2019_Apr_16_1704,60.04819467752818,Cloud_Experiment_FR_REAL,001,38,
images/fcloud65-35_D0.8_4.tif,0.8,1,,,,,,,,,0,102,102,36,,,,,,,,,,,,,,,2,space,2.33785449999,3,0.819,,,,,,,,,,,,,,,,,,2019_Apr_16_1704,60.04819467752818,Cloud_Experiment_FR_REAL,001,38,
images/fcloud_D1.4_5.tif,1.4,0,,,,,,,,,0,103,103,19,,,,,,,,,,,,,,,3,space,2.71507059998,2,2.699,,,,,,,,,,,,,,,,,,2019_Apr_16_1704,60.04819467752818,Cloud_Experiment_FR_REAL,001,38,
images/fcloud80-20_D1.1_6.tif,1.1,2,,,,,,,,,0,104,104,83,,,,,,,,,,,,,,,2,space,2.12588210002,2,0.736,,,,,,,,,,,,,,,,,,2019_Apr_16_1704,60.04819467752818,Cloud_Experiment_FR_REAL,001,38,
images/fcloud65-35_D1.5_6.tif,1.5,1,,,,,,,,,0,105,105,59,,,,,,,,,,,,,,,2,space,3.07748430001,2,0.553,,,,,,,,,,,,,,,,,,2019_Apr_16_1704,60.04819467752818,Cloud_Experiment_FR_REAL,001,38,
images/fcloud_D1.5_4.tif,1.5,0,,,,,,,,,0,106,106,21,,,,,,,,,,,,,,,1,space,3.9472154,3,1.22,,,,,,,,,,,,,,,,,,2019_Apr_16_1704,60.04819467752818,Cloud_Experiment_FR_REAL,001,38,
images/fcloud_D0.8_6.tif,0.8,0,,,,,,,,,0,107,107,2,,,,,,,,,,,,,,,2,space,5.27075279999,1,8.945,,,,,,,,,,,,,,,,,,2019_Apr_16_1704,60.04819467752818,Cloud_Experiment_FR_REAL,001,38,
,,,,,,,,,,,,,,,,,,,,,,,,,,,,,,,,,,,,,,,,,,,,,,space,8.96265500004,,,,2019_Apr_16_1704,60.04819467752818,Cloud_Experiment_FR_REAL,001,38,
,,,,,,,,,,,,,,,,,,,,,,,,,3,9.35,,,,,,,,,,,,,,,,,,,,,,,,,2019_Apr_16_1704,60.04819467752818,Cloud_Experiment_FR_REAL,001,38,
,,,,,,,,,,,,,,,,,,,,,,,,,,,,,,,,,,4,,,,,,,,,,,,,,,,,2019_Apr_16_1704,60.04819467752818,Cloud_Experiment_FR_REAL,001,38,
,,,,,,,,,,,,,,,,,,,,,,,,,,,,,,,,,,,4,,,,,,,,,,,,,,,,2019_Apr_16_1704,60.04819467752818,Cloud_Experiment_FR_REAL,001,38,
,,,,,,,,,,,,,,,,,,,,,,,,,,,,,,,,,,,,4,,,,,,,,,,,,,,,2019_Apr_16_1704,60.04819467752818,Cloud_Experiment_FR_REAL,001,38,
,,,,,,,,,,,,,,,,,,,,,,,,,,,,,,,,,,,,,3,,,,,,,,,,,,,,2019_Apr_16_1704,60.04819467752818,Cloud_Experiment_FR_REAL,001,38,
,,,,,,,,,,,,,,,,,,,,,,,,,,,,,,,,,,,,,,2,,,,,,,,,,,,,2019_Apr_16_1704,60.04819467752818,Cloud_Experiment_FR_REAL,001,38,
,,,,,,,,,,,,,,,,,,,,,,,,,,,,,,,,,,,,,,,5,,,,,,,,,,,,2019_Apr_16_1704,60.04819467752818,Cloud_Experiment_FR_REAL,001,38,
,,,,,,,,,,,,,,,,,,,,,,,,,,,,,,,,,,,,,,,,4,,,,,,,,,,,2019_Apr_16_1704,60.04819467752818,Cloud_Experiment_FR_REAL,001,38,
,,,,,,,,,,,,,,,,,,,,,,,,,,,,,,,,,,,,,,,,,6,,,,,,,,,,2019_Apr_16_1704,60.04819467752818,Cloud_Experiment_FR_REAL,001,38,
,,,,,,,,,,,,,,,,,,,,,,,,,,,,,,,,,,,,,,,,,,5,,,,,,,,,2019_Apr_16_1704,60.04819467752818,Cloud_Experiment_FR_REAL,001,38,
,,,,,,,,,,,,,,,,,,,,,,,,,,,,,,,,,,,,,,,,,,,4,,,,,,,,2019_Apr_16_1704,60.04819467752818,Cloud_Experiment_FR_REAL,001,38,
,,,,,,,,,,,,,,,,,,,,,,,,,,,,,,,,,,,,,,,,,,,,,,,,space,3007.246965,,2019_Apr_16_1704,60.04819467752818,Cloud_Experiment_FR_REAL,001,38,
images/fcloud80-20_D0.9_9.tif,0.9,2,,,,,,,,,,,,,0,0,0,102,,,,,,,,,,,3,space,3.436613,1,2.234,,,,,,,,,,,,,,,,,,2019_Apr_16_1704,60.04819467752818,Cloud_Experiment_FR_REAL,001,38,
images/fcloud_D0.8_7.tif,0.8,0,,,,,,,,,,,,,0,1,1,0,,,,,,,,,,,5,space,1.64902509999,3,0.952,,,,,,,,,,,,,,,,,,2019_Apr_16_1704,60.04819467752818,Cloud_Experiment_FR_REAL,001,38,
images/fcloud65-35_D1.1_7.tif,1.1,1,,,,,,,,,,,,,0,2,2,60,,,,,,,,,,,2,space,5.83422139997,1,1.802,,,,,,,,,,,,,,,,,,2019_Apr_16_1704,60.04819467752818,Cloud_Experiment_FR_REAL,001,38,
images/fcloud65-35_D1.7_9.tif,1.7,1,,,,,,,,,,,,,0,3,3,86,,,,,,,,,,,1,space,5.067538,1,0.734,,,,,,,,,,,,,,,,,,2019_Apr_16_1704,60.04819467752818,Cloud_Experiment_FR_REAL,001,38,
images/fcloud_D1.2_8.tif,1.2,0,,,,,,,,,,,,,0,4,4,17,,,,,,,,,,,1,space,4.69787900004,1,1.002,,,,,,,,,,,,,,,,,,2019_Apr_16_1704,60.04819467752818,Cloud_Experiment_FR_REAL,001,38,
images/fcloud80-20_D0.8_7.tif,0.8,2,,,,,,,,,,,,,0,5,5,96,,,,,,,,,,,1,space,6.01111989998,1,0.536,,,,,,,,,,,,,,,,,,2019_Apr_16_1704,60.04819467752818,Cloud_Experiment_FR_REAL,001,38,
images/fcloud80-20_D1.4_8.tif,1.4,2,,,,,,,,,,,,,0,6,6,121,,,,,,,,,,,1,space,6.77396049997,1,0.669,,,,,,,,,,,,,,,,,,2019_Apr_16_1704,60.04819467752818,Cloud_Experiment_FR_REAL,001,38,
images/fcloud80-20_D1_8.tif,1.0,2,,,,,,,,,,,,,0,7,7,105,,,,,,,,,,,1,space,4.15553039999,1,0.603,,,,,,,,,,,,,,,,,,2019_Apr_16_1704,60.04819467752818,Cloud_Experiment_FR_REAL,001,38,
images/fcloud_D1.3_10.tif,1.3,0,,,,,,,,,,,,,0,8,8,23,,,,,,,,,,,4,space,1.8972297,2,1.202,,,,,,,,,,,,,,,,,,2019_Apr_16_1704,60.04819467752818,Cloud_Experiment_FR_REAL,001,38,
images/fcloud_D1.7_8.tif,1.7,0,,,,,,,,,,,,,0,9,9,37,,,,,,,,,,,3,space,4.24845999997,2,0.767,,,,,,,,,,,,,,,,,,2019_Apr_16_1704,60.04819467752818,Cloud_Experiment_FR_REAL,001,38,
images/fcloud65-35_D1.6_7.tif,1.6,1,,,,,,,,,,,,,0,10,10,80,,,,,,,,,,,2,space,4.72179490002,2,1.418,,,,,,,,,,,,,,,,,,2019_Apr_16_1704,60.04819467752818,Cloud_Experiment_FR_REAL,001,38,
images/fcloud80-20_D0.9_8.tif,0.9,2,,,,,,,,,,,,,0,11,11,101,,,,,,,,,,,1,space,6.89023070002,1,0.559,,,,,,,,,,,,,,,,,,2019_Apr_16_1704,60.04819467752818,Cloud_Experiment_FR_REAL,001,38,
images/fcloud_D1.5_10.tif,1.5,0,,,,,,,,,,,,,0,12,12,31,,,,,,,,,,,3,space,1.9496084,2,0.603,,,,,,,,,,,,,,,,,,2019_Apr_16_1704,60.04819467752818,Cloud_Experiment_FR_REAL,001,38,
images/fcloud80-20_D1.5_10.tif,1.5,2,,,,,,,,,,,,,0,13,13,127,,,,,,,,,,,2,space,7.02903169999,1,0.651,,,,,,,,,,,,,,,,,,2019_Apr_16_1704,60.04819467752818,Cloud_Experiment_FR_REAL,001,38,
images/fcloud80-20_D1.2_8.tif,1.2,2,,,,,,,,,,,,,0,14,14,113,,,,,,,,,,,1,space,7.22903790005,1,0.453,,,,,,,,,,,,,,,,,,2019_Apr_16_1704,60.04819467752818,Cloud_Experiment_FR_REAL,001,38,
images/fcloud65-35_D1.7_7.tif,1.7,1,,,,,,,,,,,,,0,15,15,84,,,,,,,,,,,1,space,7.1644213,1,0.536,,,,,,,,,,,,,,,,,,2019_Apr_16_1704,60.04819467752818,Cloud_Experiment_FR_REAL,001,38,
images/fcloud65-35_D1.4_8.tif,1.4,1,,,,,,,,,,,,,0,16,16,73,,,,,,,,,,,3,space,1.8165668,2,0.658,,,,,,,,,,,,,,,,,,2019_Apr_16_1704,60.04819467752818,Cloud_Experiment_FR_REAL,001,38,
images/fcloud80-20_D1_10.tif,1.0,2,,,,,,,,,,,,,0,17,17,107,,,,,,,,,,,1,space,4.29314690002,1,0.753,,,,,,,,,,,,,,,,,,2019_Apr_16_1704,60.04819467752818,Cloud_Experiment_FR_REAL,001,38,
images/fcloud80-20_D1.9_7.tif,1.9,2,,,,,,,,,,,,,0,18,18,140,,,,,,,,,,,1,space,2.36939150002,2,2.004,,,,,,,,,,,,,,,,,,2019_Apr_16_1704,60.04819467752818,Cloud_Experiment_FR_REAL,001,38,
images/fcloud80-20_D1.1_7.tif,1.1,2,,,,,,,,,,,,,0,19,19,108,,,,,,,,,,,3,space,6.5258908,1,0.668,,,,,,,,,,,,,,,,,,2019_Apr_16_1704,60.04819467752818,Cloud_Experiment_FR_REAL,001,38,
images/fcloud65-35_D1.6_8.tif,1.6,1,,,,,,,,,,,,,0,20,20,81,,,,,,,,,,,2,space,7.84574439999,1,0.935,,,,,,,,,,,,,,,,,,2019_Apr_16_1704,60.04819467752818,Cloud_Experiment_FR_REAL,001,38,
images/fcloud65-35_D0.8_7.tif,0.8,1,,,,,,,,,,,,,0,21,21,48,,,,,,,,,,,2,space,5.84617499996,1,0.536,,,,,,,,,,,,,,,,,,2019_Apr_16_1704,60.04819467752818,Cloud_Experiment_FR_REAL,001,38,
images/fcloud_D1.9_10.tif,1.9,0,,,,,,,,,,,,,0,22,22,47,,,,,,,,,,,2,space,5.68857669999,1,1.701,,,,,,,,,,,,,,,,,,2019_Apr_16_1704,60.04819467752818,Cloud_Experiment_FR_REAL,001,38,
images/fcloud80-20_D0.8_9.tif,0.8,2,,,,,,,,,,,,,0,23,23,98,,,,,,,,,,,1,space,2.04440120002,3,2.698,,,,,,,,,,,,,,,,,,2019_Apr_16_1704,60.04819467752818,Cloud_Experiment_FR_REAL,001,38,
images/fcloud80-20_D1.3_7.tif,1.3,2,,,,,,,,,,,,,0,24,24,116,,,,,,,,,,,2,None,,2,0.939,,,,,,,,,,,,,,,,,,2019_Apr_16_1704,60.04819467752818,Cloud_Experiment_FR_REAL,001,38,
images/fcloud80-20_D1.6_8.tif,1.6,2,,,,,,,,,,,,,0,25,25,129,,,,,,,,,,,1,None,,1,0.52,,,,,,,,,,,,,,,,,,2019_Apr_16_1704,60.04819467752818,Cloud_Experiment_FR_REAL,001,38,
images/fcloud_D1.1_8.tif,1.1,0,,,,,,,,,,,,,0,26,26,13,,,,,,,,,,,4,space,2.46341610001,3,0.419,,,,,,,,,,,,,,,,,,2019_Apr_16_1704,60.04819467752818,Cloud_Experiment_FR_REAL,001,38,
images/fcloud80-20_D1.7_10.tif,1.7,2,,,,,,,,,,,,,0,27,27,135,,,,,,,,,,,None,None,,None,9.41,,,,,,,,,,,,,,,,,,2019_Apr_16_1704,60.04819467752818,Cloud_Experiment_FR_REAL,001,38,
images/fcloud65-35_D1.1_10.tif,1.1,1,,,,,,,,,,,,,0,28,28,63,,,,,,,,,,,2,space,2.26692789997,3,0.554,,,,,,,,,,,,,,,,,,2019_Apr_16_1704,60.04819467752818,Cloud_Experiment_FR_REAL,001,38,
images/fcloud80-20_D1.6_7.tif,1.6,2,,,,,,,,,,,,,0,29,29,128,,,,,,,,,,,3,space,3.0359124,2,0.553,,,,,,,,,,,,,,,,,,2019_Apr_16_1704,60.04819467752818,Cloud_Experiment_FR_REAL,001,38,
images/fcloud65-35_D1.5_8.tif,1.5,1,,,,,,,,,,,,,0,30,30,77,,,,,,,,,,,4,space,3.85094199999,2,2.002,,,,,,,,,,,,,,,,,,2019_Apr_16_1704,60.04819467752818,Cloud_Experiment_FR_REAL,001,38,
images/fcloud80-20_D1.4_7.tif,1.4,2,,,,,,,,,,,,,0,31,31,120,,,,,,,,,,,1,space,7.04452890001,1,1.318,,,,,,,,,,,,,,,,,,2019_Apr_16_1704,60.04819467752818,Cloud_Experiment_FR_REAL,001,38,
images/fcloud_D0.9_8.tif,0.9,0,,,,,,,,,,,,,0,32,32,5,,,,,,,,,,,None,None,,None,10.743,,,,,,,,,,,,,,,,,,2019_Apr_16_1704,60.04819467752818,Cloud_Experiment_FR_REAL,001,38,
images/fcloud_D1.9_8.tif,1.9,0,,,,,,,,,,,,,0,33,33,45,,,,,,,,,,,2,space,1.4315301,3,1.386,,,,,,,,,,,,,,,,,,2019_Apr_16_1704,60.04819467752818,Cloud_Experiment_FR_REAL,001,38,
images/fcloud65-35_D0.9_8.tif,0.9,1,,,,,,,,,,,,,0,34,34,53,,,,,,,,,,,2,space,2.67438029998,2,0.802,,,,,,,,,,,,,,,,,,2019_Apr_16_1704,60.04819467752818,Cloud_Experiment_FR_REAL,001,38,
images/fcloud_D1.9_9.tif,1.9,0,,,,,,,,,,,,,0,35,35,46,,,,,,,,,,,1,space,4.13417760003,1,0.619,,,,,,,,,,,,,,,,,,2019_Apr_16_1704,60.04819467752818,Cloud_Experiment_FR_REAL,001,38,
images/fcloud65-35_D1.2_7.tif,1.2,1,,,,,,,,,,,,,0,36,36,64,,,,,,,,,,,2,space,3.36918600003,3,0.704,,,,,,,,,,,,,,,,,,2019_Apr_16_1704,60.04819467752818,Cloud_Experiment_FR_REAL,001,38,
images/fcloud65-35_D1_9.tif,1.0,1,,,,,,,,,,,,,0,37,37,58,,,,,,,,,,,3,space,3.95479220001,3,1.002,,,,,,,,,,,,,,,,,,2019_Apr_16_1704,60.04819467752818,Cloud_Experiment_FR_REAL,001,38,
images/fcloud80-20_D1.7_9.tif,1.7,2,,,,,,,,,,,,,0,38,38,134,,,,,,,,,,,2,space,4.41786340001,2,0.486,,,,,,,,,,,,,,,,,,2019_Apr_16_1704,60.04819467752818,Cloud_Experiment_FR_REAL,001,38,
images/fcloud80-20_D1.1_10.tif,1.1,2,,,,,,,,,,,,,0,39,39,111,,,,,,,,,,,1,space,7.2925561,1,1.119,,,,,,,,,,,,,,,,,,2019_Apr_16_1704,60.04819467752818,Cloud_Experiment_FR_REAL,001,38,
images/fcloud_D0.9_7.tif,0.9,0,,,,,,,,,,,,,0,40,40,4,,,,,,,,,,,3,space,1.85979640001,4,1.036,,,,,,,,,,,,,,,,,,2019_Apr_16_1704,60.04819467752818,Cloud_Experiment_FR_REAL,001,38,
images/fcloud65-35_D1.8_7.tif,1.8,1,,,,,,,,,,,,,0,41,41,88,,,,,,,,,,,3,space,2.23786620004,3,1.12,,,,,,,,,,,,,,,,,,2019_Apr_16_1704,60.04819467752818,Cloud_Experiment_FR_REAL,001,38,
images/fcloud80-20_D1.2_7.tif,1.2,2,,,,,,,,,,,,,0,42,42,112,,,,,,,,,,,2,space,6.65381470002,2,0.603,,,,,,,,,,,,,,,,,,2019_Apr_16_1704,60.04819467752818,Cloud_Experiment_FR_REAL,001,38,
images/fcloud65-35_D0.8_10.tif,0.8,1,,,,,,,,,,,,,0,43,43,51,,,,,,,,,,,2,space,3.14137960004,1,0.736,,,,,,,,,,,,,,,,,,2019_Apr_16_1704,60.04819467752818,Cloud_Experiment_FR_REAL,001,38,
images/fcloud80-20_D1.4_10.tif,1.4,2,,,,,,,,,,,,,0,44,44,123,,,,,,,,,,,2,space,1.30452359997,2,1.018,,,,,,,,,,,,,,,,,,2019_Apr_16_1704,60.04819467752818,Cloud_Experiment_FR_REAL,001,38,
images/fcloud_D1_7.tif,1.0,0,,,,,,,,,,,,,0,45,45,8,,,,,,,,,,,3,space,2.55266410002,3,0.735,,,,,,,,,,,,,,,,,,2019_Apr_16_1704,60.04819467752818,Cloud_Experiment_FR_REAL,001,38,
images/fcloud65-35_D1.8_10.tif,1.8,1,,,,,,,,,,,,,0,46,46,91,,,,,,,,,,,2,space,4.45276029996,1,1.37,,,,,,,,,,,,,,,,,,2019_Apr_16_1704,60.04819467752818,Cloud_Experiment_FR_REAL,001,38,
images/fcloud80-20_D1.8_8.tif,1.8,2,,,,,,,,,,,,,0,47,47,137,,,,,,,,,,,2,space,4.73242340004,1,0.751,,,,,,,,,,,,,,,,,,2019_Apr_16_1704,60.04819467752818,Cloud_Experiment_FR_REAL,001,38,
images/fcloud80-20_D1.1_9.tif,1.1,2,,,,,,,,,,,,,0,48,48,110,,,,,,,,,,,2,space,4.06718880002,2,1.335,,,,,,,,,,,,,,,,,,2019_Apr_16_1704,60.04819467752818,Cloud_Experiment_FR_REAL,001,38,
images/fcloud_D1.3_8.tif,1.3,0,,,,,,,,,,,,,0,49,49,21,,,,,,,,,,,3,space,1.24397950002,2,1.019,,,,,,,,,,,,,,,,,,2019_Apr_16_1704,60.04819467752818,Cloud_Experiment_FR_REAL,001,38,
images/fcloud_D0.9_9.tif,0.9,0,,,,,,,,,,,,,0,50,50,6,,,,,,,,,,,1,space,1.26434989995,3,1.669,,,,,,,,,,,,,,,,,,2019_Apr_16_1704,60.04819467752818,Cloud_Experiment_FR_REAL,001,38,
images/fcloud80-20_D1.3_9.tif,1.3,2,,,,,,,,,,,,,0,51,51,118,,,,,,,,,,,1,space,4.9375383,1,0.668,,,,,,,,,,,,,,,,,,2019_Apr_16_1704,60.04819467752818,Cloud_Experiment_FR_REAL,001,38,
images/fcloud_D1.1_10.tif,1.1,0,,,,,,,,,,,,,0,52,52,15,,,,,,,,,,,4,space,1.3666836,3,1.501,,,,,,,,,,,,,,,,,,2019_Apr_16_1704,60.04819467752818,Cloud_Experiment_FR_REAL,001,38,
images/fcloud65-35_D1.9_9.tif,1.9,1,,,,,,,,,,,,,0,53,53,94,,,,,,,,,,,1,space,5.21884549997,1,0.635,,,,,,,,,,,,,,,,,,2019_Apr_16_1704,60.04819467752818,Cloud_Experiment_FR_REAL,001,38,
images/fcloud80-20_D1.2_10.tif,1.2,2,,,,,,,,,,,,,0,54,54,115,,,,,,,,,,,2,space,2.50981980003,1,0.536,,,,,,,,,,,,,,,,,,2019_Apr_16_1704,60.04819467752818,Cloud_Experiment_FR_REAL,001,38,
images/fcloud_D1.6_9.tif,1.6,0,,,,,,,,,,,,,0,55,55,34,,,,,,,,,,,2,space,1.46264879999,1,0.453,,,,,,,,,,,,,,,,,,2019_Apr_16_1704,60.04819467752818,Cloud_Experiment_FR_REAL,001,38,
images/fcloud65-35_D0.9_9.tif,0.9,1,,,,,,,,,,,,,0,56,56,54,,,,,,,,,,,2,space,4.73973620002,1,0.468,,,,,,,,,,,,,,,,,,2019_Apr_16_1704,60.04819467752818,Cloud_Experiment_FR_REAL,001,38,
images/fcloud_D1_8.tif,1.0,0,,,,,,,,,,,,,0,57,57,9,,,,,,,,,,,5,space,1.13460819999,2,0.453,,,,,,,,,,,,,,,,,,2019_Apr_16_1704,60.04819467752818,Cloud_Experiment_FR_REAL,001,38,
images/fcloud_D1_9.tif,1.0,0,,,,,,,,,,,,,0,58,58,10,,,,,,,,,,,2,space,1.19774180005,2,1.385,,,,,,,,,,,,,,,,,,2019_Apr_16_1704,60.04819467752818,Cloud_Experiment_FR_REAL,001,38,
images/fcloud65-35_D1.4_7.tif,1.4,1,,,,,,,,,,,,,0,59,59,72,,,,,,,,,,,2,None,,1,1.885,,,,,,,,,,,,,,,,,,2019_Apr_16_1704,60.04819467752818,Cloud_Experiment_FR_REAL,001,38,
images/fcloud80-20_D1.2_9.tif,1.2,2,,,,,,,,,,,,,0,60,60,114,,,,,,,,,,,1,None,,1,0.684,,,,,,,,,,,,,,,,,,2019_Apr_16_1704,60.04819467752818,Cloud_Experiment_FR_REAL,001,38,
images/fcloud80-20_D1.7_7.tif,1.7,2,,,,,,,,,,,,,0,61,61,132,,,,,,,,,,,2,space,5.53184700001,1,0.603,,,,,,,,,,,,,,,,,,2019_Apr_16_1704,60.04819467752818,Cloud_Experiment_FR_REAL,001,38,
images/fcloud80-20_D1.6_9.tif,1.6,2,,,,,,,,,,,,,0,62,62,130,,,,,,,,,,,2,space,4.0114965,1,0.586,,,,,,,,,,,,,,,,,,2019_Apr_16_1704,60.04819467752818,Cloud_Experiment_FR_REAL,001,38,
images/fcloud65-35_D1.3_10.tif,1.3,1,,,,,,,,,,,,,0,63,63,71,,,,,,,,,,,2,space,1.12852710002,2,0.685,,,,,,,,,,,,,,,,,,2019_Apr_16_1704,60.04819467752818,Cloud_Experiment_FR_REAL,001,38,
images/fcloud_D1.3_9.tif,1.3,0,,,,,,,,,,,,,0,64,64,22,,,,,,,,,,,3,space,2.61881880002,2,0.536,,,,,,,,,,,,,,,,,,2019_Apr_16_1704,60.04819467752818,Cloud_Experiment_FR_REAL,001,38,
images/fcloud80-20_D1.5_8.tif,1.5,2,,,,,,,,,,,,,0,65,65,125,,,,,,,,,,,None,None,,None,9.577,,,,,,,,,,,,,,,,,,2019_Apr_16_1704,60.04819467752818,Cloud_Experiment_FR_REAL,001,38,
images/fcloud65-35_D1.9_8.tif,1.9,1,,,,,,,,,,,,,0,66,66,93,,,,,,,,,,,2,None,,1,0.536,,,,,,,,,,,,,,,,,,2019_Apr_16_1704,60.04819467752818,Cloud_Experiment_FR_REAL,001,38,
images/fcloud_D1.2_10.tif,1.2,0,,,,,,,,,,,,,0,67,67,19,,,,,,,,,,,3,space,2.7982965,1,1.832,,,,,,,,,,,,,,,,,,2019_Apr_16_1704,60.04819467752818,Cloud_Experiment_FR_REAL,001,38,
images/fcloud65-35_D1.6_10.tif,1.6,1,,,,,,,,,,,,,0,68,68,83,,,,,,,,,,,1,space,3.40340300003,3,1.034,,,,,,,,,,,,,,,,,,2019_Apr_16_1704,60.04819467752818,Cloud_Experiment_FR_REAL,001,38,
images/fcloud_D1.6_10.tif,1.6,0,,,,,,,,,,,,,0,69,69,35,,,,,,,,,,,4,space,3.9171123,3,0.553,,,,,,,,,,,,,,,,,,2019_Apr_16_1704,60.04819467752818,Cloud_Experiment_FR_REAL,001,38,
images/fcloud_D1.4_8.tif,1.4,0,,,,,,,,,,,,,0,70,70,25,,,,,,,,,,,3,space,2.74908709998,2,2.085,,,,,,,,,,,,,,,,,,2019_Apr_16_1704,60.04819467752818,Cloud_Experiment_FR_REAL,001,38,
images/fcloud_D1.6_8.tif,1.6,0,,,,,,,,,,,,,0,71,71,33,,,,,,,,,,,3,space,6.87940229999,2,0.919,,,,,,,,,,,,,,,,,,2019_Apr_16_1704,60.04819467752818,Cloud_Experiment_FR_REAL,001,38,
images/fcloud65-35_D1.2_8.tif,1.2,1,,,,,,,,,,,,,0,72,72,65,,,,,,,,,,,3,space,6.76483989996,2,0.518,,,,,,,,,,,,,,,,,,2019_Apr_16_1704,60.04819467752818,Cloud_Experiment_FR_REAL,001,38,
images/fcloud_D1.8_7.tif,1.8,0,,,,,,,,,,,,,0,73,73,40,,,,,,,,,,,3,space,6.11043639999,1,0.57,,,,,,,,,,,,,,,,,,2019_Apr_16_1704,60.04819467752818,Cloud_Experiment_FR_REAL,001,38,
images/fcloud65-35_D1.5_7.tif,1.5,1,,,,,,,,,,,,,0,74,74,76,,,,,,,,,,,4,space,5.44587630004,1,0.535,,,,,,,,,,,,,,,,,,2019_Apr_16_1704,60.04819467752818,Cloud_Experiment_FR_REAL,001,38,
images/fcloud80-20_D1.9_9.tif,1.9,2,,,,,,,,,,,,,0,75,75,142,,,,,,,,,,,1,space,6.45886269998,1,0.503,,,,,,,,,,,,,,,,,,2019_Apr_16_1704,60.04819467752818,Cloud_Experiment_FR_REAL,001,38,
images/fcloud65-35_D1_10.tif,1.0,1,,,,,,,,,,,,,0,76,76,59,,,,,,,,,,,1,space,5.18488000002,1,0.469,,,,,,,,,,,,,,,,,,2019_Apr_16_1704,60.04819467752818,Cloud_Experiment_FR_REAL,001,38,
images/fcloud_D1.5_7.tif,1.5,0,,,,,,,,,,,,,0,77,77,28,,,,,,,,,,,2,space,4.65030709998,2,0.769,,,,,,,,,,,,,,,,,,2019_Apr_16_1704,60.04819467752818,Cloud_Experiment_FR_REAL,001,38,
images/fcloud80-20_D1.1_8.tif,1.1,2,,,,,,,,,,,,,0,78,78,109,,,,,,,,,,,None,None,,None,9.828,,,,,,,,,,,,,,,,,,2019_Apr_16_1704,60.04819467752818,Cloud_Experiment_FR_REAL,001,38,
images/fcloud80-20_D1.9_10.tif,1.9,2,,,,,,,,,,,,,0,79,79,143,,,,,,,,,,,1,space,3.25851359998,1,0.768,,,,,,,,,,,,,,,,,,2019_Apr_16_1704,60.04819467752818,Cloud_Experiment_FR_REAL,001,38,
images/fcloud80-20_D0.9_10.tif,0.9,2,,,,,,,,,,,,,0,80,80,103,,,,,,,,,,,2,space,1.1806815,2,1.035,,,,,,,,,,,,,,,,,,2019_Apr_16_1704,60.04819467752818,Cloud_Experiment_FR_REAL,001,38,
images/fcloud_D0.8_9.tif,0.8,0,,,,,,,,,,,,,0,81,81,2,,,,,,,,,,,4,space,1.92176529998,3,0.618,,,,,,,,,,,,,,,,,,2019_Apr_16_1704,60.04819467752818,Cloud_Experiment_FR_REAL,001,38,
images/fcloud65-35_D1.1_9.tif,1.1,1,,,,,,,,,,,,,0,82,82,62,,,,,,,,,,,2,space,1.84830990003,2,0.836,,,,,,,,,,,,,,,,,,2019_Apr_16_1704,60.04819467752818,Cloud_Experiment_FR_REAL,001,38,
images/fcloud_D1.3_7.tif,1.3,0,,,,,,,,,,,,,0,83,83,20,,,,,,,,,,,3,space,1.74676950002,2,0.668,,,,,,,,,,,,,,,,,,2019_Apr_16_1704,60.04819467752818,Cloud_Experiment_FR_REAL,001,38,
images/fcloud_D0.8_10.tif,0.8,0,,,,,,,,,,,,,0,84,84,3,,,,,,,,,,,1,space,3.28627889999,1,0.938,,,,,,,,,,,,,,,,,,2019_Apr_16_1704,60.04819467752818,Cloud_Experiment_FR_REAL,001,38,
images/fcloud_D1.8_8.tif,1.8,0,,,,,,,,,,,,,0,85,85,41,,,,,,,,,,,2,space,4.30155749997,2,1.285,,,,,,,,,,,,,,,,,,2019_Apr_16_1704,60.04819467752818,Cloud_Experiment_FR_REAL,001,38,
images/fcloud65-35_D1.3_7.tif,1.3,1,,,,,,,,,,,,,0,86,86,68,,,,,,,,,,,2,space,3.80216750002,1,4.399,,,,,,,,,,,,,,,,,,2019_Apr_16_1704,60.04819467752818,Cloud_Experiment_FR_REAL,001,38,
images/fcloud80-20_D0.9_7.tif,0.9,2,,,,,,,,,,,,,0,87,87,100,,,,,,,,,,,2,space,5.99456640001,1,0.487,,,,,,,,,,,,,,,,,,2019_Apr_16_1704,60.04819467752818,Cloud_Experiment_FR_REAL,001,38,
images/fcloud_D1.4_10.tif,1.4,0,,,,,,,,,,,,,0,88,88,27,,,,,,,,,,,3,space,4.53122800001,1,0.653,,,,,,,,,,,,,,,,,,2019_Apr_16_1704,60.04819467752818,Cloud_Experiment_FR_REAL,001,38,
images/fcloud80-20_D0.8_10.tif,0.8,2,,,,,,,,,,,,,0,89,89,99,,,,,,,,,,,2,space,2.1008213,2,0.9,,,,,,,,,,,,,,,,,,2019_Apr_16_1704,60.04819467752818,Cloud_Experiment_FR_REAL,001,38,
images/fcloud80-20_D1.7_8.tif,1.7,2,,,,,,,,,,,,,0,90,90,133,,,,,,,,,,,2,space,5.81711649999,1,0.487,,,,,,,,,,,,,,,,,,2019_Apr_16_1704,60.04819467752818,Cloud_Experiment_FR_REAL,001,38,
images/fcloud65-35_D1.5_9.tif,1.5,1,,,,,,,,,,,,,0,91,91,78,,,,,,,,,,,1,space,5.34819569997,1,1.217,,,,,,,,,,,,,,,,,,2019_Apr_16_1704,60.04819467752818,Cloud_Experiment_FR_REAL,001,38,
images/fcloud_D1.2_9.tif,1.2,0,,,,,,,,,,,,,0,92,92,18,,,,,,,,,,,4,space,2.76917739998,2,0.518,,,,,,,,,,,,,,,,,,2019_Apr_16_1704,60.04819467752818,Cloud_Experiment_FR_REAL,001,38,
images/fcloud65-35_D1.8_9.tif,1.8,1,,,,,,,,,,,,,0,93,93,90,,,,,,,,,,,2,space,5.87297169998,1,1.553,,,,,,,,,,,,,,,,,,2019_Apr_16_1704,60.04819467752818,Cloud_Experiment_FR_REAL,001,38,
images/fcloud_D1.4_9.tif,1.4,0,,,,,,,,,,,,,0,94,94,26,,,,,,,,,,,3,space,2.30956239998,3,3.001,,,,,,,,,,,,,,,,,,2019_Apr_16_1704,60.04819467752818,Cloud_Experiment_FR_REAL,001,38,
images/fcloud65-35_D1.7_8.tif,1.7,1,,,,,,,,,,,,,0,95,95,85,,,,,,,,,,,3,space,3.53563130001,2,0.419,,,,,,,,,,,,,,,,,,2019_Apr_16_1704,60.04819467752818,Cloud_Experiment_FR_REAL,001,38,
images/fcloud80-20_D1.3_8.tif,1.3,2,,,,,,,,,,,,,0,96,96,117,,,,,,,,,,,2,space,4.30670130003,1,1.304,,,,,,,,,,,,,,,,,,2019_Apr_16_1704,60.04819467752818,Cloud_Experiment_FR_REAL,001,38,
images/fcloud80-20_D0.8_8.tif,0.8,2,,,,,,,,,,,,,0,97,97,97,,,,,,,,,,,2,space,3.43816680001,2,1.107,,,,,,,,,,,,,,,,,,2019_Apr_16_1704,60.04819467752818,Cloud_Experiment_FR_REAL,001,38,
images/fcloud_D0.8_8.tif,0.8,0,,,,,,,,,,,,,0,98,98,1,,,,,,,,,,,3,space,1.09649660002,2,2.002,,,,,,,,,,,,,,,,,,2019_Apr_16_1704,60.04819467752818,Cloud_Experiment_FR_REAL,001,38,
images/fcloud65-35_D1.9_10.tif,1.9,1,,,,,,,,,,,,,0,99,99,95,,,,,,,,,,,1,space,4.61745659995,2,0.702,,,,,,,,,,,,,,,,,,2019_Apr_16_1704,60.04819467752818,Cloud_Experiment_FR_REAL,001,38,
images/fcloud_D1.7_10.tif,1.7,0,,,,,,,,,,,,,0,100,100,39,,,,,,,,,,,2,space,3.54981170001,1,0.62,,,,,,,,,,,,,,,,,,2019_Apr_16_1704,60.04819467752818,Cloud_Experiment_FR_REAL,001,38,
images/fcloud_D1.8_9.tif,1.8,0,,,,,,,,,,,,,0,101,101,42,,,,,,,,,,,2,space,4.97514589998,1,1.734,,,,,,,,,,,,,,,,,,2019_Apr_16_1704,60.04819467752818,Cloud_Experiment_FR_REAL,001,38,
images/fcloud65-35_D1.9_7.tif,1.9,1,,,,,,,,,,,,,0,102,102,92,,,,,,,,,,,2,space,5.03239489999,1,0.552,,,,,,,,,,,,,,,,,,2019_Apr_16_1704,60.04819467752818,Cloud_Experiment_FR_REAL,001,38,
images/fcloud_D1_10.tif,1.0,0,,,,,,,,,,,,,0,103,103,11,,,,,,,,,,,4,space,1.1114842,3,0.488,,,,,,,,,,,,,,,,,,2019_Apr_16_1704,60.04819467752818,Cloud_Experiment_FR_REAL,001,38,
images/fcloud80-20_D1.5_9.tif,1.5,2,,,,,,,,,,,,,0,104,104,126,,,,,,,,,,,2,space,5.37693510001,1,0.52,,,,,,,,,,,,,,,,,,2019_Apr_16_1704,60.04819467752818,Cloud_Experiment_FR_REAL,001,38,
images/fcloud_D0.9_10.tif,0.9,0,,,,,,,,,,,,,0,105,105,7,,,,,,,,,,,3,None,,1,0.836,,,,,,,,,,,,,,,,,,2019_Apr_16_1704,60.04819467752818,Cloud_Experiment_FR_REAL,001,38,
images/fcloud65-35_D1.7_10.tif,1.7,1,,,,,,,,,,,,,0,106,106,87,,,,,,,,,,,1,space,7.94381490001,1,0.637,,,,,,,,,,,,,,,,,,2019_Apr_16_1704,60.04819467752818,Cloud_Experiment_FR_REAL,001,38,
images/fcloud65-35_D1.4_9.tif,1.4,1,,,,,,,,,,,,,0,107,107,74,,,,,,,,,,,2,space,3.19927719998,1,0.568,,,,,,,,,,,,,,,,,,2019_Apr_16_1704,60.04819467752818,Cloud_Experiment_FR_REAL,001,38,
images/fcloud_D1.5_8.tif,1.5,0,,,,,,,,,,,,,0,108,108,29,,,,,,,,,,,3,space,2.42158190004,4,1.42,,,,,,,,,,,,,,,,,,2019_Apr_16_1704,60.04819467752818,Cloud_Experiment_FR_REAL,001,38,
images/fcloud_D1.8_10.tif,1.8,0,,,,,,,,,,,,,0,109,109,43,,,,,,,,,,,3,space,3.87353449996,1,0.704,,,,,,,,,,,,,,,,,,2019_Apr_16_1704,60.04819467752818,Cloud_Experiment_FR_REAL,001,38,
images/fcloud_D1.7_9.tif,1.7,0,,,,,,,,,,,,,0,110,110,38,,,,,,,,,,,4,space,4.31916699995,3,0.802,,,,,,,,,,,,,,,,,,2019_Apr_16_1704,60.04819467752818,Cloud_Experiment_FR_REAL,001,38,
images/fcloud80-20_D1.8_9.tif,1.8,2,,,,,,,,,,,,,0,111,111,138,,,,,,,,,,,1,None,,1,0.518,,,,,,,,,,,,,,,,,,2019_Apr_16_1704,60.04819467752818,Cloud_Experiment_FR_REAL,001,38,
images/fcloud65-35_D1_7.tif,1.0,1,,,,,,,,,,,,,0,112,112,56,,,,,,,,,,,3,space,1.09852430003,3,0.969,,,,,,,,,,,,,,,,,,2019_Apr_16_1704,60.04819467752818,Cloud_Experiment_FR_REAL,001,38,
images/fcloud65-35_D1.8_8.tif,1.8,1,,,,,,,,,,,,,0,113,113,89,,,,,,,,,,,1,space,7.42495970003,1,0.636,,,,,,,,,,,,,,,,,,2019_Apr_16_1704,60.04819467752818,Cloud_Experiment_FR_REAL,001,38,
images/fcloud80-20_D1.4_9.tif,1.4,2,,,,,,,,,,,,,0,114,114,122,,,,,,,,,,,1,space,6.77667719999,1,0.555,,,,,,,,,,,,,,,,,,2019_Apr_16_1704,60.04819467752818,Cloud_Experiment_FR_REAL,001,38,
images/fcloud65-35_D1.4_10.tif,1.4,1,,,,,,,,,,,,,0,115,115,75,,,,,,,,,,,3,space,1.88606799999,3,1.269,,,,,,,,,,,,,,,,,,2019_Apr_16_1704,60.04819467752818,Cloud_Experiment_FR_REAL,001,38,
images/fcloud65-35_D1.3_8.tif,1.3,1,,,,,,,,,,,,,0,116,116,69,,,,,,,,,,,1,None,,2,1.303,,,,,,,,,,,,,,,,,,2019_Apr_16_1704,60.04819467752818,Cloud_Experiment_FR_REAL,001,38,
images/fcloud65-35_D1.2_9.tif,1.2,1,,,,,,,,,,,,,0,117,117,66,,,,,,,,,,,2,space,2.9278141,2,1.286,,,,,,,,,,,,,,,,,,2019_Apr_16_1704,60.04819467752818,Cloud_Experiment_FR_REAL,001,38,
images/fcloud65-35_D0.9_10.tif,0.9,1,,,,,,,,,,,,,0,118,118,55,,,,,,,,,,,3,space,2.1445235,1,0.985,,,,,,,,,,,,,,,,,,2019_Apr_16_1704,60.04819467752818,Cloud_Experiment_FR_REAL,001,38,
images/fcloud65-35_D1.6_9.tif,1.6,1,,,,,,,,,,,,,0,119,119,82,,,,,,,,,,,2,space,7.38899589999,1,0.553,,,,,,,,,,,,,,,,,,2019_Apr_16_1704,60.04819467752818,Cloud_Experiment_FR_REAL,001,38,
images/fcloud_D1.6_7.tif,1.6,0,,,,,,,,,,,,,0,120,120,32,,,,,,,,,,,3,space,1.34609980002,1,2.219,,,,,,,,,,,,,,,,,,2019_Apr_16_1704,60.04819467752818,Cloud_Experiment_FR_REAL,001,38,
images/fcloud65-35_D1_8.tif,1.0,1,,,,,,,,,,,,,0,121,121,57,,,,,,,,,,,1,space,7.32583379996,1,0.935,,,,,,,,,,,,,,,,,,2019_Apr_16_1704,60.04819467752818,Cloud_Experiment_FR_REAL,001,38,
images/fcloud_D1.7_7.tif,1.7,0,,,,,,,,,,,,,0,122,122,36,,,,,,,,,,,1,space,6.55050710001,2,0.819,,,,,,,,,,,,,,,,,,2019_Apr_16_1704,60.04819467752818,Cloud_Experiment_FR_REAL,001,38,
images/fcloud_D1.5_9.tif,1.5,0,,,,,,,,,,,,,0,123,123,30,,,,,,,,,,,1,space,7.074226,2,1.002,,,,,,,,,,,,,,,,,,2019_Apr_16_1704,60.04819467752818,Cloud_Experiment_FR_REAL,001,38,
images/fcloud65-35_D1.2_10.tif,1.2,1,,,,,,,,,,,,,0,124,124,67,,,,,,,,,,,3,space,7.23966099997,1,5.848,,,,,,,,,,,,,,,,,,2019_Apr_16_1704,60.04819467752818,Cloud_Experiment_FR_REAL,001,38,
images/fcloud65-35_D0.8_9.tif,0.8,1,,,,,,,,,,,,,0,125,125,50,,,,,,,,,,,1,space,5.16022199998,2,3.266,,,,,,,,,,,,,,,,,,2019_Apr_16_1704,60.04819467752818,Cloud_Experiment_FR_REAL,001,38,
images/fcloud80-20_D1.3_10.tif,1.3,2,,,,,,,,,,,,,0,126,126,119,,,,,,,,,,,2,space,3.16740049998,1,0.504,,,,,,,,,,,,,,,,,,2019_Apr_16_1704,60.04819467752818,Cloud_Experiment_FR_REAL,001,38,
images/fcloud65-35_D1.5_10.tif,1.5,1,,,,,,,,,,,,,0,127,127,79,,,,,,,,,,,1,space,2.07437039999,3,0.618,,,,,,,,,,,,,,,,,,2019_Apr_16_1704,60.04819467752818,Cloud_Experiment_FR_REAL,001,38,
images/fcloud80-20_D1.8_10.tif,1.8,2,,,,,,,,,,,,,0,128,128,139,,,,,,,,,,,1,None,,1,2.535,,,,,,,,,,,,,,,,,,2019_Apr_16_1704,60.04819467752818,Cloud_Experiment_FR_REAL,001,38,
images/fcloud80-20_D1.8_7.tif,1.8,2,,,,,,,,,,,,,0,129,129,136,,,,,,,,,,,2,space,5.36403330002,2,1.385,,,,,,,,,,,,,,,,,,2019_Apr_16_1704,60.04819467752818,Cloud_Experiment_FR_REAL,001,38,
images/fcloud80-20_D1_9.tif,1.0,2,,,,,,,,,,,,,0,130,130,106,,,,,,,,,,,2,space,3.23002239998,1,1.018,,,,,,,,,,,,,,,,,,2019_Apr_16_1704,60.04819467752818,Cloud_Experiment_FR_REAL,001,38,
images/fcloud80-20_D1.5_7.tif,1.5,2,,,,,,,,,,,,,0,131,131,124,,,,,,,,,,,2,space,3.51965059998,1,0.553,,,,,,,,,,,,,,,,,,2019_Apr_16_1704,60.04819467752818,Cloud_Experiment_FR_REAL,001,38,
images/fcloud80-20_D1.6_10.tif,1.6,2,,,,,,,,,,,,,0,132,132,131,,,,,,,,,,,2,space,4.8145639,1,0.602,,,,,,,,,,,,,,,,,,2019_Apr_16_1704,60.04819467752818,Cloud_Experiment_FR_REAL,001,38,
images/fcloud_D1.2_7.tif,1.2,0,,,,,,,,,,,,,0,133,133,16,,,,,,,,,,,2,space,3.37889400002,2,1.037,,,,,,,,,,,,,,,,,,2019_Apr_16_1704,60.04819467752818,Cloud_Experiment_FR_REAL,001,38,
images/fcloud_D1.4_7.tif,1.4,0,,,,,,,,,,,,,0,134,134,24,,,,,,,,,,,2,space,6.01902930002,2,0.57,,,,,,,,,,,,,,,,,,2019_Apr_16_1704,60.04819467752818,Cloud_Experiment_FR_REAL,001,38,
images/fcloud65-35_D0.8_8.tif,0.8,1,,,,,,,,,,,,,0,135,135,49,,,,,,,,,,,3,space,3.80627369997,1,0.635,,,,,,,,,,,,,,,,,,2019_Apr_16_1704,60.04819467752818,Cloud_Experiment_FR_REAL,001,38,
images/fcloud80-20_D1.9_8.tif,1.9,2,,,,,,,,,,,,,0,136,136,141,,,,,,,,,,,3,space,4.46598450001,1,0.503,,,,,,,,,,,,,,,,,,2019_Apr_16_1704,60.04819467752818,Cloud_Experiment_FR_REAL,001,38,
images/fcloud65-35_D0.9_7.tif,0.9,1,,,,,,,,,,,,,0,137,137,52,,,,,,,,,,,1,space,6.56381989998,2,1.038,,,,,,,,,,,,,,,,,,2019_Apr_16_1704,60.04819467752818,Cloud_Experiment_FR_REAL,001,38,
images/fcloud_D1.9_7.tif,1.9,0,,,,,,,,,,,,,0,138,138,44,,,,,,,,,,,3,space,4.56581479998,2,1.184,,,,,,,,,,,,,,,,,,2019_Apr_16_1704,60.04819467752818,Cloud_Experiment_FR_REAL,001,38,
images/fcloud80-20_D1_7.tif,1.0,2,,,,,,,,,,,,,0,139,139,104,,,,,,,,,,,2,space,3.36994130001,1,1.352,,,,,,,,,,,,,,,,,,2019_Apr_16_1704,60.04819467752818,Cloud_Experiment_FR_REAL,001,38,
images/fcloud_D1.1_7.tif,1.1,0,,,,,,,,,,,,,0,140,140,12,,,,,,,,,,,3,space,4.01601899997,2,0.654,,,,,,,,,,,,,,,,,,2019_Apr_16_1704,60.04819467752818,Cloud_Experiment_FR_REAL,001,38,
images/fcloud65-35_D1.1_8.tif,1.1,1,,,,,,,,,,,,,0,141,141,61,,,,,,,,,,,3,space,4.67579759995,2,0.885,,,,,,,,,,,,,,,,,,2019_Apr_16_1704,60.04819467752818,Cloud_Experiment_FR_REAL,001,38,
images/fcloud_D1.1_9.tif,1.1,0,,,,,,,,,,,,,0,142,142,14,,,,,,,,,,,2,space,6.55178080004,1,0.521,,,,,,,,,,,,,,,,,,2019_Apr_16_1704,60.04819467752818,Cloud_Experiment_FR_REAL,001,38,
images/fcloud65-35_D1.3_9.tif,1.3,1,,,,,,,,,,,,,0,143,143,70,,,,,,,,,,,2,space,6.84799559996,2,0.936,,,,,,,,,,,,,,,,,,2019_Apr_16_1704,60.04819467752818,Cloud_Experiment_FR_REAL,001,38,
,,,,,,,,,,,,,,,,,,,,,,,,,6,20.553,,,,,,,,,,,,,,,,,,,,,,,,,2019_Apr_16_1704,60.04819467752818,Cloud_Experiment_FR_REAL,001,38,
,,,,,,,,,,,,,,,,,,,,,,,,,,,,,,,,,,5,,,,,,,,,,,,,,,,,2019_Apr_16_1704,60.04819467752818,Cloud_Experiment_FR_REAL,001,38,
,,,,,,,,,,,,,,,,,,,,,,,,,,,,,,,,,,,3,,,,,,,,,,,,,,,,2019_Apr_16_1704,60.04819467752818,Cloud_Experiment_FR_REAL,001,38,
,,,,,,,,,,,,,,,,,,,,,,,,,,,,,,,,,,,,4,,,,,,,,,,,,,,,2019_Apr_16_1704,60.04819467752818,Cloud_Experiment_FR_REAL,001,38,
,,,,,,,,,,,,,,,,,,,,,,,,,,,,,,,,,,,,,3,,,,,,,,,,,,,,2019_Apr_16_1704,60.04819467752818,Cloud_Experiment_FR_REAL,001,38,
,,,,,,,,,,,,,,,,,,,,,,,,,,,,,,,,,,,,,,3,,,,,,,,,,,,,2019_Apr_16_1704,60.04819467752818,Cloud_Experiment_FR_REAL,001,38,
,,,,,,,,,,,,,,,,,,,,,,,,,,,,,,,,,,,,,,,4,,,,,,,,,,,,2019_Apr_16_1704,60.04819467752818,Cloud_Experiment_FR_REAL,001,38,
,,,,,,,,,,,,,,,,,,,,,,,,,,,,,,,,,,,,,,,,4,,,,,,,,,,,2019_Apr_16_1704,60.04819467752818,Cloud_Experiment_FR_REAL,001,38,
,,,,,,,,,,,,,,,,,,,,,,,,,,,,,,,,,,,,,,,,,6,,,,,,,,,,2019_Apr_16_1704,60.04819467752818,Cloud_Experiment_FR_REAL,001,38,
,,,,,,,,,,,,,,,,,,,,,,,,,,,,,,,,,,,,,,,,,,6,,,,,,,,,2019_Apr_16_1704,60.04819467752818,Cloud_Experiment_FR_REAL,001,38,
,,,,,,,,,,,,,,,,,,,,,,,,,,,,,,,,,,,,,,,,,,,5,,,,,,,,2019_Apr_16_1704,60.04819467752818,Cloud_Experiment_FR_REAL,001,38,
,,,,,,,,,,,,,,,,,,,,,,,,,,,,,,,,,,,,,,,,,,,,,,,,,,5,2019_Apr_16_1704,60.04819467752818,Cloud_Experiment_FR_REAL,001,38,
