ImageFile,FD,Contrast,trials_4.thisRepN,trials_4.thisTrialN,trials_4.thisN,trials_4.thisIndex,trials.thisRepN,trials.thisTrialN,trials.thisN,trials.thisIndex,trials_2.thisRepN,trials_2.thisTrialN,trials_2.thisN,trials_2.thisIndex,trials_3.thisRepN,trials_3.thisTrialN,trials_3.thisN,trials_3.thisIndex,end_instructions.keys,end_instructions.rt,key_resp_4.keys,key_resp_4.rt,key_resp_6.keys,key_resp_6.rt,Fatigue.response,Fatigue.rt,key_resp_5.keys,key_resp_5.rt,n_objets.response,reaction_time.keys,reaction_time.rt,vividness.response,vividness.rt,Flow01.response,Flow02.response,Flow03.response,Flow04.response,Flow05.response,Flow06.response,Flow07.response,Flow08.response,Flow09.response,Flow10.response,key_resp_2.keys,key_resp_2.rt,key_resp_8.keys,key_resp_8.rt,key_resp_3.keys,key_resp_3.rt,Redondance_question.response,date,frameRate,expName,session,participant,
,,,,,,,,,,,,,,,,,,,space,13.3985032,,,,,,,,,,,,,,,,,,,,,,,,,,,,,,,2019_Apr_17_1411,59.676980440425446,Cloud_Experiment_FR_REAL,001,39,
,,,,,,,,,,,,,,,,,,,,,space,41.8313697,,,,,,,,,,,,,,,,,,,,,,,,,,,,,2019_Apr_17_1411,59.676980440425446,Cloud_Experiment_FR_REAL,001,39,
,,,,,,,,,,,,,,,,,,,,,,,space,20.7171998,,,,,,,,,,,,,,,,,,,,,,,,,,,2019_Apr_17_1411,59.676980440425446,Cloud_Experiment_FR_REAL,001,39,
,,,,,,,,,,,,,,,,,,,,,,,,,6,190.914,,,,,,,,,,,,,,,,,,,,,,,,,2019_Apr_17_1411,59.676980440425446,Cloud_Experiment_FR_REAL,001,39,
,,,,,,,,,,,,,,,,,,,,,,,,,,,space,5.7952841,,,,,,,,,,,,,,,,,,,,,,,2019_Apr_17_1411,59.676980440425446,Cloud_Experiment_FR_REAL,001,39,
pratique/fcloud80-20_D1.8_30,1.8,2,0,0,0,4,,,,,,,,,,,,,,,,,,,,,,,1,space,5.6937252,3,5.032,,,,,,,,,,,,,,,,,,2019_Apr_17_1411,59.676980440425446,Cloud_Experiment_FR_REAL,001,39,
pratique/fcloud80-20_D1.5_30,1.5,2,0,1,1,8,,,,,,,,,,,,,,,,,,,,,,,1,space,6.7346336,4,2.1,,,,,,,,,,,,,,,,,,2019_Apr_17_1411,59.676980440425446,Cloud_Experiment_FR_REAL,001,39,
pratique/fcloud_D1.4_30,1.4,0,0,2,2,1,,,,,,,,,,,,,,,,,,,,,,,1,None,,4,11.858,,,,,,,,,,,,,,,,,,2019_Apr_17_1411,59.676980440425446,Cloud_Experiment_FR_REAL,001,39,
pratique/fcloud65-35_D1.2_30,1.2,1,0,3,3,3,,,,,,,,,,,,,,,,,,,,,,,1,space,7.6626851,3,3.866,,,,,,,,,,,,,,,,,,2019_Apr_17_1411,59.676980440425446,Cloud_Experiment_FR_REAL,001,39,
pratique/fcloud65-35_D1.6_30,1.6,1,0,4,4,2,,,,,,,,,,,,,,,,,,,,,,,3,space,3.6985804,3,5.264,,,,,,,,,,,,,,,,,,2019_Apr_17_1411,59.676980440425446,Cloud_Experiment_FR_REAL,001,39,
pratique/fcloud80-20_D1_30,1.0,2,0,5,5,9,,,,,,,,,,,,,,,,,,,,,,,3,space,3.2667412,2,3.2,,,,,,,,,,,,,,,,,,2019_Apr_17_1411,59.676980440425446,Cloud_Experiment_FR_REAL,001,39,
pratique/fcloud65-35_D1.3_30,1.3,1,0,6,6,6,,,,,,,,,,,,,,,,,,,,,,,1,space,6.2970296,2,2.201,,,,,,,,,,,,,,,,,,2019_Apr_17_1411,59.676980440425446,Cloud_Experiment_FR_REAL,001,39,
pratique/fcloud_D0.8_30,0.8,0,0,7,7,0,,,,,,,,,,,,,,,,,,,,,,,3,space,4.3196809,3,2.583,,,,,,,,,,,,,,,,,,2019_Apr_17_1411,59.676980440425446,Cloud_Experiment_FR_REAL,001,39,
pratique/fcloud_D1.6_28,1.6,0,0,8,8,5,,,,,,,,,,,,,,,,,,,,,,,2,space,4.2980291,3,2.419,,,,,,,,,,,,,,,,,,2019_Apr_17_1411,59.676980440425446,Cloud_Experiment_FR_REAL,001,39,
pratique/fcloud65-35_D1.9_29,1.9,1,0,9,9,7,,,,,,,,,,,,,,,,,,,,,,,2,space,3.5307414,2,3.101,,,,,,,,,,,,,,,,,,2019_Apr_17_1411,59.676980440425446,Cloud_Experiment_FR_REAL,001,39,
,,,,,,,,,,,,,,,,,,,,,,,,,,,,,,,,,,5,,,,,,,,,,,,,,,,,2019_Apr_17_1411,59.676980440425446,Cloud_Experiment_FR_REAL,001,39,
,,,,,,,,,,,,,,,,,,,,,,,,,,,,,,,,,,,2,,,,,,,,,,,,,,,,2019_Apr_17_1411,59.676980440425446,Cloud_Experiment_FR_REAL,001,39,
,,,,,,,,,,,,,,,,,,,,,,,,,,,,,,,,,,,,5,,,,,,,,,,,,,,,2019_Apr_17_1411,59.676980440425446,Cloud_Experiment_FR_REAL,001,39,
,,,,,,,,,,,,,,,,,,,,,,,,,,,,,,,,,,,,,1,,,,,,,,,,,,,,2019_Apr_17_1411,59.676980440425446,Cloud_Experiment_FR_REAL,001,39,
,,,,,,,,,,,,,,,,,,,,,,,,,,,,,,,,,,,,,,2,,,,,,,,,,,,,2019_Apr_17_1411,59.676980440425446,Cloud_Experiment_FR_REAL,001,39,
,,,,,,,,,,,,,,,,,,,,,,,,,,,,,,,,,,,,,,,5,,,,,,,,,,,,2019_Apr_17_1411,59.676980440425446,Cloud_Experiment_FR_REAL,001,39,
,,,,,,,,,,,,,,,,,,,,,,,,,,,,,,,,,,,,,,,,7,,,,,,,,,,,2019_Apr_17_1411,59.676980440425446,Cloud_Experiment_FR_REAL,001,39,
,,,,,,,,,,,,,,,,,,,,,,,,,,,,,,,,,,,,,,,,,5,,,,,,,,,,2019_Apr_17_1411,59.676980440425446,Cloud_Experiment_FR_REAL,001,39,
,,,,,,,,,,,,,,,,,,,,,,,,,,,,,,,,,,,,,,,,,,6,,,,,,,,,2019_Apr_17_1411,59.676980440425446,Cloud_Experiment_FR_REAL,001,39,
,,,,,,,,,,,,,,,,,,,,,,,,,,,,,,,,,,,,,,,,,,,6,,,,,,,,2019_Apr_17_1411,59.676980440425446,Cloud_Experiment_FR_REAL,001,39,
,,,,,,,,,,,,,,,,,,,,,,,,,,,,,,,,,,,,,,,,,,,,space,6.7794909,,,,,,2019_Apr_17_1411,59.676980440425446,Cloud_Experiment_FR_REAL,001,39,
images/fcloud65-35_D1.9_1.tif,1.9,1,,,,,0,0,0,69,,,,,,,,,,,,,,,,,,,2,space,4.0683131,3,5.265,,,,,,,,,,,,,,,,,,2019_Apr_17_1411,59.676980440425446,Cloud_Experiment_FR_REAL,001,39,
images/fcloud_D1.7_3.tif,1.7,0,,,,,0,1,1,29,,,,,,,,,,,,,,,,,,,3,space,2.7313539,2,1.985,,,,,,,,,,,,,,,,,,2019_Apr_17_1411,59.676980440425446,Cloud_Experiment_FR_REAL,001,39,
images/fcloud80-20_D1.1_1.tif,1.1,2,,,,,0,2,2,81,,,,,,,,,,,,,,,,,,,3,space,4.9101933,2,5.065,,,,,,,,,,,,,,,,,,2019_Apr_17_1411,59.676980440425446,Cloud_Experiment_FR_REAL,001,39,
images/fcloud_D1.3_3.tif,1.3,0,,,,,0,3,3,17,,,,,,,,,,,,,,,,,,,3,space,2.425701,2,2.284,,,,,,,,,,,,,,,,,,2019_Apr_17_1411,59.676980440425446,Cloud_Experiment_FR_REAL,001,39,
images/fcloud_D1.2_2.tif,1.2,0,,,,,0,4,4,13,,,,,,,,,,,,,,,,,,,2,space,1.6145315,1,1.985,,,,,,,,,,,,,,,,,,2019_Apr_17_1411,59.676980440425446,Cloud_Experiment_FR_REAL,001,39,
images/fcloud80-20_D1.3_2.tif,1.3,2,,,,,0,5,5,88,,,,,,,,,,,,,,,,,,,3,space,2.8141443,3,3.134,,,,,,,,,,,,,,,,,,2019_Apr_17_1411,59.676980440425446,Cloud_Experiment_FR_REAL,001,39,
images/fcloud65-35_D1_3.tif,1.0,1,,,,,0,6,6,44,,,,,,,,,,,,,,,,,,,1,space,5.561721,2,2.717,,,,,,,,,,,,,,,,,,2019_Apr_17_1411,59.676980440425446,Cloud_Experiment_FR_REAL,001,39,
images/fcloud80-20_D1.6_3.tif,1.6,2,,,,,0,7,7,98,,,,,,,,,,,,,,,,,,,3,space,3.5457752,3,1.968,,,,,,,,,,,,,,,,,,2019_Apr_17_1411,59.676980440425446,Cloud_Experiment_FR_REAL,001,39,
images/fcloud65-35_D1.5_2.tif,1.5,1,,,,,0,8,8,58,,,,,,,,,,,,,,,,,,,3,space,4.5682817,2,3.117,,,,,,,,,,,,,,,,,,2019_Apr_17_1411,59.676980440425446,Cloud_Experiment_FR_REAL,001,39,
images/fcloud80-20_D1_2.tif,1.0,2,,,,,0,9,9,79,,,,,,,,,,,,,,,,,,,2,space,4.7205833,3,2.033,,,,,,,,,,,,,,,,,,2019_Apr_17_1411,59.676980440425446,Cloud_Experiment_FR_REAL,001,39,
images/fcloud80-20_D1.5_3.tif,1.5,2,,,,,0,10,10,95,,,,,,,,,,,,,,,,,,,3,space,2.7272465,2,3.599,,,,,,,,,,,,,,,,,,2019_Apr_17_1411,59.676980440425446,Cloud_Experiment_FR_REAL,001,39,
images/fcloud_D1.6_1.tif,1.6,0,,,,,0,11,11,24,,,,,,,,,,,,,,,,,,,3,space,3.0887247,3,2.184,,,,,,,,,,,,,,,,,,2019_Apr_17_1411,59.676980440425446,Cloud_Experiment_FR_REAL,001,39,
images/fcloud_D1.3_2.tif,1.3,0,,,,,0,12,12,16,,,,,,,,,,,,,,,,,,,2,space,3.3159363,2,1.584,,,,,,,,,,,,,,,,,,2019_Apr_17_1411,59.676980440425446,Cloud_Experiment_FR_REAL,001,39,
images/fcloud65-35_D1.8_2.tif,1.8,1,,,,,0,13,13,67,,,,,,,,,,,,,,,,,,,3,space,3.0166744,3,2.267,,,,,,,,,,,,,,,,,,2019_Apr_17_1411,59.676980440425446,Cloud_Experiment_FR_REAL,001,39,
images/fcloud_D1.4_3.tif,1.4,0,,,,,0,14,14,20,,,,,,,,,,,,,,,,,,,1,space,5.3532398,1,1.868,,,,,,,,,,,,,,,,,,2019_Apr_17_1411,59.676980440425446,Cloud_Experiment_FR_REAL,001,39,
images/fcloud65-35_D1.1_1.tif,1.1,1,,,,,0,15,15,45,,,,,,,,,,,,,,,,,,,2,space,3.0338437,2,0.885,,,,,,,,,,,,,,,,,,2019_Apr_17_1411,59.676980440425446,Cloud_Experiment_FR_REAL,001,39,
images/fcloud_D1.8_3.tif,1.8,0,,,,,0,16,16,32,,,,,,,,,,,,,,,,,,,4,space,2.0962751,2,2.051,,,,,,,,,,,,,,,,,,2019_Apr_17_1411,59.676980440425446,Cloud_Experiment_FR_REAL,001,39,
images/fcloud80-20_D1.9_3.tif,1.9,2,,,,,0,17,17,107,,,,,,,,,,,,,,,,,,,3,space,2.5833768,2,2.068,,,,,,,,,,,,,,,,,,2019_Apr_17_1411,59.676980440425446,Cloud_Experiment_FR_REAL,001,39,
images/fcloud65-35_D1.8_3.tif,1.8,1,,,,,0,18,18,68,,,,,,,,,,,,,,,,,,,3,space,4.3841928,2,3.816,,,,,,,,,,,,,,,,,,2019_Apr_17_1411,59.676980440425446,Cloud_Experiment_FR_REAL,001,39,
images/fcloud80-20_D1.1_2.tif,1.1,2,,,,,0,19,19,82,,,,,,,,,,,,,,,,,,,3,space,2.7960203,3,1.25,,,,,,,,,,,,,,,,,,2019_Apr_17_1411,59.676980440425446,Cloud_Experiment_FR_REAL,001,39,
images/fcloud80-20_D1.1_3.tif,1.1,2,,,,,0,20,20,83,,,,,,,,,,,,,,,,,,,4,space,3.3063466,2,2.617,,,,,,,,,,,,,,,,,,2019_Apr_17_1411,59.676980440425446,Cloud_Experiment_FR_REAL,001,39,
images/fcloud65-35_D1.6_1.tif,1.6,1,,,,,0,21,21,60,,,,,,,,,,,,,,,,,,,4,space,2.0391247,2,3.665,,,,,,,,,,,,,,,,,,2019_Apr_17_1411,59.676980440425446,Cloud_Experiment_FR_REAL,001,39,
images/fcloud_D1.3_1.tif,1.3,0,,,,,0,22,22,15,,,,,,,,,,,,,,,,,,,3,space,3.1575405,3,3.667,,,,,,,,,,,,,,,,,,2019_Apr_17_1411,59.676980440425446,Cloud_Experiment_FR_REAL,001,39,
images/fcloud_D0.8_1.tif,0.8,0,,,,,0,23,23,0,,,,,,,,,,,,,,,,,,,2,space,5.5262377,1,3.265,,,,,,,,,,,,,,,,,,2019_Apr_17_1411,59.676980440425446,Cloud_Experiment_FR_REAL,001,39,
images/fcloud65-35_D1.6_2.tif,1.6,1,,,,,0,24,24,61,,,,,,,,,,,,,,,,,,,4,space,3.8027487,2,3.368,,,,,,,,,,,,,,,,,,2019_Apr_17_1411,59.676980440425446,Cloud_Experiment_FR_REAL,001,39,
images/fcloud65-35_D1.9_2.tif,1.9,1,,,,,0,25,25,70,,,,,,,,,,,,,,,,,,,3,space,4.6944116,1,2.884,,,,,,,,,,,,,,,,,,2019_Apr_17_1411,59.676980440425446,Cloud_Experiment_FR_REAL,001,39,
images/fcloud80-20_D1.9_1.tif,1.9,2,,,,,0,26,26,105,,,,,,,,,,,,,,,,,,,3,space,3.2288179,2,1.768,,,,,,,,,,,,,,,,,,2019_Apr_17_1411,59.676980440425446,Cloud_Experiment_FR_REAL,001,39,
images/fcloud65-35_D1.8_1.tif,1.8,1,,,,,0,27,27,66,,,,,,,,,,,,,,,,,,,2,space,3.6984792,2,1.601,,,,,,,,,,,,,,,,,,2019_Apr_17_1411,59.676980440425446,Cloud_Experiment_FR_REAL,001,39,
images/fcloud_D1.1_3.tif,1.1,0,,,,,0,28,28,11,,,,,,,,,,,,,,,,,,,2,space,5.3889764,3,3.532,,,,,,,,,,,,,,,,,,2019_Apr_17_1411,59.676980440425446,Cloud_Experiment_FR_REAL,001,39,
images/fcloud_D1.4_2.tif,1.4,0,,,,,0,29,29,19,,,,,,,,,,,,,,,,,,,1,space,6.1481278,2,2.201,,,,,,,,,,,,,,,,,,2019_Apr_17_1411,59.676980440425446,Cloud_Experiment_FR_REAL,001,39,
images/fcloud80-20_D1.7_3.tif,1.7,2,,,,,0,30,30,101,,,,,,,,,,,,,,,,,,,2,space,3.6276996,3,2.068,,,,,,,,,,,,,,,,,,2019_Apr_17_1411,59.676980440425446,Cloud_Experiment_FR_REAL,001,39,
images/fcloud80-20_D1.8_3.tif,1.8,2,,,,,0,31,31,104,,,,,,,,,,,,,,,,,,,3,space,2.622963,3,2.133,,,,,,,,,,,,,,,,,,2019_Apr_17_1411,59.676980440425446,Cloud_Experiment_FR_REAL,001,39,
images/fcloud80-20_D1.4_1.tif,1.4,2,,,,,0,32,32,90,,,,,,,,,,,,,,,,,,,3,space,3.1482402,3,2.734,,,,,,,,,,,,,,,,,,2019_Apr_17_1411,59.676980440425446,Cloud_Experiment_FR_REAL,001,39,
images/fcloud65-35_D1.7_1.tif,1.7,1,,,,,0,33,33,63,,,,,,,,,,,,,,,,,,,3,space,3.0655313,3,3.616,,,,,,,,,,,,,,,,,,2019_Apr_17_1411,59.676980440425446,Cloud_Experiment_FR_REAL,001,39,
images/fcloud_D1.6_3.tif,1.6,0,,,,,0,34,34,26,,,,,,,,,,,,,,,,,,,4,space,1.9401785,4,4.083,,,,,,,,,,,,,,,,,,2019_Apr_17_1411,59.676980440425446,Cloud_Experiment_FR_REAL,001,39,
images/fcloud_D1.9_3.tif,1.9,0,,,,,0,35,35,35,,,,,,,,,,,,,,,,,,,4,space,3.3962377,3,1.818,,,,,,,,,,,,,,,,,,2019_Apr_17_1411,59.676980440425446,Cloud_Experiment_FR_REAL,001,39,
images/fcloud65-35_D1.7_2.tif,1.7,1,,,,,0,36,36,64,,,,,,,,,,,,,,,,,,,3,space,2.8726416,4,3.132,,,,,,,,,,,,,,,,,,2019_Apr_17_1411,59.676980440425446,Cloud_Experiment_FR_REAL,001,39,
images/fcloud80-20_D0.9_1.tif,0.9,2,,,,,0,37,37,75,,,,,,,,,,,,,,,,,,,3,space,3.692604,3,1.884,,,,,,,,,,,,,,,,,,2019_Apr_17_1411,59.676980440425446,Cloud_Experiment_FR_REAL,001,39,
images/fcloud65-35_D1.2_3.tif,1.2,1,,,,,0,38,38,50,,,,,,,,,,,,,,,,,,,4,space,2.0167257,3,2.967,,,,,,,,,,,,,,,,,,2019_Apr_17_1411,59.676980440425446,Cloud_Experiment_FR_REAL,001,39,
images/fcloud80-20_D1.9_2.tif,1.9,2,,,,,0,39,39,106,,,,,,,,,,,,,,,,,,,3,space,3.2568507,2,2.167,,,,,,,,,,,,,,,,,,2019_Apr_17_1411,59.676980440425446,Cloud_Experiment_FR_REAL,001,39,
images/fcloud80-20_D1.5_2.tif,1.5,2,,,,,0,40,40,94,,,,,,,,,,,,,,,,,,,2,space,5.1338121,2,2.051,,,,,,,,,,,,,,,,,,2019_Apr_17_1411,59.676980440425446,Cloud_Experiment_FR_REAL,001,39,
images/fcloud80-20_D1.2_1.tif,1.2,2,,,,,0,41,41,84,,,,,,,,,,,,,,,,,,,2,space,4.3979319,2,2.567,,,,,,,,,,,,,,,,,,2019_Apr_17_1411,59.676980440425446,Cloud_Experiment_FR_REAL,001,39,
images/fcloud80-20_D1_3.tif,1.0,2,,,,,0,42,42,80,,,,,,,,,,,,,,,,,,,3,space,4.0258642,2,3.516,,,,,,,,,,,,,,,,,,2019_Apr_17_1411,59.676980440425446,Cloud_Experiment_FR_REAL,001,39,
images/fcloud_D1.9_2.tif,1.9,0,,,,,0,43,43,34,,,,,,,,,,,,,,,,,,,4,space,2.2391738,3,2.6,,,,,,,,,,,,,,,,,,2019_Apr_17_1411,59.676980440425446,Cloud_Experiment_FR_REAL,001,39,
images/fcloud65-35_D1.2_1.tif,1.2,1,,,,,0,44,44,48,,,,,,,,,,,,,,,,,,,1,space,6.4525696,4,2.684,,,,,,,,,,,,,,,,,,2019_Apr_17_1411,59.676980440425446,Cloud_Experiment_FR_REAL,001,39,
images/fcloud_D1.8_1.tif,1.8,0,,,,,0,45,45,30,,,,,,,,,,,,,,,,,,,2,space,2.8372965,2,3.216,,,,,,,,,,,,,,,,,,2019_Apr_17_1411,59.676980440425446,Cloud_Experiment_FR_REAL,001,39,
images/fcloud80-20_D1.3_1.tif,1.3,2,,,,,0,46,46,87,,,,,,,,,,,,,,,,,,,1,space,4.9188276,3,1.617,,,,,,,,,,,,,,,,,,2019_Apr_17_1411,59.676980440425446,Cloud_Experiment_FR_REAL,001,39,
images/fcloud_D1.6_2.tif,1.6,0,,,,,0,47,47,25,,,,,,,,,,,,,,,,,,,4,space,2.4824821,3,1.851,,,,,,,,,,,,,,,,,,2019_Apr_17_1411,59.676980440425446,Cloud_Experiment_FR_REAL,001,39,
images/fcloud_D1.5_2.tif,1.5,0,,,,,0,48,48,22,,,,,,,,,,,,,,,,,,,4,space,3.5241789,3,2.517,,,,,,,,,,,,,,,,,,2019_Apr_17_1411,59.676980440425446,Cloud_Experiment_FR_REAL,001,39,
images/fcloud80-20_D0.8_1.tif,0.8,2,,,,,0,49,49,72,,,,,,,,,,,,,,,,,,,2,space,6.2468499,1,2.234,,,,,,,,,,,,,,,,,,2019_Apr_17_1411,59.676980440425446,Cloud_Experiment_FR_REAL,001,39,
images/fcloud_D1.7_2.tif,1.7,0,,,,,0,50,50,28,,,,,,,,,,,,,,,,,,,4,space,2.9609629,4,2.55,,,,,,,,,,,,,,,,,,2019_Apr_17_1411,59.676980440425446,Cloud_Experiment_FR_REAL,001,39,
images/fcloud_D1.9_1.tif,1.9,0,,,,,0,51,51,33,,,,,,,,,,,,,,,,,,,2,space,3.5158632,3,2.317,,,,,,,,,,,,,,,,,,2019_Apr_17_1411,59.676980440425446,Cloud_Experiment_FR_REAL,001,39,
images/fcloud_D1.5_3.tif,1.5,0,,,,,0,52,52,23,,,,,,,,,,,,,,,,,,,2,space,2.5472587,3,1.634,,,,,,,,,,,,,,,,,,2019_Apr_17_1411,59.676980440425446,Cloud_Experiment_FR_REAL,001,39,
images/fcloud65-35_D0.9_3.tif,0.9,1,,,,,0,53,53,41,,,,,,,,,,,,,,,,,,,1,space,4.1705288,3,3.317,,,,,,,,,,,,,,,,,,2019_Apr_17_1411,59.676980440425446,Cloud_Experiment_FR_REAL,001,39,
images/fcloud65-35_D1.9_3.tif,1.9,1,,,,,0,54,54,71,,,,,,,,,,,,,,,,,,,3,space,4.332222,3,1.784,,,,,,,,,,,,,,,,,,2019_Apr_17_1411,59.676980440425446,Cloud_Experiment_FR_REAL,001,39,
images/fcloud_D0.9_2.tif,0.9,0,,,,,0,55,55,4,,,,,,,,,,,,,,,,,,,3,space,2.9621009,3,1.885,,,,,,,,,,,,,,,,,,2019_Apr_17_1411,59.676980440425446,Cloud_Experiment_FR_REAL,001,39,
images/fcloud80-20_D1_1.tif,1.0,2,,,,,0,56,56,78,,,,,,,,,,,,,,,,,,,2,space,4.2291361,2,3.566,,,,,,,,,,,,,,,,,,2019_Apr_17_1411,59.676980440425446,Cloud_Experiment_FR_REAL,001,39,
images/fcloud80-20_D1.2_2.tif,1.2,2,,,,,0,57,57,85,,,,,,,,,,,,,,,,,,,3,space,2.1516283,2,3.15,,,,,,,,,,,,,,,,,,2019_Apr_17_1411,59.676980440425446,Cloud_Experiment_FR_REAL,001,39,
images/fcloud65-35_D0.9_1.tif,0.9,1,,,,,0,58,58,39,,,,,,,,,,,,,,,,,,,1,space,4.8901991,2,3.101,,,,,,,,,,,,,,,,,,2019_Apr_17_1411,59.676980440425446,Cloud_Experiment_FR_REAL,001,39,
images/fcloud65-35_D1.6_3.tif,1.6,1,,,,,0,59,59,62,,,,,,,,,,,,,,,,,,,3,space,3.0599857,2,3.534,,,,,,,,,,,,,,,,,,2019_Apr_17_1411,59.676980440425446,Cloud_Experiment_FR_REAL,001,39,
images/fcloud80-20_D0.8_3.tif,0.8,2,,,,,0,60,60,74,,,,,,,,,,,,,,,,,,,1,space,4.8881962,1,3.367,,,,,,,,,,,,,,,,,,2019_Apr_17_1411,59.676980440425446,Cloud_Experiment_FR_REAL,001,39,
images/fcloud65-35_D1.5_1.tif,1.5,1,,,,,0,61,61,57,,,,,,,,,,,,,,,,,,,3,space,2.6751723,2,1.252,,,,,,,,,,,,,,,,,,2019_Apr_17_1411,59.676980440425446,Cloud_Experiment_FR_REAL,001,39,
images/fcloud65-35_D1.3_2.tif,1.3,1,,,,,0,62,62,52,,,,,,,,,,,,,,,,,,,2,space,3.8785301,2,4.182,,,,,,,,,,,,,,,,,,2019_Apr_17_1411,59.676980440425446,Cloud_Experiment_FR_REAL,001,39,
images/fcloud65-35_D1.1_3.tif,1.1,1,,,,,0,63,63,47,,,,,,,,,,,,,,,,,,,3,space,2.2537009,4,1.817,,,,,,,,,,,,,,,,,,2019_Apr_17_1411,59.676980440425446,Cloud_Experiment_FR_REAL,001,39,
images/fcloud65-35_D0.8_1.tif,0.8,1,,,,,0,64,64,36,,,,,,,,,,,,,,,,,,,3,space,2.2852242,3,1.768,,,,,,,,,,,,,,,,,,2019_Apr_17_1411,59.676980440425446,Cloud_Experiment_FR_REAL,001,39,
images/fcloud_D1.1_2.tif,1.1,0,,,,,0,65,65,10,,,,,,,,,,,,,,,,,,,3,space,2.5009912,4,1.568,,,,,,,,,,,,,,,,,,2019_Apr_17_1411,59.676980440425446,Cloud_Experiment_FR_REAL,001,39,
images/fcloud_D1.8_2.tif,1.8,0,,,,,0,66,66,31,,,,,,,,,,,,,,,,,,,2,space,6.2360798,2,5.031,,,,,,,,,,,,,,,,,,2019_Apr_17_1411,59.676980440425446,Cloud_Experiment_FR_REAL,001,39,
images/fcloud80-20_D1.6_2.tif,1.6,2,,,,,0,67,67,97,,,,,,,,,,,,,,,,,,,2,space,3.8263228,3,6.546,,,,,,,,,,,,,,,,,,2019_Apr_17_1411,59.676980440425446,Cloud_Experiment_FR_REAL,001,39,
images/fcloud80-20_D1.7_2.tif,1.7,2,,,,,0,68,68,100,,,,,,,,,,,,,,,,,,,5,space,2.8255606,3,4.832,,,,,,,,,,,,,,,,,,2019_Apr_17_1411,59.676980440425446,Cloud_Experiment_FR_REAL,001,39,
images/fcloud65-35_D1.4_3.tif,1.4,1,,,,,0,69,69,56,,,,,,,,,,,,,,,,,,,5,space,2.6433819,4,1.534,,,,,,,,,,,,,,,,,,2019_Apr_17_1411,59.676980440425446,Cloud_Experiment_FR_REAL,001,39,
images/fcloud_D1.5_1.tif,1.5,0,,,,,0,70,70,21,,,,,,,,,,,,,,,,,,,5,space,4.2981088,4,3.2,,,,,,,,,,,,,,,,,,2019_Apr_17_1411,59.676980440425446,Cloud_Experiment_FR_REAL,001,39,
images/fcloud65-35_D1_1.tif,1.0,1,,,,,0,71,71,42,,,,,,,,,,,,,,,,,,,3,space,4.9707257,3,2.284,,,,,,,,,,,,,,,,,,2019_Apr_17_1411,59.676980440425446,Cloud_Experiment_FR_REAL,001,39,
images/fcloud80-20_D1.6_1.tif,1.6,2,,,,,0,72,72,96,,,,,,,,,,,,,,,,,,,4,space,2.6670779,3,2.018,,,,,,,,,,,,,,,,,,2019_Apr_17_1411,59.676980440425446,Cloud_Experiment_FR_REAL,001,39,
images/fcloud65-35_D0.9_2.tif,0.9,1,,,,,0,73,73,40,,,,,,,,,,,,,,,,,,,2,space,3.2611715,2,2.018,,,,,,,,,,,,,,,,,,2019_Apr_17_1411,59.676980440425446,Cloud_Experiment_FR_REAL,001,39,
images/fcloud80-20_D0.9_3.tif,0.9,2,,,,,0,74,74,77,,,,,,,,,,,,,,,,,,,2,space,3.1801141,2,1.618,,,,,,,,,,,,,,,,,,2019_Apr_17_1411,59.676980440425446,Cloud_Experiment_FR_REAL,001,39,
images/fcloud_D1_1.tif,1.0,0,,,,,0,75,75,6,,,,,,,,,,,,,,,,,,,2,space,2.6749601,3,2.435,,,,,,,,,,,,,,,,,,2019_Apr_17_1411,59.676980440425446,Cloud_Experiment_FR_REAL,001,39,
images/fcloud_D1_3.tif,1.0,0,,,,,0,76,76,8,,,,,,,,,,,,,,,,,,,4,space,2.7282981,3,2.467,,,,,,,,,,,,,,,,,,2019_Apr_17_1411,59.676980440425446,Cloud_Experiment_FR_REAL,001,39,
images/fcloud_D1.7_1.tif,1.7,0,,,,,0,77,77,27,,,,,,,,,,,,,,,,,,,3,space,5.8708845,3,1.734,,,,,,,,,,,,,,,,,,2019_Apr_17_1411,59.676980440425446,Cloud_Experiment_FR_REAL,001,39,
images/fcloud65-35_D0.8_3.tif,0.8,1,,,,,0,78,78,38,,,,,,,,,,,,,,,,,,,2,space,3.394683,2,2.169,,,,,,,,,,,,,,,,,,2019_Apr_17_1411,59.676980440425446,Cloud_Experiment_FR_REAL,001,39,
images/fcloud_D1_2.tif,1.0,0,,,,,0,79,79,7,,,,,,,,,,,,,,,,,,,3,space,3.5340666,3,3.084,,,,,,,,,,,,,,,,,,2019_Apr_17_1411,59.676980440425446,Cloud_Experiment_FR_REAL,001,39,
images/fcloud80-20_D1.4_2.tif,1.4,2,,,,,0,80,80,91,,,,,,,,,,,,,,,,,,,4,space,3.8146299,3,1.635,,,,,,,,,,,,,,,,,,2019_Apr_17_1411,59.676980440425446,Cloud_Experiment_FR_REAL,001,39,
images/fcloud_D0.8_3.tif,0.8,0,,,,,0,81,81,2,,,,,,,,,,,,,,,,,,,3,space,2.2443202,3,3.283,,,,,,,,,,,,,,,,,,2019_Apr_17_1411,59.676980440425446,Cloud_Experiment_FR_REAL,001,39,
images/fcloud65-35_D0.8_2.tif,0.8,1,,,,,0,82,82,37,,,,,,,,,,,,,,,,,,,5,space,1.8332361,4,2.168,,,,,,,,,,,,,,,,,,2019_Apr_17_1411,59.676980440425446,Cloud_Experiment_FR_REAL,001,39,
images/fcloud80-20_D1.8_2.tif,1.8,2,,,,,0,83,83,103,,,,,,,,,,,,,,,,,,,4,space,3.5689322,3,4.016,,,,,,,,,,,,,,,,,,2019_Apr_17_1411,59.676980440425446,Cloud_Experiment_FR_REAL,001,39,
images/fcloud80-20_D1.5_1.tif,1.5,2,,,,,0,84,84,93,,,,,,,,,,,,,,,,,,,2,space,4.9513829,2,3.783,,,,,,,,,,,,,,,,,,2019_Apr_17_1411,59.676980440425446,Cloud_Experiment_FR_REAL,001,39,
images/fcloud_D1.2_1.tif,1.2,0,,,,,0,85,85,12,,,,,,,,,,,,,,,,,,,4,space,1.94639,3,1.417,,,,,,,,,,,,,,,,,,2019_Apr_17_1411,59.676980440425446,Cloud_Experiment_FR_REAL,001,39,
images/fcloud80-20_D1.3_3.tif,1.3,2,,,,,0,86,86,89,,,,,,,,,,,,,,,,,,,4,space,2.9824285,3,1.818,,,,,,,,,,,,,,,,,,2019_Apr_17_1411,59.676980440425446,Cloud_Experiment_FR_REAL,001,39,
images/fcloud65-35_D1.3_1.tif,1.3,1,,,,,0,87,87,51,,,,,,,,,,,,,,,,,,,5,space,2.0024241,4,0.935,,,,,,,,,,,,,,,,,,2019_Apr_17_1411,59.676980440425446,Cloud_Experiment_FR_REAL,001,39,
images/fcloud_D1.2_3.tif,1.2,0,,,,,0,88,88,14,,,,,,,,,,,,,,,,,,,3,space,2.9550079,4,1.734,,,,,,,,,,,,,,,,,,2019_Apr_17_1411,59.676980440425446,Cloud_Experiment_FR_REAL,001,39,
images/fcloud65-35_D1.4_1.tif,1.4,1,,,,,0,89,89,54,,,,,,,,,,,,,,,,,,,4,space,2.8957914,4,1.868,,,,,,,,,,,,,,,,,,2019_Apr_17_1411,59.676980440425446,Cloud_Experiment_FR_REAL,001,39,
images/fcloud_D1.1_1.tif,1.1,0,,,,,0,90,90,9,,,,,,,,,,,,,,,,,,,3,space,3.4176208,4,1.902,,,,,,,,,,,,,,,,,,2019_Apr_17_1411,59.676980440425446,Cloud_Experiment_FR_REAL,001,39,
images/fcloud_D0.8_2.tif,0.8,0,,,,,0,91,91,1,,,,,,,,,,,,,,,,,,,3,space,3.5807274,4,1.118,,,,,,,,,,,,,,,,,,2019_Apr_17_1411,59.676980440425446,Cloud_Experiment_FR_REAL,001,39,
images/fcloud80-20_D1.8_1.tif,1.8,2,,,,,0,92,92,102,,,,,,,,,,,,,,,,,,,4,space,2.9500889,3,1.118,,,,,,,,,,,,,,,,,,2019_Apr_17_1411,59.676980440425446,Cloud_Experiment_FR_REAL,001,39,
images/fcloud65-35_D1.4_2.tif,1.4,1,,,,,0,93,93,55,,,,,,,,,,,,,,,,,,,4,space,1.9799087,3,2.152,,,,,,,,,,,,,,,,,,2019_Apr_17_1411,59.676980440425446,Cloud_Experiment_FR_REAL,001,39,
images/fcloud_D1.4_1.tif,1.4,0,,,,,0,94,94,18,,,,,,,,,,,,,,,,,,,3,space,2.4938782,3,2.217,,,,,,,,,,,,,,,,,,2019_Apr_17_1411,59.676980440425446,Cloud_Experiment_FR_REAL,001,39,
images/fcloud_D0.9_3.tif,0.9,0,,,,,0,95,95,5,,,,,,,,,,,,,,,,,,,2,space,5.1329048,3,1.617,,,,,,,,,,,,,,,,,,2019_Apr_17_1411,59.676980440425446,Cloud_Experiment_FR_REAL,001,39,
images/fcloud65-35_D1_2.tif,1.0,1,,,,,0,96,96,43,,,,,,,,,,,,,,,,,,,2,space,3.3281298,2,1.535,,,,,,,,,,,,,,,,,,2019_Apr_17_1411,59.676980440425446,Cloud_Experiment_FR_REAL,001,39,
images/fcloud65-35_D1.2_2.tif,1.2,1,,,,,0,97,97,49,,,,,,,,,,,,,,,,,,,4,space,2.8650929,3,1.668,,,,,,,,,,,,,,,,,,2019_Apr_17_1411,59.676980440425446,Cloud_Experiment_FR_REAL,001,39,
images/fcloud_D0.9_1.tif,0.9,0,,,,,0,98,98,3,,,,,,,,,,,,,,,,,,,1,space,5.7165583,3,1.867,,,,,,,,,,,,,,,,,,2019_Apr_17_1411,59.676980440425446,Cloud_Experiment_FR_REAL,001,39,
images/fcloud80-20_D1.2_3.tif,1.2,2,,,,,0,99,99,86,,,,,,,,,,,,,,,,,,,3,space,2.9220888,2,1.469,,,,,,,,,,,,,,,,,,2019_Apr_17_1411,59.676980440425446,Cloud_Experiment_FR_REAL,001,39,
images/fcloud80-20_D1.7_1.tif,1.7,2,,,,,0,100,100,99,,,,,,,,,,,,,,,,,,,3,space,2.3175812,3,1.518,,,,,,,,,,,,,,,,,,2019_Apr_17_1411,59.676980440425446,Cloud_Experiment_FR_REAL,001,39,
images/fcloud80-20_D1.4_3.tif,1.4,2,,,,,0,101,101,92,,,,,,,,,,,,,,,,,,,3,space,3.7269897,3,2.451,,,,,,,,,,,,,,,,,,2019_Apr_17_1411,59.676980440425446,Cloud_Experiment_FR_REAL,001,39,
images/fcloud80-20_D0.9_2.tif,0.9,2,,,,,0,102,102,76,,,,,,,,,,,,,,,,,,,4,space,2.8981886,3,2.367,,,,,,,,,,,,,,,,,,2019_Apr_17_1411,59.676980440425446,Cloud_Experiment_FR_REAL,001,39,
images/fcloud65-35_D1.5_3.tif,1.5,1,,,,,0,103,103,59,,,,,,,,,,,,,,,,,,,4,space,4.1118615,4,1.736,,,,,,,,,,,,,,,,,,2019_Apr_17_1411,59.676980440425446,Cloud_Experiment_FR_REAL,001,39,
images/fcloud65-35_D1.1_2.tif,1.1,1,,,,,0,104,104,46,,,,,,,,,,,,,,,,,,,4,space,2.1287618,3,2.701,,,,,,,,,,,,,,,,,,2019_Apr_17_1411,59.676980440425446,Cloud_Experiment_FR_REAL,001,39,
images/fcloud65-35_D1.7_3.tif,1.7,1,,,,,0,105,105,65,,,,,,,,,,,,,,,,,,,5,space,1.9028882,3,1.318,,,,,,,,,,,,,,,,,,2019_Apr_17_1411,59.676980440425446,Cloud_Experiment_FR_REAL,001,39,
images/fcloud65-35_D1.3_3.tif,1.3,1,,,,,0,106,106,53,,,,,,,,,,,,,,,,,,,4,space,3.5941444,3,5.565,,,,,,,,,,,,,,,,,,2019_Apr_17_1411,59.676980440425446,Cloud_Experiment_FR_REAL,001,39,
images/fcloud80-20_D0.8_2.tif,0.8,2,,,,,0,107,107,73,,,,,,,,,,,,,,,,,,,2,space,3.1063681,3,2.45,,,,,,,,,,,,,,,,,,2019_Apr_17_1411,59.676980440425446,Cloud_Experiment_FR_REAL,001,39,
,,,,,,,,,,,,,,,,,,,,,,,,,,,,,,,,,,,,,,,,,,,,,,space,3.8321381,,,,2019_Apr_17_1411,59.676980440425446,Cloud_Experiment_FR_REAL,001,39,
,,,,,,,,,,,,,,,,,,,,,,,,,5,11.932,,,,,,,,,,,,,,,,,,,,,,,,,2019_Apr_17_1411,59.676980440425446,Cloud_Experiment_FR_REAL,001,39,
,,,,,,,,,,,,,,,,,,,,,,,,,,,,,,,,,,4,,,,,,,,,,,,,,,,,2019_Apr_17_1411,59.676980440425446,Cloud_Experiment_FR_REAL,001,39,
,,,,,,,,,,,,,,,,,,,,,,,,,,,,,,,,,,,4,,,,,,,,,,,,,,,,2019_Apr_17_1411,59.676980440425446,Cloud_Experiment_FR_REAL,001,39,
,,,,,,,,,,,,,,,,,,,,,,,,,,,,,,,,,,,,6,,,,,,,,,,,,,,,2019_Apr_17_1411,59.676980440425446,Cloud_Experiment_FR_REAL,001,39,
,,,,,,,,,,,,,,,,,,,,,,,,,,,,,,,,,,,,,2,,,,,,,,,,,,,,2019_Apr_17_1411,59.676980440425446,Cloud_Experiment_FR_REAL,001,39,
,,,,,,,,,,,,,,,,,,,,,,,,,,,,,,,,,,,,,,1,,,,,,,,,,,,,2019_Apr_17_1411,59.676980440425446,Cloud_Experiment_FR_REAL,001,39,
,,,,,,,,,,,,,,,,,,,,,,,,,,,,,,,,,,,,,,,6,,,,,,,,,,,,2019_Apr_17_1411,59.676980440425446,Cloud_Experiment_FR_REAL,001,39,
,,,,,,,,,,,,,,,,,,,,,,,,,,,,,,,,,,,,,,,,6,,,,,,,,,,,2019_Apr_17_1411,59.676980440425446,Cloud_Experiment_FR_REAL,001,39,
,,,,,,,,,,,,,,,,,,,,,,,,,,,,,,,,,,,,,,,,,6,,,,,,,,,,2019_Apr_17_1411,59.676980440425446,Cloud_Experiment_FR_REAL,001,39,
,,,,,,,,,,,,,,,,,,,,,,,,,,,,,,,,,,,,,,,,,,7,,,,,,,,,2019_Apr_17_1411,59.676980440425446,Cloud_Experiment_FR_REAL,001,39,
,,,,,,,,,,,,,,,,,,,,,,,,,,,,,,,,,,,,,,,,,,,5,,,,,,,,2019_Apr_17_1411,59.676980440425446,Cloud_Experiment_FR_REAL,001,39,
,,,,,,,,,,,,,,,,,,,,,,,,,,,,,,,,,,,,,,,,,,,,,,,,space,243.6884903,,2019_Apr_17_1411,59.676980440425446,Cloud_Experiment_FR_REAL,001,39,
images/fcloud80-20_D1.4_4.tif,1.4,2,,,,,,,,,0,0,0,90,,,,,,,,,,,,,,,3,space,2.9773326,3,2.217,,,,,,,,,,,,,,,,,,2019_Apr_17_1411,59.676980440425446,Cloud_Experiment_FR_REAL,001,39,
images/fcloud_D1.6_4.tif,1.6,0,,,,,,,,,0,1,1,24,,,,,,,,,,,,,,,3,space,6.541527,3,6.713,,,,,,,,,,,,,,,,,,2019_Apr_17_1411,59.676980440425446,Cloud_Experiment_FR_REAL,001,39,
images/fcloud80-20_D1.8_4.tif,1.8,2,,,,,,,,,0,2,2,102,,,,,,,,,,,,,,,3,space,4.0072982,3,3.2,,,,,,,,,,,,,,,,,,2019_Apr_17_1411,59.676980440425446,Cloud_Experiment_FR_REAL,001,39,
images/fcloud80-20_D1.3_5.tif,1.3,2,,,,,,,,,0,3,3,88,,,,,,,,,,,,,,,5,space,3.0847256,4,2.151,,,,,,,,,,,,,,,,,,2019_Apr_17_1411,59.676980440425446,Cloud_Experiment_FR_REAL,001,39,
images/fcloud80-20_D0.9_5.tif,0.9,2,,,,,,,,,0,4,4,76,,,,,,,,,,,,,,,4,space,2.4607652,3,2.534,,,,,,,,,,,,,,,,,,2019_Apr_17_1411,59.676980440425446,Cloud_Experiment_FR_REAL,001,39,
images/fcloud80-20_D0.9_4.tif,0.9,2,,,,,,,,,0,5,5,75,,,,,,,,,,,,,,,3,space,2.4218799,2,8.479,,,,,,,,,,,,,,,,,,2019_Apr_17_1411,59.676980440425446,Cloud_Experiment_FR_REAL,001,39,
images/fcloud65-35_D1_5.tif,1.0,1,,,,,,,,,0,6,6,43,,,,,,,,,,,,,,,3,space,2.6229554,3,4.299,,,,,,,,,,,,,,,,,,2019_Apr_17_1411,59.676980440425446,Cloud_Experiment_FR_REAL,001,39,
images/fcloud65-35_D0.8_6.tif,0.8,1,,,,,,,,,0,7,7,38,,,,,,,,,,,,,,,2,space,3.6863324,3,1.85,,,,,,,,,,,,,,,,,,2019_Apr_17_1411,59.676980440425446,Cloud_Experiment_FR_REAL,001,39,
images/fcloud80-20_D0.8_6.tif,0.8,2,,,,,,,,,0,8,8,74,,,,,,,,,,,,,,,3,space,3.2638796,2,2.45,,,,,,,,,,,,,,,,,,2019_Apr_17_1411,59.676980440425446,Cloud_Experiment_FR_REAL,001,39,
images/fcloud_D0.9_5.tif,0.9,0,,,,,,,,,0,9,9,4,,,,,,,,,,,,,,,5,space,1.0877483,4,2.8,,,,,,,,,,,,,,,,,,2019_Apr_17_1411,59.676980440425446,Cloud_Experiment_FR_REAL,001,39,
images/fcloud65-35_D1.6_6.tif,1.6,1,,,,,,,,,0,10,10,62,,,,,,,,,,,,,,,4,space,3.0993113,4,5.697,,,,,,,,,,,,,,,,,,2019_Apr_17_1411,59.676980440425446,Cloud_Experiment_FR_REAL,001,39,
images/fcloud_D1_5.tif,1.0,0,,,,,,,,,0,11,11,7,,,,,,,,,,,,,,,5,space,1.301603,5,2.018,,,,,,,,,,,,,,,,,,2019_Apr_17_1411,59.676980440425446,Cloud_Experiment_FR_REAL,001,39,
images/fcloud80-20_D1.1_6.tif,1.1,2,,,,,,,,,0,12,12,83,,,,,,,,,,,,,,,3,space,2.7301611,3,2.284,,,,,,,,,,,,,,,,,,2019_Apr_17_1411,59.676980440425446,Cloud_Experiment_FR_REAL,001,39,
images/fcloud_D1.3_4.tif,1.3,0,,,,,,,,,0,13,13,15,,,,,,,,,,,,,,,5,space,3.3285491,4,1.518,,,,,,,,,,,,,,,,,,2019_Apr_17_1411,59.676980440425446,Cloud_Experiment_FR_REAL,001,39,
images/fcloud_D0.8_6.tif,0.8,0,,,,,,,,,0,14,14,2,,,,,,,,,,,,,,,4,space,2.6543294,3,1.918,,,,,,,,,,,,,,,,,,2019_Apr_17_1411,59.676980440425446,Cloud_Experiment_FR_REAL,001,39,
images/fcloud_D1.5_6.tif,1.5,0,,,,,,,,,0,15,15,23,,,,,,,,,,,,,,,5,space,2.9029654,5,2.751,,,,,,,,,,,,,,,,,,2019_Apr_17_1411,59.676980440425446,Cloud_Experiment_FR_REAL,001,39,
images/fcloud65-35_D1.9_5.tif,1.9,1,,,,,,,,,0,16,16,70,,,,,,,,,,,,,,,5,space,3.4221539,4,2.684,,,,,,,,,,,,,,,,,,2019_Apr_17_1411,59.676980440425446,Cloud_Experiment_FR_REAL,001,39,
images/fcloud80-20_D1.6_4.tif,1.6,2,,,,,,,,,0,17,17,96,,,,,,,,,,,,,,,3,space,2.2009651,3,4.483,,,,,,,,,,,,,,,,,,2019_Apr_17_1411,59.676980440425446,Cloud_Experiment_FR_REAL,001,39,
images/fcloud_D1.3_5.tif,1.3,0,,,,,,,,,0,18,18,16,,,,,,,,,,,,,,,5,space,2.8155885,4,2.234,,,,,,,,,,,,,,,,,,2019_Apr_17_1411,59.676980440425446,Cloud_Experiment_FR_REAL,001,39,
images/fcloud65-35_D1.2_6.tif,1.2,1,,,,,,,,,0,19,19,50,,,,,,,,,,,,,,,5,space,2.2708468,4,1.902,,,,,,,,,,,,,,,,,,2019_Apr_17_1411,59.676980440425446,Cloud_Experiment_FR_REAL,001,39,
images/fcloud80-20_D1_5.tif,1.0,2,,,,,,,,,0,20,20,79,,,,,,,,,,,,,,,4,space,3.9201697,3,2.701,,,,,,,,,,,,,,,,,,2019_Apr_17_1411,59.676980440425446,Cloud_Experiment_FR_REAL,001,39,
images/fcloud65-35_D0.9_5.tif,0.9,1,,,,,,,,,0,21,21,40,,,,,,,,,,,,,,,3,space,1.4401368,2,1.551,,,,,,,,,,,,,,,,,,2019_Apr_17_1411,59.676980440425446,Cloud_Experiment_FR_REAL,001,39,
images/fcloud80-20_D1.4_5.tif,1.4,2,,,,,,,,,0,22,22,91,,,,,,,,,,,,,,,5,space,2.7824701,3,1.467,,,,,,,,,,,,,,,,,,2019_Apr_17_1411,59.676980440425446,Cloud_Experiment_FR_REAL,001,39,
images/fcloud65-35_D1.4_6.tif,1.4,1,,,,,,,,,0,23,23,56,,,,,,,,,,,,,,,5,space,1.202829,4,1.535,,,,,,,,,,,,,,,,,,2019_Apr_17_1411,59.676980440425446,Cloud_Experiment_FR_REAL,001,39,
images/fcloud80-20_D1.6_6.tif,1.6,2,,,,,,,,,0,24,24,98,,,,,,,,,,,,,,,5,space,3.0057495,3,2.283,,,,,,,,,,,,,,,,,,2019_Apr_17_1411,59.676980440425446,Cloud_Experiment_FR_REAL,001,39,
images/fcloud65-35_D1.1_5.tif,1.1,1,,,,,,,,,0,25,25,46,,,,,,,,,,,,,,,3,space,1.9290359,2,1.735,,,,,,,,,,,,,,,,,,2019_Apr_17_1411,59.676980440425446,Cloud_Experiment_FR_REAL,001,39,
images/fcloud65-35_D1.9_4.tif,1.9,1,,,,,,,,,0,26,26,69,,,,,,,,,,,,,,,5,space,2.803083,3,3.35,,,,,,,,,,,,,,,,,,2019_Apr_17_1411,59.676980440425446,Cloud_Experiment_FR_REAL,001,39,
images/fcloud_D1.5_5.tif,1.5,0,,,,,,,,,0,27,27,22,,,,,,,,,,,,,,,4,space,1.9618617,2,6.114,,,,,,,,,,,,,,,,,,2019_Apr_17_1411,59.676980440425446,Cloud_Experiment_FR_REAL,001,39,
images/fcloud_D1.6_6.tif,1.6,0,,,,,,,,,0,28,28,26,,,,,,,,,,,,,,,3,space,1.3355354,2,3.167,,,,,,,,,,,,,,,,,,2019_Apr_17_1411,59.676980440425446,Cloud_Experiment_FR_REAL,001,39,
images/fcloud65-35_D1.4_4.tif,1.4,1,,,,,,,,,0,29,29,54,,,,,,,,,,,,,,,5,space,1.7708857,3,1.868,,,,,,,,,,,,,,,,,,2019_Apr_17_1411,59.676980440425446,Cloud_Experiment_FR_REAL,001,39,
images/fcloud_D1.7_6.tif,1.7,0,,,,,,,,,0,30,30,29,,,,,,,,,,,,,,,4,space,2.5973446,3,1.985,,,,,,,,,,,,,,,,,,2019_Apr_17_1411,59.676980440425446,Cloud_Experiment_FR_REAL,001,39,
images/fcloud_D1.1_6.tif,1.1,0,,,,,,,,,0,31,31,11,,,,,,,,,,,,,,,3,space,4.2228812,3,1.368,,,,,,,,,,,,,,,,,,2019_Apr_17_1411,59.676980440425446,Cloud_Experiment_FR_REAL,001,39,
images/fcloud65-35_D1_4.tif,1.0,1,,,,,,,,,0,32,32,42,,,,,,,,,,,,,,,3,space,2.7769722,3,1.034,,,,,,,,,,,,,,,,,,2019_Apr_17_1411,59.676980440425446,Cloud_Experiment_FR_REAL,001,39,
images/fcloud_D1.2_5.tif,1.2,0,,,,,,,,,0,33,33,13,,,,,,,,,,,,,,,5,space,2.4999548,4,1.035,,,,,,,,,,,,,,,,,,2019_Apr_17_1411,59.676980440425446,Cloud_Experiment_FR_REAL,001,39,
images/fcloud65-35_D1.8_5.tif,1.8,1,,,,,,,,,0,34,34,67,,,,,,,,,,,,,,,5,space,1.932587,4,1.684,,,,,,,,,,,,,,,,,,2019_Apr_17_1411,59.676980440425446,Cloud_Experiment_FR_REAL,001,39,
images/fcloud80-20_D1.5_5.tif,1.5,2,,,,,,,,,0,35,35,94,,,,,,,,,,,,,,,3,space,4.0610069,3,2.2,,,,,,,,,,,,,,,,,,2019_Apr_17_1411,59.676980440425446,Cloud_Experiment_FR_REAL,001,39,
images/fcloud80-20_D1.6_5.tif,1.6,2,,,,,,,,,0,36,36,97,,,,,,,,,,,,,,,3,space,2.5917992,3,1.084,,,,,,,,,,,,,,,,,,2019_Apr_17_1411,59.676980440425446,Cloud_Experiment_FR_REAL,001,39,
images/fcloud80-20_D1.2_4.tif,1.2,2,,,,,,,,,0,37,37,84,,,,,,,,,,,,,,,4,space,1.9382709,2,2.784,,,,,,,,,,,,,,,,,,2019_Apr_17_1411,59.676980440425446,Cloud_Experiment_FR_REAL,001,39,
images/fcloud65-35_D1.6_5.tif,1.6,1,,,,,,,,,0,38,38,61,,,,,,,,,,,,,,,4,space,3.1097373,3,1.951,,,,,,,,,,,,,,,,,,2019_Apr_17_1411,59.676980440425446,Cloud_Experiment_FR_REAL,001,39,
images/fcloud80-20_D1.7_4.tif,1.7,2,,,,,,,,,0,39,39,99,,,,,,,,,,,,,,,3,space,1.6018336,2,1.136,,,,,,,,,,,,,,,,,,2019_Apr_17_1411,59.676980440425446,Cloud_Experiment_FR_REAL,001,39,
images/fcloud80-20_D1.5_4.tif,1.5,2,,,,,,,,,0,40,40,93,,,,,,,,,,,,,,,4,space,1.5553423,3,2.633,,,,,,,,,,,,,,,,,,2019_Apr_17_1411,59.676980440425446,Cloud_Experiment_FR_REAL,001,39,
images/fcloud_D1.2_4.tif,1.2,0,,,,,,,,,0,41,41,12,,,,,,,,,,,,,,,5,space,3.0317724,4,3.966,,,,,,,,,,,,,,,,,,2019_Apr_17_1411,59.676980440425446,Cloud_Experiment_FR_REAL,001,39,
images/fcloud80-20_D1.8_5.tif,1.8,2,,,,,,,,,0,42,42,103,,,,,,,,,,,,,,,4,space,2.4506163,2,5.931,,,,,,,,,,,,,,,,,,2019_Apr_17_1411,59.676980440425446,Cloud_Experiment_FR_REAL,001,39,
images/fcloud65-35_D1.4_5.tif,1.4,1,,,,,,,,,0,43,43,55,,,,,,,,,,,,,,,4,space,2.7398738,3,1.418,,,,,,,,,,,,,,,,,,2019_Apr_17_1411,59.676980440425446,Cloud_Experiment_FR_REAL,001,39,
images/fcloud65-35_D1.6_4.tif,1.6,1,,,,,,,,,0,44,44,60,,,,,,,,,,,,,,,5,space,2.301842,3,3.2,,,,,,,,,,,,,,,,,,2019_Apr_17_1411,59.676980440425446,Cloud_Experiment_FR_REAL,001,39,
images/fcloud_D1.1_5.tif,1.1,0,,,,,,,,,0,45,45,10,,,,,,,,,,,,,,,4,space,2.8580378,3,3.765,,,,,,,,,,,,,,,,,,2019_Apr_17_1411,59.676980440425446,Cloud_Experiment_FR_REAL,001,39,
images/fcloud_D1.9_6.tif,1.9,0,,,,,,,,,0,46,46,35,,,,,,,,,,,,,,,5,space,2.1934011,5,2.151,,,,,,,,,,,,,,,,,,2019_Apr_17_1411,59.676980440425446,Cloud_Experiment_FR_REAL,001,39,
images/fcloud80-20_D1.7_6.tif,1.7,2,,,,,,,,,0,47,47,101,,,,,,,,,,,,,,,5,space,3.1403087,3,1.784,,,,,,,,,,,,,,,,,,2019_Apr_17_1411,59.676980440425446,Cloud_Experiment_FR_REAL,001,39,
images/fcloud80-20_D1.1_5.tif,1.1,2,,,,,,,,,0,48,48,82,,,,,,,,,,,,,,,4,space,1.632235,2,3.065,,,,,,,,,,,,,,,,,,2019_Apr_17_1411,59.676980440425446,Cloud_Experiment_FR_REAL,001,39,
images/fcloud80-20_D0.8_5.tif,0.8,2,,,,,,,,,0,49,49,73,,,,,,,,,,,,,,,4,space,1.8103999,2,1.085,,,,,,,,,,,,,,,,,,2019_Apr_17_1411,59.676980440425446,Cloud_Experiment_FR_REAL,001,39,
images/fcloud_D1.4_6.tif,1.4,0,,,,,,,,,0,50,50,20,,,,,,,,,,,,,,,2,space,2.5272998,3,6.864,,,,,,,,,,,,,,,,,,2019_Apr_17_1411,59.676980440425446,Cloud_Experiment_FR_REAL,001,39,
images/fcloud80-20_D1.9_5.tif,1.9,2,,,,,,,,,0,51,51,106,,,,,,,,,,,,,,,3,space,1.2925007,3,1.835,,,,,,,,,,,,,,,,,,2019_Apr_17_1411,59.676980440425446,Cloud_Experiment_FR_REAL,001,39,
images/fcloud80-20_D1.2_5.tif,1.2,2,,,,,,,,,0,52,52,85,,,,,,,,,,,,,,,4,space,2.2937158,3,1.785,,,,,,,,,,,,,,,,,,2019_Apr_17_1411,59.676980440425446,Cloud_Experiment_FR_REAL,001,39,
images/fcloud65-35_D1.8_4.tif,1.8,1,,,,,,,,,0,53,53,66,,,,,,,,,,,,,,,5,space,2.7885019,4,1.616,,,,,,,,,,,,,,,,,,2019_Apr_17_1411,59.676980440425446,Cloud_Experiment_FR_REAL,001,39,
images/fcloud80-20_D0.8_4.tif,0.8,2,,,,,,,,,0,54,54,72,,,,,,,,,,,,,,,4,space,3.0456828,3,1.368,,,,,,,,,,,,,,,,,,2019_Apr_17_1411,59.676980440425446,Cloud_Experiment_FR_REAL,001,39,
images/fcloud65-35_D1_6.tif,1.0,1,,,,,,,,,0,55,55,44,,,,,,,,,,,,,,,5,space,2.2989885,3,5.13,,,,,,,,,,,,,,,,,,2019_Apr_17_1411,59.676980440425446,Cloud_Experiment_FR_REAL,001,39,
images/fcloud_D1.8_5.tif,1.8,0,,,,,,,,,0,56,56,31,,,,,,,,,,,,,,,5,space,2.5630847,4,2.351,,,,,,,,,,,,,,,,,,2019_Apr_17_1411,59.676980440425446,Cloud_Experiment_FR_REAL,001,39,
images/fcloud65-35_D1.7_4.tif,1.7,1,,,,,,,,,0,57,57,63,,,,,,,,,,,,,,,5,space,1.8839359,4,1.949,,,,,,,,,,,,,,,,,,2019_Apr_17_1411,59.676980440425446,Cloud_Experiment_FR_REAL,001,39,
images/fcloud_D1.6_5.tif,1.6,0,,,,,,,,,0,58,58,25,,,,,,,,,,,,,,,5,space,2.0552641,4,1.401,,,,,,,,,,,,,,,,,,2019_Apr_17_1411,59.676980440425446,Cloud_Experiment_FR_REAL,001,39,
images/fcloud65-35_D1.5_5.tif,1.5,1,,,,,,,,,0,59,59,58,,,,,,,,,,,,,,,5,space,3.3857616,3,2.6,,,,,,,,,,,,,,,,,,2019_Apr_17_1411,59.676980440425446,Cloud_Experiment_FR_REAL,001,39,
images/fcloud80-20_D1.8_6.tif,1.8,2,,,,,,,,,0,60,60,104,,,,,,,,,,,,,,,5,space,2.2774805,3,3.251,,,,,,,,,,,,,,,,,,2019_Apr_17_1411,59.676980440425446,Cloud_Experiment_FR_REAL,001,39,
images/fcloud80-20_D1.7_5.tif,1.7,2,,,,,,,,,0,61,61,100,,,,,,,,,,,,,,,4,space,2.6149838,3,1.67,,,,,,,,,,,,,,,,,,2019_Apr_17_1411,59.676980440425446,Cloud_Experiment_FR_REAL,001,39,
images/fcloud_D1.1_4.tif,1.1,0,,,,,,,,,0,62,62,9,,,,,,,,,,,,,,,5,space,1.9570557,3,2.235,,,,,,,,,,,,,,,,,,2019_Apr_17_1411,59.676980440425446,Cloud_Experiment_FR_REAL,001,39,
images/fcloud65-35_D1.5_4.tif,1.5,1,,,,,,,,,0,63,63,57,,,,,,,,,,,,,,,5,space,2.7651245,3,2.168,,,,,,,,,,,,,,,,,,2019_Apr_17_1411,59.676980440425446,Cloud_Experiment_FR_REAL,001,39,
images/fcloud65-35_D1.1_4.tif,1.1,1,,,,,,,,,0,64,64,45,,,,,,,,,,,,,,,5,space,3.7252216,3,6.78,,,,,,,,,,,,,,,,,,2019_Apr_17_1411,59.676980440425446,Cloud_Experiment_FR_REAL,001,39,
images/fcloud80-20_D1.9_4.tif,1.9,2,,,,,,,,,0,65,65,105,,,,,,,,,,,,,,,5,space,3.6453313,2,2.051,,,,,,,,,,,,,,,,,,2019_Apr_17_1411,59.676980440425446,Cloud_Experiment_FR_REAL,001,39,
images/fcloud80-20_D1.2_6.tif,1.2,2,,,,,,,,,0,66,66,86,,,,,,,,,,,,,,,5,space,4.3057136,2,7.014,,,,,,,,,,,,,,,,,,2019_Apr_17_1411,59.676980440425446,Cloud_Experiment_FR_REAL,001,39,
images/fcloud80-20_D1_6.tif,1.0,2,,,,,,,,,0,67,67,80,,,,,,,,,,,,,,,5,space,2.3872093,2,3.3,,,,,,,,,,,,,,,,,,2019_Apr_17_1411,59.676980440425446,Cloud_Experiment_FR_REAL,001,39,
images/fcloud80-20_D1.3_6.tif,1.3,2,,,,,,,,,0,68,68,89,,,,,,,,,,,,,,,3,space,3.0767348,2,1.535,,,,,,,,,,,,,,,,,,2019_Apr_17_1411,59.676980440425446,Cloud_Experiment_FR_REAL,001,39,
images/fcloud_D0.9_4.tif,0.9,0,,,,,,,,,0,69,69,3,,,,,,,,,,,,,,,2,space,3.9220469,2,1.768,,,,,,,,,,,,,,,,,,2019_Apr_17_1411,59.676980440425446,Cloud_Experiment_FR_REAL,001,39,
images/fcloud65-35_D1.1_6.tif,1.1,1,,,,,,,,,0,70,70,47,,,,,,,,,,,,,,,5,space,1.9797349,2,1.433,,,,,,,,,,,,,,,,,,2019_Apr_17_1411,59.676980440425446,Cloud_Experiment_FR_REAL,001,39,
images/fcloud65-35_D0.9_4.tif,0.9,1,,,,,,,,,0,71,71,39,,,,,,,,,,,,,,,3,space,2.8090108,2,3.05,,,,,,,,,,,,,,,,,,2019_Apr_17_1411,59.676980440425446,Cloud_Experiment_FR_REAL,001,39,
images/fcloud_D1.9_4.tif,1.9,0,,,,,,,,,0,72,72,33,,,,,,,,,,,,,,,5,space,2.4635813,3,3.933,,,,,,,,,,,,,,,,,,2019_Apr_17_1411,59.676980440425446,Cloud_Experiment_FR_REAL,001,39,
images/fcloud80-20_D1_4.tif,1.0,2,,,,,,,,,0,73,73,78,,,,,,,,,,,,,,,5,space,1.6918776,3,2.816,,,,,,,,,,,,,,,,,,2019_Apr_17_1411,59.676980440425446,Cloud_Experiment_FR_REAL,001,39,
images/fcloud65-35_D0.9_6.tif,0.9,1,,,,,,,,,0,74,74,41,,,,,,,,,,,,,,,5,space,2.0234557,4,6.165,,,,,,,,,,,,,,,,,,2019_Apr_17_1411,59.676980440425446,Cloud_Experiment_FR_REAL,001,39,
images/fcloud_D1.9_5.tif,1.9,0,,,,,,,,,0,75,75,34,,,,,,,,,,,,,,,4,space,2.3006318,3,2.616,,,,,,,,,,,,,,,,,,2019_Apr_17_1411,59.676980440425446,Cloud_Experiment_FR_REAL,001,39,
images/fcloud80-20_D1.1_4.tif,1.1,2,,,,,,,,,0,76,76,81,,,,,,,,,,,,,,,4,space,2.5870267,2,8.678,,,,,,,,,,,,,,,,,,2019_Apr_17_1411,59.676980440425446,Cloud_Experiment_FR_REAL,001,39,
images/fcloud80-20_D1.9_6.tif,1.9,2,,,,,,,,,0,77,77,107,,,,,,,,,,,,,,,5,space,2.4676668,3,1.735,,,,,,,,,,,,,,,,,,2019_Apr_17_1411,59.676980440425446,Cloud_Experiment_FR_REAL,001,39,
images/fcloud_D1.2_6.tif,1.2,0,,,,,,,,,0,78,78,14,,,,,,,,,,,,,,,5,space,2.0734453,3,1.468,,,,,,,,,,,,,,,,,,2019_Apr_17_1411,59.676980440425446,Cloud_Experiment_FR_REAL,001,39,
images/fcloud65-35_D1.2_5.tif,1.2,1,,,,,,,,,0,79,79,49,,,,,,,,,,,,,,,5,space,2.2544391,2,3.932,,,,,,,,,,,,,,,,,,2019_Apr_17_1411,59.676980440425446,Cloud_Experiment_FR_REAL,001,39,
images/fcloud65-35_D1.8_6.tif,1.8,1,,,,,,,,,0,80,80,68,,,,,,,,,,,,,,,5,space,3.1281573,3,1.401,,,,,,,,,,,,,,,,,,2019_Apr_17_1411,59.676980440425446,Cloud_Experiment_FR_REAL,001,39,
images/fcloud80-20_D1.4_6.tif,1.4,2,,,,,,,,,0,81,81,92,,,,,,,,,,,,,,,4,space,1.9872807,2,4.881,,,,,,,,,,,,,,,,,,2019_Apr_17_1411,59.676980440425446,Cloud_Experiment_FR_REAL,001,39,
images/fcloud_D1.3_6.tif,1.3,0,,,,,,,,,0,82,82,17,,,,,,,,,,,,,,,5,space,2.594493,3,6.647,,,,,,,,,,,,,,,,,,2019_Apr_17_1411,59.676980440425446,Cloud_Experiment_FR_REAL,001,39,
images/fcloud65-35_D1.3_4.tif,1.3,1,,,,,,,,,0,83,83,51,,,,,,,,,,,,,,,5,space,4.0354103,2,1.402,,,,,,,,,,,,,,,,,,2019_Apr_17_1411,59.676980440425446,Cloud_Experiment_FR_REAL,001,39,
images/fcloud_D1_4.tif,1.0,0,,,,,,,,,0,84,84,6,,,,,,,,,,,,,,,3,space,3.5817722,2,7.613,,,,,,,,,,,,,,,,,,2019_Apr_17_1411,59.676980440425446,Cloud_Experiment_FR_REAL,001,39,
images/fcloud_D0.9_6.tif,0.9,0,,,,,,,,,0,85,85,5,,,,,,,,,,,,,,,5,space,1.9220136,3,1.551,,,,,,,,,,,,,,,,,,2019_Apr_17_1411,59.676980440425446,Cloud_Experiment_FR_REAL,001,39,
images/fcloud_D0.8_5.tif,0.8,0,,,,,,,,,0,86,86,1,,,,,,,,,,,,,,,4,space,1.512574,4,3.683,,,,,,,,,,,,,,,,,,2019_Apr_17_1411,59.676980440425446,Cloud_Experiment_FR_REAL,001,39,
images/fcloud65-35_D0.8_4.tif,0.8,1,,,,,,,,,0,87,87,36,,,,,,,,,,,,,,,3,space,4.4300953,1,2.167,,,,,,,,,,,,,,,,,,2019_Apr_17_1411,59.676980440425446,Cloud_Experiment_FR_REAL,001,39,
images/fcloud_D0.8_4.tif,0.8,0,,,,,,,,,0,88,88,0,,,,,,,,,,,,,,,5,space,2.1264385,3,1.785,,,,,,,,,,,,,,,,,,2019_Apr_17_1411,59.676980440425446,Cloud_Experiment_FR_REAL,001,39,
images/fcloud_D1.4_4.tif,1.4,0,,,,,,,,,0,89,89,18,,,,,,,,,,,,,,,5,space,2.4479556,2,2.018,,,,,,,,,,,,,,,,,,2019_Apr_17_1411,59.676980440425446,Cloud_Experiment_FR_REAL,001,39,
images/fcloud_D1.8_6.tif,1.8,0,,,,,,,,,0,90,90,32,,,,,,,,,,,,,,,3,None,,1,1.802,,,,,,,,,,,,,,,,,,2019_Apr_17_1411,59.676980440425446,Cloud_Experiment_FR_REAL,001,39,
images/fcloud_D1.4_5.tif,1.4,0,,,,,,,,,0,91,91,19,,,,,,,,,,,,,,,4,space,2.7366864,2,8.745,,,,,,,,,,,,,,,,,,2019_Apr_17_1411,59.676980440425446,Cloud_Experiment_FR_REAL,001,39,
images/fcloud65-35_D0.8_5.tif,0.8,1,,,,,,,,,0,92,92,37,,,,,,,,,,,,,,,3,space,2.4001756,1,0.969,,,,,,,,,,,,,,,,,,2019_Apr_17_1411,59.676980440425446,Cloud_Experiment_FR_REAL,001,39,
images/fcloud80-20_D1.3_4.tif,1.3,2,,,,,,,,,0,93,93,87,,,,,,,,,,,,,,,4,space,1.251794,2,2.666,,,,,,,,,,,,,,,,,,2019_Apr_17_1411,59.676980440425446,Cloud_Experiment_FR_REAL,001,39,
images/fcloud65-35_D1.3_6.tif,1.3,1,,,,,,,,,0,94,94,53,,,,,,,,,,,,,,,5,space,1.9776567,3,2.201,,,,,,,,,,,,,,,,,,2019_Apr_17_1411,59.676980440425446,Cloud_Experiment_FR_REAL,001,39,
images/fcloud_D1.7_4.tif,1.7,0,,,,,,,,,0,95,95,27,,,,,,,,,,,,,,,5,space,2.5168734,3,2.518,,,,,,,,,,,,,,,,,,2019_Apr_17_1411,59.676980440425446,Cloud_Experiment_FR_REAL,001,39,
images/fcloud_D1.7_5.tif,1.7,0,,,,,,,,,0,96,96,28,,,,,,,,,,,,,,,5,space,2.6378872,3,2.484,,,,,,,,,,,,,,,,,,2019_Apr_17_1411,59.676980440425446,Cloud_Experiment_FR_REAL,001,39,
images/fcloud65-35_D1.2_4.tif,1.2,1,,,,,,,,,0,97,97,48,,,,,,,,,,,,,,,4,space,2.0951803,2,1.651,,,,,,,,,,,,,,,,,,2019_Apr_17_1411,59.676980440425446,Cloud_Experiment_FR_REAL,001,39,
images/fcloud65-35_D1.7_5.tif,1.7,1,,,,,,,,,0,98,98,64,,,,,,,,,,,,,,,4,space,1.6355273,2,4.665,,,,,,,,,,,,,,,,,,2019_Apr_17_1411,59.676980440425446,Cloud_Experiment_FR_REAL,001,39,
images/fcloud65-35_D1.9_6.tif,1.9,1,,,,,,,,,0,99,99,71,,,,,,,,,,,,,,,4,space,2.0684621,3,1.867,,,,,,,,,,,,,,,,,,2019_Apr_17_1411,59.676980440425446,Cloud_Experiment_FR_REAL,001,39,
images/fcloud80-20_D1.5_6.tif,1.5,2,,,,,,,,,0,100,100,95,,,,,,,,,,,,,,,4,space,2.8681189,2,2.05,,,,,,,,,,,,,,,,,,2019_Apr_17_1411,59.676980440425446,Cloud_Experiment_FR_REAL,001,39,
images/fcloud80-20_D0.9_6.tif,0.9,2,,,,,,,,,0,101,101,77,,,,,,,,,,,,,,,2,space,4.4841241,1,1.019,,,,,,,,,,,,,,,,,,2019_Apr_17_1411,59.676980440425446,Cloud_Experiment_FR_REAL,001,39,
images/fcloud65-35_D1.3_5.tif,1.3,1,,,,,,,,,0,102,102,52,,,,,,,,,,,,,,,4,space,2.1504118,2,1.134,,,,,,,,,,,,,,,,,,2019_Apr_17_1411,59.676980440425446,Cloud_Experiment_FR_REAL,001,39,
images/fcloud_D1_6.tif,1.0,0,,,,,,,,,0,103,103,8,,,,,,,,,,,,,,,5,space,1.7016642,3,1.384,,,,,,,,,,,,,,,,,,2019_Apr_17_1411,59.676980440425446,Cloud_Experiment_FR_REAL,001,39,
images/fcloud65-35_D1.5_6.tif,1.5,1,,,,,,,,,0,104,104,59,,,,,,,,,,,,,,,5,space,4.3120027,3,5.498,,,,,,,,,,,,,,,,,,2019_Apr_17_1411,59.676980440425446,Cloud_Experiment_FR_REAL,001,39,
images/fcloud65-35_D1.7_6.tif,1.7,1,,,,,,,,,0,105,105,65,,,,,,,,,,,,,,,5,space,2.2361115,3,1.368,,,,,,,,,,,,,,,,,,2019_Apr_17_1411,59.676980440425446,Cloud_Experiment_FR_REAL,001,39,
images/fcloud_D1.8_4.tif,1.8,0,,,,,,,,,0,106,106,30,,,,,,,,,,,,,,,5,space,2.9028212,3,1.918,,,,,,,,,,,,,,,,,,2019_Apr_17_1411,59.676980440425446,Cloud_Experiment_FR_REAL,001,39,
images/fcloud_D1.5_4.tif,1.5,0,,,,,,,,,0,107,107,21,,,,,,,,,,,,,,,4,space,2.5126767,3,1.767,,,,,,,,,,,,,,,,,,2019_Apr_17_1411,59.676980440425446,Cloud_Experiment_FR_REAL,001,39,
,,,,,,,,,,,,,,,,,,,,,,,,,,,,,,,,,,,,,,,,,,,,,,space,11.2924999,,,,2019_Apr_17_1411,59.676980440425446,Cloud_Experiment_FR_REAL,001,39,
,,,,,,,,,,,,,,,,,,,,,,,,,4,6.922,,,,,,,,,,,,,,,,,,,,,,,,,2019_Apr_17_1411,59.676980440425446,Cloud_Experiment_FR_REAL,001,39,
,,,,,,,,,,,,,,,,,,,,,,,,,,,,,,,,,,4,,,,,,,,,,,,,,,,,2019_Apr_17_1411,59.676980440425446,Cloud_Experiment_FR_REAL,001,39,
,,,,,,,,,,,,,,,,,,,,,,,,,,,,,,,,,,,2,,,,,,,,,,,,,,,,2019_Apr_17_1411,59.676980440425446,Cloud_Experiment_FR_REAL,001,39,
,,,,,,,,,,,,,,,,,,,,,,,,,,,,,,,,,,,,6,,,,,,,,,,,,,,,2019_Apr_17_1411,59.676980440425446,Cloud_Experiment_FR_REAL,001,39,
,,,,,,,,,,,,,,,,,,,,,,,,,,,,,,,,,,,,,1,,,,,,,,,,,,,,2019_Apr_17_1411,59.676980440425446,Cloud_Experiment_FR_REAL,001,39,
,,,,,,,,,,,,,,,,,,,,,,,,,,,,,,,,,,,,,,1,,,,,,,,,,,,,2019_Apr_17_1411,59.676980440425446,Cloud_Experiment_FR_REAL,001,39,
,,,,,,,,,,,,,,,,,,,,,,,,,,,,,,,,,,,,,,,6,,,,,,,,,,,,2019_Apr_17_1411,59.676980440425446,Cloud_Experiment_FR_REAL,001,39,
,,,,,,,,,,,,,,,,,,,,,,,,,,,,,,,,,,,,,,,,5,,,,,,,,,,,2019_Apr_17_1411,59.676980440425446,Cloud_Experiment_FR_REAL,001,39,
,,,,,,,,,,,,,,,,,,,,,,,,,,,,,,,,,,,,,,,,,6,,,,,,,,,,2019_Apr_17_1411,59.676980440425446,Cloud_Experiment_FR_REAL,001,39,
,,,,,,,,,,,,,,,,,,,,,,,,,,,,,,,,,,,,,,,,,,7,,,,,,,,,2019_Apr_17_1411,59.676980440425446,Cloud_Experiment_FR_REAL,001,39,
,,,,,,,,,,,,,,,,,,,,,,,,,,,,,,,,,,,,,,,,,,,5,,,,,,,,2019_Apr_17_1411,59.676980440425446,Cloud_Experiment_FR_REAL,001,39,
,,,,,,,,,,,,,,,,,,,,,,,,,,,,,,,,,,,,,,,,,,,,,,,,space,60.7658254,,2019_Apr_17_1411,59.676980440425446,Cloud_Experiment_FR_REAL,001,39,
images/fcloud65-35_D1.9_7.tif,1.9,1,,,,,,,,,,,,,0,0,0,92,,,,,,,,,,,4,space,2.633727,1,2.567,,,,,,,,,,,,,,,,,,2019_Apr_17_1411,59.676980440425446,Cloud_Experiment_FR_REAL,001,39,
images/fcloud65-35_D1.7_7.tif,1.7,1,,,,,,,,,,,,,0,1,1,84,,,,,,,,,,,5,space,2.0950968,3,10.943,,,,,,,,,,,,,,,,,,2019_Apr_17_1411,59.676980440425446,Cloud_Experiment_FR_REAL,001,39,
images/fcloud_D1.8_10.tif,1.8,0,,,,,,,,,,,,,0,2,2,43,,,,,,,,,,,5,space,1.6252386,4,7.414,,,,,,,,,,,,,,,,,,2019_Apr_17_1411,59.676980440425446,Cloud_Experiment_FR_REAL,001,39,
images/fcloud65-35_D1.9_8.tif,1.9,1,,,,,,,,,,,,,0,3,3,93,,,,,,,,,,,4,space,2.4448986,1,1.635,,,,,,,,,,,,,,,,,,2019_Apr_17_1411,59.676980440425446,Cloud_Experiment_FR_REAL,001,39,
images/fcloud80-20_D1.2_9.tif,1.2,2,,,,,,,,,,,,,0,4,4,114,,,,,,,,,,,4,space,1.6774884,1,1.901,,,,,,,,,,,,,,,,,,2019_Apr_17_1411,59.676980440425446,Cloud_Experiment_FR_REAL,001,39,
images/fcloud65-35_D1.4_8.tif,1.4,1,,,,,,,,,,,,,0,5,5,73,,,,,,,,,,,5,space,2.3346958,1,2.217,,,,,,,,,,,,,,,,,,2019_Apr_17_1411,59.676980440425446,Cloud_Experiment_FR_REAL,001,39,
images/fcloud65-35_D0.9_9.tif,0.9,1,,,,,,,,,,,,,0,6,6,54,,,,,,,,,,,2,space,1.7350835,4,3.117,,,,,,,,,,,,,,,,,,2019_Apr_17_1411,59.676980440425446,Cloud_Experiment_FR_REAL,001,39,
images/fcloud80-20_D1.7_7.tif,1.7,2,,,,,,,,,,,,,0,7,7,132,,,,,,,,,,,5,space,1.250011,2,1.883,,,,,,,,,,,,,,,,,,2019_Apr_17_1411,59.676980440425446,Cloud_Experiment_FR_REAL,001,39,
images/fcloud65-35_D1.1_9.tif,1.1,1,,,,,,,,,,,,,0,8,8,62,,,,,,,,,,,5,space,3.4815079,2,1.401,,,,,,,,,,,,,,,,,,2019_Apr_17_1411,59.676980440425446,Cloud_Experiment_FR_REAL,001,39,
images/fcloud65-35_D1.8_9.tif,1.8,1,,,,,,,,,,,,,0,9,9,90,,,,,,,,,,,4,space,3.0149251,2,1.202,,,,,,,,,,,,,,,,,,2019_Apr_17_1411,59.676980440425446,Cloud_Experiment_FR_REAL,001,39,
images/fcloud80-20_D1.5_10.tif,1.5,2,,,,,,,,,,,,,0,10,10,127,,,,,,,,,,,5,space,2.0345733,2,1.369,,,,,,,,,,,,,,,,,,2019_Apr_17_1411,59.676980440425446,Cloud_Experiment_FR_REAL,001,39,
images/fcloud65-35_D1.2_9.tif,1.2,1,,,,,,,,,,,,,0,11,11,66,,,,,,,,,,,4,space,3.1727732,1,2.185,,,,,,,,,,,,,,,,,,2019_Apr_17_1411,59.676980440425446,Cloud_Experiment_FR_REAL,001,39,
images/fcloud_D1.3_8.tif,1.3,0,,,,,,,,,,,,,0,12,12,21,,,,,,,,,,,5,space,3.8936809,3,1.767,,,,,,,,,,,,,,,,,,2019_Apr_17_1411,59.676980440425446,Cloud_Experiment_FR_REAL,001,39,
images/fcloud65-35_D1.3_8.tif,1.3,1,,,,,,,,,,,,,0,13,13,69,,,,,,,,,,,5,space,1.619259,3,1.152,,,,,,,,,,,,,,,,,,2019_Apr_17_1411,59.676980440425446,Cloud_Experiment_FR_REAL,001,39,
images/fcloud65-35_D1.3_10.tif,1.3,1,,,,,,,,,,,,,0,14,14,71,,,,,,,,,,,5,space,2.1492809,2,1.968,,,,,,,,,,,,,,,,,,2019_Apr_17_1411,59.676980440425446,Cloud_Experiment_FR_REAL,001,39,
images/fcloud65-35_D1_10.tif,1.0,1,,,,,,,,,,,,,0,15,15,59,,,,,,,,,,,3,space,3.9367687,1,1.119,,,,,,,,,,,,,,,,,,2019_Apr_17_1411,59.676980440425446,Cloud_Experiment_FR_REAL,001,39,
images/fcloud80-20_D1.1_10.tif,1.1,2,,,,,,,,,,,,,0,16,16,111,,,,,,,,,,,5,space,1.7786026,2,2.234,,,,,,,,,,,,,,,,,,2019_Apr_17_1411,59.676980440425446,Cloud_Experiment_FR_REAL,001,39,
images/fcloud_D1.9_8.tif,1.9,0,,,,,,,,,,,,,0,17,17,45,,,,,,,,,,,3,space,4.2027025,1,1.219,,,,,,,,,,,,,,,,,,2019_Apr_17_1411,59.676980440425446,Cloud_Experiment_FR_REAL,001,39,
images/fcloud80-20_D1.8_10.tif,1.8,2,,,,,,,,,,,,,0,18,18,139,,,,,,,,,,,3,space,2.026095,1,1.019,,,,,,,,,,,,,,,,,,2019_Apr_17_1411,59.676980440425446,Cloud_Experiment_FR_REAL,001,39,
images/fcloud_D1_9.tif,1.0,0,,,,,,,,,,,,,0,19,19,10,,,,,,,,,,,4,space,1.7512667,3,1.352,,,,,,,,,,,,,,,,,,2019_Apr_17_1411,59.676980440425446,Cloud_Experiment_FR_REAL,001,39,
images/fcloud_D0.9_7.tif,0.9,0,,,,,,,,,,,,,0,20,20,4,,,,,,,,,,,5,space,1.7444465,2,1.985,,,,,,,,,,,,,,,,,,2019_Apr_17_1411,59.676980440425446,Cloud_Experiment_FR_REAL,001,39,
images/fcloud65-35_D0.9_10.tif,0.9,1,,,,,,,,,,,,,0,21,21,55,,,,,,,,,,,3,space,3.2953172,1,1.151,,,,,,,,,,,,,,,,,,2019_Apr_17_1411,59.676980440425446,Cloud_Experiment_FR_REAL,001,39,
images/fcloud80-20_D1.9_10.tif,1.9,2,,,,,,,,,,,,,0,22,22,143,,,,,,,,,,,3,space,3.0986441,2,1.535,,,,,,,,,,,,,,,,,,2019_Apr_17_1411,59.676980440425446,Cloud_Experiment_FR_REAL,001,39,
images/fcloud80-20_D1.3_10.tif,1.3,2,,,,,,,,,,,,,0,23,23,119,,,,,,,,,,,4,space,2.0051552,2,1.5,,,,,,,,,,,,,,,,,,2019_Apr_17_1411,59.676980440425446,Cloud_Experiment_FR_REAL,001,39,
images/fcloud80-20_D0.8_8.tif,0.8,2,,,,,,,,,,,,,0,24,24,97,,,,,,,,,,,4,space,1.4066129,3,2.283,,,,,,,,,,,,,,,,,,2019_Apr_17_1411,59.676980440425446,Cloud_Experiment_FR_REAL,001,39,
images/fcloud_D1_7.tif,1.0,0,,,,,,,,,,,,,0,25,25,8,,,,,,,,,,,3,space,2.8819815,3,3.816,,,,,,,,,,,,,,,,,,2019_Apr_17_1411,59.676980440425446,Cloud_Experiment_FR_REAL,001,39,
images/fcloud80-20_D0.9_7.tif,0.9,2,,,,,,,,,,,,,0,26,26,100,,,,,,,,,,,3,space,4.0675571,3,1.202,,,,,,,,,,,,,,,,,,2019_Apr_17_1411,59.676980440425446,Cloud_Experiment_FR_REAL,001,39,
images/fcloud65-35_D1.9_10.tif,1.9,1,,,,,,,,,,,,,0,27,27,95,,,,,,,,,,,5,space,2.3514319,3,1.584,,,,,,,,,,,,,,,,,,2019_Apr_17_1411,59.676980440425446,Cloud_Experiment_FR_REAL,001,39,
images/fcloud80-20_D1.6_8.tif,1.6,2,,,,,,,,,,,,,0,28,28,129,,,,,,,,,,,4,space,2.6381314,1,1.601,,,,,,,,,,,,,,,,,,2019_Apr_17_1411,59.676980440425446,Cloud_Experiment_FR_REAL,001,39,
images/fcloud65-35_D0.9_7.tif,0.9,1,,,,,,,,,,,,,0,29,29,52,,,,,,,,,,,2,space,1.7668778,4,2.301,,,,,,,,,,,,,,,,,,2019_Apr_17_1411,59.676980440425446,Cloud_Experiment_FR_REAL,001,39,
images/fcloud65-35_D1.6_7.tif,1.6,1,,,,,,,,,,,,,0,30,30,80,,,,,,,,,,,5,space,1.8001258,3,1.086,,,,,,,,,,,,,,,,,,2019_Apr_17_1411,59.676980440425446,Cloud_Experiment_FR_REAL,001,39,
images/fcloud65-35_D1.2_8.tif,1.2,1,,,,,,,,,,,,,0,31,31,65,,,,,,,,,,,3,space,1.9686014,2,1.601,,,,,,,,,,,,,,,,,,2019_Apr_17_1411,59.676980440425446,Cloud_Experiment_FR_REAL,001,39,
images/fcloud65-35_D1.5_8.tif,1.5,1,,,,,,,,,,,,,0,32,32,77,,,,,,,,,,,3,space,1.7477175,2,2.05,,,,,,,,,,,,,,,,,,2019_Apr_17_1411,59.676980440425446,Cloud_Experiment_FR_REAL,001,39,
images/fcloud65-35_D1.8_7.tif,1.8,1,,,,,,,,,,,,,0,33,33,88,,,,,,,,,,,3,space,1.9084619,2,1.517,,,,,,,,,,,,,,,,,,2019_Apr_17_1411,59.676980440425446,Cloud_Experiment_FR_REAL,001,39,
images/fcloud80-20_D1.2_8.tif,1.2,2,,,,,,,,,,,,,0,34,34,113,,,,,,,,,,,2,space,3.6970431,1,2.067,,,,,,,,,,,,,,,,,,2019_Apr_17_1411,59.676980440425446,Cloud_Experiment_FR_REAL,001,39,
images/fcloud_D1.3_10.tif,1.3,0,,,,,,,,,,,,,0,35,35,23,,,,,,,,,,,4,space,3.2009781,3,2.917,,,,,,,,,,,,,,,,,,2019_Apr_17_1411,59.676980440425446,Cloud_Experiment_FR_REAL,001,39,
images/fcloud_D0.8_8.tif,0.8,0,,,,,,,,,,,,,0,36,36,1,,,,,,,,,,,5,space,2.0762639,3,1.536,,,,,,,,,,,,,,,,,,2019_Apr_17_1411,59.676980440425446,Cloud_Experiment_FR_REAL,001,39,
images/fcloud_D0.8_7.tif,0.8,0,,,,,,,,,,,,,0,37,37,0,,,,,,,,,,,4,space,1.8752146,4,0.902,,,,,,,,,,,,,,,,,,2019_Apr_17_1411,59.676980440425446,Cloud_Experiment_FR_REAL,001,39,
images/fcloud65-35_D1.5_10.tif,1.5,1,,,,,,,,,,,,,0,38,38,79,,,,,,,,,,,5,space,2.5190881,3,3.134,,,,,,,,,,,,,,,,,,2019_Apr_17_1411,59.676980440425446,Cloud_Experiment_FR_REAL,001,39,
images/fcloud_D1.9_7.tif,1.9,0,,,,,,,,,,,,,0,39,39,44,,,,,,,,,,,5,space,3.3638941,4,1.002,,,,,,,,,,,,,,,,,,2019_Apr_17_1411,59.676980440425446,Cloud_Experiment_FR_REAL,001,39,
images/fcloud_D1.2_7.tif,1.2,0,,,,,,,,,,,,,0,40,40,16,,,,,,,,,,,5,space,1.3143549,4,2.302,,,,,,,,,,,,,,,,,,2019_Apr_17_1411,59.676980440425446,Cloud_Experiment_FR_REAL,001,39,
images/fcloud80-20_D1.9_8.tif,1.9,2,,,,,,,,,,,,,0,41,41,141,,,,,,,,,,,4,space,2.1737336,3,1.585,,,,,,,,,,,,,,,,,,2019_Apr_17_1411,59.676980440425446,Cloud_Experiment_FR_REAL,001,39,
images/fcloud_D1.7_7.tif,1.7,0,,,,,,,,,,,,,0,42,42,36,,,,,,,,,,,4,space,2.7975078,3,1.717,,,,,,,,,,,,,,,,,,2019_Apr_17_1411,59.676980440425446,Cloud_Experiment_FR_REAL,001,39,
images/fcloud80-20_D1.6_9.tif,1.6,2,,,,,,,,,,,,,0,43,43,130,,,,,,,,,,,3,space,3.1722991,2,2.267,,,,,,,,,,,,,,,,,,2019_Apr_17_1411,59.676980440425446,Cloud_Experiment_FR_REAL,001,39,
images/fcloud65-35_D1.6_10.tif,1.6,1,,,,,,,,,,,,,0,44,44,83,,,,,,,,,,,5,space,1.4680716,3,1.833,,,,,,,,,,,,,,,,,,2019_Apr_17_1411,59.676980440425446,Cloud_Experiment_FR_REAL,001,39,
images/fcloud80-20_D1.8_9.tif,1.8,2,,,,,,,,,,,,,0,45,45,138,,,,,,,,,,,5,space,2.6949036,2,1.452,,,,,,,,,,,,,,,,,,2019_Apr_17_1411,59.676980440425446,Cloud_Experiment_FR_REAL,001,39,
images/fcloud80-20_D1.5_8.tif,1.5,2,,,,,,,,,,,,,0,46,46,125,,,,,,,,,,,4,space,2.2266304,1,1.486,,,,,,,,,,,,,,,,,,2019_Apr_17_1411,59.676980440425446,Cloud_Experiment_FR_REAL,001,39,
images/fcloud_D1.2_10.tif,1.2,0,,,,,,,,,,,,,0,47,47,19,,,,,,,,,,,5,space,3.3928874,2,1.735,,,,,,,,,,,,,,,,,,2019_Apr_17_1411,59.676980440425446,Cloud_Experiment_FR_REAL,001,39,
images/fcloud65-35_D1.4_10.tif,1.4,1,,,,,,,,,,,,,0,48,48,75,,,,,,,,,,,5,space,2.91322,3,2.401,,,,,,,,,,,,,,,,,,2019_Apr_17_1411,59.676980440425446,Cloud_Experiment_FR_REAL,001,39,
images/fcloud80-20_D1.7_9.tif,1.7,2,,,,,,,,,,,,,0,49,49,134,,,,,,,,,,,4,space,3.2512205,2,1.651,,,,,,,,,,,,,,,,,,2019_Apr_17_1411,59.676980440425446,Cloud_Experiment_FR_REAL,001,39,
images/fcloud_D1.5_10.tif,1.5,0,,,,,,,,,,,,,0,50,50,31,,,,,,,,,,,5,space,1.5290358,4,1.334,,,,,,,,,,,,,,,,,,2019_Apr_17_1411,59.676980440425446,Cloud_Experiment_FR_REAL,001,39,
images/fcloud80-20_D0.8_10.tif,0.8,2,,,,,,,,,,,,,0,51,51,99,,,,,,,,,,,4,space,1.9602205,2,2.035,,,,,,,,,,,,,,,,,,2019_Apr_17_1411,59.676980440425446,Cloud_Experiment_FR_REAL,001,39,
images/fcloud65-35_D1_8.tif,1.0,1,,,,,,,,,,,,,0,52,52,57,,,,,,,,,,,4,space,1.947907,2,2.884,,,,,,,,,,,,,,,,,,2019_Apr_17_1411,59.676980440425446,Cloud_Experiment_FR_REAL,001,39,
images/fcloud80-20_D1_7.tif,1.0,2,,,,,,,,,,,,,0,53,53,104,,,,,,,,,,,4,space,3.1810008,2,1.4,,,,,,,,,,,,,,,,,,2019_Apr_17_1411,59.676980440425446,Cloud_Experiment_FR_REAL,001,39,
images/fcloud_D1.4_8.tif,1.4,0,,,,,,,,,,,,,0,54,54,25,,,,,,,,,,,4,space,3.471291,3,10.509,,,,,,,,,,,,,,,,,,2019_Apr_17_1411,59.676980440425446,Cloud_Experiment_FR_REAL,001,39,
images/fcloud65-35_D1.1_8.tif,1.1,1,,,,,,,,,,,,,0,55,55,61,,,,,,,,,,,4,space,1.8563143,2,2.667,,,,,,,,,,,,,,,,,,2019_Apr_17_1411,59.676980440425446,Cloud_Experiment_FR_REAL,001,39,
images/fcloud_D0.8_9.tif,0.8,0,,,,,,,,,,,,,0,56,56,2,,,,,,,,,,,3,space,2.7917745,4,1.368,,,,,,,,,,,,,,,,,,2019_Apr_17_1411,59.676980440425446,Cloud_Experiment_FR_REAL,001,39,
images/fcloud80-20_D1.4_8.tif,1.4,2,,,,,,,,,,,,,0,57,57,121,,,,,,,,,,,5,space,2.8641162,3,1.103,,,,,,,,,,,,,,,,,,2019_Apr_17_1411,59.676980440425446,Cloud_Experiment_FR_REAL,001,39,
images/fcloud80-20_D1.7_8.tif,1.7,2,,,,,,,,,,,,,0,58,58,133,,,,,,,,,,,5,space,1.8305452,2,1.202,,,,,,,,,,,,,,,,,,2019_Apr_17_1411,59.676980440425446,Cloud_Experiment_FR_REAL,001,39,
images/fcloud_D1.1_8.tif,1.1,0,,,,,,,,,,,,,0,59,59,13,,,,,,,,,,,5,space,1.8662945,4,3.05,,,,,,,,,,,,,,,,,,2019_Apr_17_1411,59.676980440425446,Cloud_Experiment_FR_REAL,001,39,
images/fcloud80-20_D0.9_10.tif,0.9,2,,,,,,,,,,,,,0,60,60,103,,,,,,,,,,,3,space,1.8227905,4,2.234,,,,,,,,,,,,,,,,,,2019_Apr_17_1411,59.676980440425446,Cloud_Experiment_FR_REAL,001,39,
images/fcloud65-35_D1.5_7.tif,1.5,1,,,,,,,,,,,,,0,61,61,76,,,,,,,,,,,4,space,2.2277012,3,1.984,,,,,,,,,,,,,,,,,,2019_Apr_17_1411,59.676980440425446,Cloud_Experiment_FR_REAL,001,39,
images/fcloud80-20_D1.3_8.tif,1.3,2,,,,,,,,,,,,,0,62,62,117,,,,,,,,,,,4,space,1.7670017,2,1.186,,,,,,,,,,,,,,,,,,2019_Apr_17_1411,59.676980440425446,Cloud_Experiment_FR_REAL,001,39,
images/fcloud_D0.9_8.tif,0.9,0,,,,,,,,,,,,,0,63,63,5,,,,,,,,,,,5,space,1.7559758,4,2.568,,,,,,,,,,,,,,,,,,2019_Apr_17_1411,59.676980440425446,Cloud_Experiment_FR_REAL,001,39,
images/fcloud80-20_D1_10.tif,1.0,2,,,,,,,,,,,,,0,64,64,107,,,,,,,,,,,4,space,1.6246176,3,1.519,,,,,,,,,,,,,,,,,,2019_Apr_17_1411,59.676980440425446,Cloud_Experiment_FR_REAL,001,39,
images/fcloud80-20_D1_9.tif,1.0,2,,,,,,,,,,,,,0,65,65,106,,,,,,,,,,,4,space,1.3841635,1,1.936,,,,,,,,,,,,,,,,,,2019_Apr_17_1411,59.676980440425446,Cloud_Experiment_FR_REAL,001,39,
images/fcloud_D1.7_10.tif,1.7,0,,,,,,,,,,,,,0,66,66,39,,,,,,,,,,,5,space,2.4472467,4,1.234,,,,,,,,,,,,,,,,,,2019_Apr_17_1411,59.676980440425446,Cloud_Experiment_FR_REAL,001,39,
images/fcloud65-35_D1.4_7.tif,1.4,1,,,,,,,,,,,,,0,67,67,72,,,,,,,,,,,5,space,2.1648463,3,2.036,,,,,,,,,,,,,,,,,,2019_Apr_17_1411,59.676980440425446,Cloud_Experiment_FR_REAL,001,39,
images/fcloud_D0.8_10.tif,0.8,0,,,,,,,,,,,,,0,68,68,3,,,,,,,,,,,4,space,1.4505455,4,2.283,,,,,,,,,,,,,,,,,,2019_Apr_17_1411,59.676980440425446,Cloud_Experiment_FR_REAL,001,39,
images/fcloud80-20_D1.1_7.tif,1.1,2,,,,,,,,,,,,,0,69,69,108,,,,,,,,,,,5,space,3.1394296,3,1.902,,,,,,,,,,,,,,,,,,2019_Apr_17_1411,59.676980440425446,Cloud_Experiment_FR_REAL,001,39,
images/fcloud65-35_D0.9_8.tif,0.9,1,,,,,,,,,,,,,0,70,70,53,,,,,,,,,,,4,space,2.0017475,4,1.351,,,,,,,,,,,,,,,,,,2019_Apr_17_1411,59.676980440425446,Cloud_Experiment_FR_REAL,001,39,
images/fcloud_D0.9_10.tif,0.9,0,,,,,,,,,,,,,0,71,71,7,,,,,,,,,,,5,space,2.293554,4,1.135,,,,,,,,,,,,,,,,,,2019_Apr_17_1411,59.676980440425446,Cloud_Experiment_FR_REAL,001,39,
images/fcloud_D1.2_8.tif,1.2,0,,,,,,,,,,,,,0,72,72,17,,,,,,,,,,,5,space,1.8721269,5,1.617,,,,,,,,,,,,,,,,,,2019_Apr_17_1411,59.676980440425446,Cloud_Experiment_FR_REAL,001,39,
images/fcloud80-20_D1.2_7.tif,1.2,2,,,,,,,,,,,,,0,73,73,112,,,,,,,,,,,5,space,2.357188,3,1.301,,,,,,,,,,,,,,,,,,2019_Apr_17_1411,59.676980440425446,Cloud_Experiment_FR_REAL,001,39,
images/fcloud80-20_D1.8_8.tif,1.8,2,,,,,,,,,,,,,0,74,74,137,,,,,,,,,,,4,space,2.9174442,3,1.984,,,,,,,,,,,,,,,,,,2019_Apr_17_1411,59.676980440425446,Cloud_Experiment_FR_REAL,001,39,
images/fcloud_D1.8_9.tif,1.8,0,,,,,,,,,,,,,0,75,75,42,,,,,,,,,,,3,space,3.6058512,2,1.134,,,,,,,,,,,,,,,,,,2019_Apr_17_1411,59.676980440425446,Cloud_Experiment_FR_REAL,001,39,
images/fcloud80-20_D1.6_7.tif,1.6,2,,,,,,,,,,,,,0,76,76,128,,,,,,,,,,,4,space,2.344841,2,1.452,,,,,,,,,,,,,,,,,,2019_Apr_17_1411,59.676980440425446,Cloud_Experiment_FR_REAL,001,39,
images/fcloud_D1.4_9.tif,1.4,0,,,,,,,,,,,,,0,77,77,26,,,,,,,,,,,5,space,2.035469,5,0.885,,,,,,,,,,,,,,,,,,2019_Apr_17_1411,59.676980440425446,Cloud_Experiment_FR_REAL,001,39,
images/fcloud_D1_10.tif,1.0,0,,,,,,,,,,,,,0,78,78,11,,,,,,,,,,,5,space,2.4696915,5,1.069,,,,,,,,,,,,,,,,,,2019_Apr_17_1411,59.676980440425446,Cloud_Experiment_FR_REAL,001,39,
images/fcloud80-20_D1.5_9.tif,1.5,2,,,,,,,,,,,,,0,79,79,126,,,,,,,,,,,4,space,2.458102,2,2.101,,,,,,,,,,,,,,,,,,2019_Apr_17_1411,59.676980440425446,Cloud_Experiment_FR_REAL,001,39,
images/fcloud80-20_D1.3_9.tif,1.3,2,,,,,,,,,,,,,0,80,80,118,,,,,,,,,,,5,space,3.1580249,3,3.034,,,,,,,,,,,,,,,,,,2019_Apr_17_1411,59.676980440425446,Cloud_Experiment_FR_REAL,001,39,
images/fcloud_D1.3_9.tif,1.3,0,,,,,,,,,,,,,0,81,81,22,,,,,,,,,,,5,space,2.7695863,5,1.235,,,,,,,,,,,,,,,,,,2019_Apr_17_1411,59.676980440425446,Cloud_Experiment_FR_REAL,001,39,
images/fcloud_D0.9_9.tif,0.9,0,,,,,,,,,,,,,0,82,82,6,,,,,,,,,,,5,space,1.9505072,5,1.885,,,,,,,,,,,,,,,,,,2019_Apr_17_1411,59.676980440425446,Cloud_Experiment_FR_REAL,001,39,
images/fcloud_D1.9_9.tif,1.9,0,,,,,,,,,,,,,0,83,83,46,,,,,,,,,,,5,space,3.6812115,4,2.285,,,,,,,,,,,,,,,,,,2019_Apr_17_1411,59.676980440425446,Cloud_Experiment_FR_REAL,001,39,
images/fcloud_D1_8.tif,1.0,0,,,,,,,,,,,,,0,84,84,9,,,,,,,,,,,4,space,1.8405371,4,1.468,,,,,,,,,,,,,,,,,,2019_Apr_17_1411,59.676980440425446,Cloud_Experiment_FR_REAL,001,39,
images/fcloud_D1.1_9.tif,1.1,0,,,,,,,,,,,,,0,85,85,14,,,,,,,,,,,5,space,1.0717208,4,1.134,,,,,,,,,,,,,,,,,,2019_Apr_17_1411,59.676980440425446,Cloud_Experiment_FR_REAL,001,39,
images/fcloud65-35_D1.3_7.tif,1.3,1,,,,,,,,,,,,,0,86,86,68,,,,,,,,,,,5,space,3.766743,3,2.534,,,,,,,,,,,,,,,,,,2019_Apr_17_1411,59.676980440425446,Cloud_Experiment_FR_REAL,001,39,
images/fcloud_D1.6_8.tif,1.6,0,,,,,,,,,,,,,0,87,87,33,,,,,,,,,,,4,space,2.2718778,3,0.885,,,,,,,,,,,,,,,,,,2019_Apr_17_1411,59.676980440425446,Cloud_Experiment_FR_REAL,001,39,
images/fcloud65-35_D1.1_10.tif,1.1,1,,,,,,,,,,,,,0,88,88,63,,,,,,,,,,,3,space,4.1546124,2,1.434,,,,,,,,,,,,,,,,,,2019_Apr_17_1411,59.676980440425446,Cloud_Experiment_FR_REAL,001,39,
images/fcloud_D1.8_7.tif,1.8,0,,,,,,,,,,,,,0,89,89,40,,,,,,,,,,,5,space,2.4037223,4,1.385,,,,,,,,,,,,,,,,,,2019_Apr_17_1411,59.676980440425446,Cloud_Experiment_FR_REAL,001,39,
images/fcloud65-35_D1.6_9.tif,1.6,1,,,,,,,,,,,,,0,90,90,82,,,,,,,,,,,5,space,2.6275076,4,1.918,,,,,,,,,,,,,,,,,,2019_Apr_17_1411,59.676980440425446,Cloud_Experiment_FR_REAL,001,39,
images/fcloud_D1.2_9.tif,1.2,0,,,,,,,,,,,,,0,91,91,18,,,,,,,,,,,5,space,2.4504809,5,1.635,,,,,,,,,,,,,,,,,,2019_Apr_17_1411,59.676980440425446,Cloud_Experiment_FR_REAL,001,39,
images/fcloud65-35_D1.1_7.tif,1.1,1,,,,,,,,,,,,,0,92,92,60,,,,,,,,,,,5,space,2.2797265,4,2.15,,,,,,,,,,,,,,,,,,2019_Apr_17_1411,59.676980440425446,Cloud_Experiment_FR_REAL,001,39,
images/fcloud65-35_D0.8_10.tif,0.8,1,,,,,,,,,,,,,0,93,93,51,,,,,,,,,,,4,space,3.9688202,2,1.635,,,,,,,,,,,,,,,,,,2019_Apr_17_1411,59.676980440425446,Cloud_Experiment_FR_REAL,001,39,
images/fcloud80-20_D0.8_9.tif,0.8,2,,,,,,,,,,,,,0,94,94,98,,,,,,,,,,,3,space,3.3138172,3,4.982,,,,,,,,,,,,,,,,,,2019_Apr_17_1411,59.676980440425446,Cloud_Experiment_FR_REAL,001,39,
images/fcloud_D1.1_10.tif,1.1,0,,,,,,,,,,,,,0,95,95,15,,,,,,,,,,,5,space,2.8716444,5,1.087,,,,,,,,,,,,,,,,,,2019_Apr_17_1411,59.676980440425446,Cloud_Experiment_FR_REAL,001,39,
images/fcloud_D1.1_7.tif,1.1,0,,,,,,,,,,,,,0,96,96,12,,,,,,,,,,,5,space,1.2995642,4,1.352,,,,,,,,,,,,,,,,,,2019_Apr_17_1411,59.676980440425446,Cloud_Experiment_FR_REAL,001,39,
images/fcloud80-20_D1.1_8.tif,1.1,2,,,,,,,,,,,,,0,97,97,109,,,,,,,,,,,3,space,4.4015126,2,1.119,,,,,,,,,,,,,,,,,,2019_Apr_17_1411,59.676980440425446,Cloud_Experiment_FR_REAL,001,39,
images/fcloud65-35_D0.8_8.tif,0.8,1,,,,,,,,,,,,,0,98,98,49,,,,,,,,,,,4,space,2.3411779,2,1.518,,,,,,,,,,,,,,,,,,2019_Apr_17_1411,59.676980440425446,Cloud_Experiment_FR_REAL,001,39,
images/fcloud65-35_D1_9.tif,1.0,1,,,,,,,,,,,,,0,99,99,58,,,,,,,,,,,4,space,1.4649694,2,1.968,,,,,,,,,,,,,,,,,,2019_Apr_17_1411,59.676980440425446,Cloud_Experiment_FR_REAL,001,39,
images/fcloud80-20_D1.9_7.tif,1.9,2,,,,,,,,,,,,,0,100,100,140,,,,,,,,,,,3,space,3.3371555,2,3.598,,,,,,,,,,,,,,,,,,2019_Apr_17_1411,59.676980440425446,Cloud_Experiment_FR_REAL,001,39,
images/fcloud65-35_D1.3_9.tif,1.3,1,,,,,,,,,,,,,0,101,101,70,,,,,,,,,,,4,space,4.5869573,2,1.885,,,,,,,,,,,,,,,,,,2019_Apr_17_1411,59.676980440425446,Cloud_Experiment_FR_REAL,001,39,
images/fcloud65-35_D1.9_9.tif,1.9,1,,,,,,,,,,,,,0,102,102,94,,,,,,,,,,,3,space,2.2949817,3,1.751,,,,,,,,,,,,,,,,,,2019_Apr_17_1411,59.676980440425446,Cloud_Experiment_FR_REAL,001,39,
images/fcloud80-20_D1.7_10.tif,1.7,2,,,,,,,,,,,,,0,103,103,135,,,,,,,,,,,4,space,2.9498347,2,0.968,,,,,,,,,,,,,,,,,,2019_Apr_17_1411,59.676980440425446,Cloud_Experiment_FR_REAL,001,39,
images/fcloud80-20_D1.9_9.tif,1.9,2,,,,,,,,,,,,,0,104,104,142,,,,,,,,,,,4,space,1.9870062,2,1.135,,,,,,,,,,,,,,,,,,2019_Apr_17_1411,59.676980440425446,Cloud_Experiment_FR_REAL,001,39,
images/fcloud_D1.7_8.tif,1.7,0,,,,,,,,,,,,,0,105,105,37,,,,,,,,,,,5,space,2.9405499,4,2.466,,,,,,,,,,,,,,,,,,2019_Apr_17_1411,59.676980440425446,Cloud_Experiment_FR_REAL,001,39,
images/fcloud65-35_D1.2_10.tif,1.2,1,,,,,,,,,,,,,0,106,106,67,,,,,,,,,,,5,space,2.2221053,3,0.952,,,,,,,,,,,,,,,,,,2019_Apr_17_1411,59.676980440425446,Cloud_Experiment_FR_REAL,001,39,
images/fcloud65-35_D1.8_10.tif,1.8,1,,,,,,,,,,,,,0,107,107,91,,,,,,,,,,,5,space,2.1991993,3,1.035,,,,,,,,,,,,,,,,,,2019_Apr_17_1411,59.676980440425446,Cloud_Experiment_FR_REAL,001,39,
images/fcloud80-20_D0.8_7.tif,0.8,2,,,,,,,,,,,,,0,108,108,96,,,,,,,,,,,2,space,3.2563745,1,1.118,,,,,,,,,,,,,,,,,,2019_Apr_17_1411,59.676980440425446,Cloud_Experiment_FR_REAL,001,39,
images/fcloud65-35_D1.7_8.tif,1.7,1,,,,,,,,,,,,,0,109,109,85,,,,,,,,,,,5,space,2.6348169,4,1.352,,,,,,,,,,,,,,,,,,2019_Apr_17_1411,59.676980440425446,Cloud_Experiment_FR_REAL,001,39,
images/fcloud_D1.6_9.tif,1.6,0,,,,,,,,,,,,,0,110,110,34,,,,,,,,,,,5,space,2.4690298,5,1.119,,,,,,,,,,,,,,,,,,2019_Apr_17_1411,59.676980440425446,Cloud_Experiment_FR_REAL,001,39,
images/fcloud65-35_D0.8_7.tif,0.8,1,,,,,,,,,,,,,0,111,111,48,,,,,,,,,,,2,space,4.9564789,1,0.819,,,,,,,,,,,,,,,,,,2019_Apr_17_1411,59.676980440425446,Cloud_Experiment_FR_REAL,001,39,
images/fcloud_D1.6_10.tif,1.6,0,,,,,,,,,,,,,0,112,112,35,,,,,,,,,,,5,space,1.7302819,5,0.602,,,,,,,,,,,,,,,,,,2019_Apr_17_1411,59.676980440425446,Cloud_Experiment_FR_REAL,001,39,
images/fcloud65-35_D1.8_8.tif,1.8,1,,,,,,,,,,,,,0,113,113,89,,,,,,,,,,,5,space,3.0844885,3,1.185,,,,,,,,,,,,,,,,,,2019_Apr_17_1411,59.676980440425446,Cloud_Experiment_FR_REAL,001,39,
images/fcloud80-20_D1.4_10.tif,1.4,2,,,,,,,,,,,,,0,114,114,123,,,,,,,,,,,5,space,2.1511712,3,2.651,,,,,,,,,,,,,,,,,,2019_Apr_17_1411,59.676980440425446,Cloud_Experiment_FR_REAL,001,39,
images/fcloud_D1.8_8.tif,1.8,0,,,,,,,,,,,,,0,115,115,41,,,,,,,,,,,5,space,2.3198817,3,0.635,,,,,,,,,,,,,,,,,,2019_Apr_17_1411,59.676980440425446,Cloud_Experiment_FR_REAL,001,39,
images/fcloud65-35_D1_7.tif,1.0,1,,,,,,,,,,,,,0,116,116,56,,,,,,,,,,,3,space,4.3249701,1,0.902,,,,,,,,,,,,,,,,,,2019_Apr_17_1411,59.676980440425446,Cloud_Experiment_FR_REAL,001,39,
images/fcloud80-20_D1.1_9.tif,1.1,2,,,,,,,,,,,,,0,117,117,110,,,,,,,,,,,4,space,1.4488126,1,1.319,,,,,,,,,,,,,,,,,,2019_Apr_17_1411,59.676980440425446,Cloud_Experiment_FR_REAL,001,39,
images/fcloud65-35_D1.5_9.tif,1.5,1,,,,,,,,,,,,,0,118,118,78,,,,,,,,,,,5,space,2.1679471,2,1.218,,,,,,,,,,,,,,,,,,2019_Apr_17_1411,59.676980440425446,Cloud_Experiment_FR_REAL,001,39,
images/fcloud65-35_D1.7_9.tif,1.7,1,,,,,,,,,,,,,0,119,119,86,,,,,,,,,,,5,space,3.1861543,3,1.884,,,,,,,,,,,,,,,,,,2019_Apr_17_1411,59.676980440425446,Cloud_Experiment_FR_REAL,001,39,
images/fcloud_D1.5_7.tif,1.5,0,,,,,,,,,,,,,0,120,120,28,,,,,,,,,,,5,space,1.8678114,4,1.302,,,,,,,,,,,,,,,,,,2019_Apr_17_1411,59.676980440425446,Cloud_Experiment_FR_REAL,001,39,
images/fcloud80-20_D1.2_10.tif,1.2,2,,,,,,,,,,,,,0,121,121,115,,,,,,,,,,,5,space,3.283432,3,1.985,,,,,,,,,,,,,,,,,,2019_Apr_17_1411,59.676980440425446,Cloud_Experiment_FR_REAL,001,39,
images/fcloud80-20_D1.4_7.tif,1.4,2,,,,,,,,,,,,,0,122,122,120,,,,,,,,,,,5,space,2.4492483,3,4.649,,,,,,,,,,,,,,,,,,2019_Apr_17_1411,59.676980440425446,Cloud_Experiment_FR_REAL,001,39,
images/fcloud65-35_D0.8_9.tif,0.8,1,,,,,,,,,,,,,0,123,123,50,,,,,,,,,,,4,space,1.7161642,2,0.935,,,,,,,,,,,,,,,,,,2019_Apr_17_1411,59.676980440425446,Cloud_Experiment_FR_REAL,001,39,
images/fcloud80-20_D1.6_10.tif,1.6,2,,,,,,,,,,,,,0,124,124,131,,,,,,,,,,,5,space,1.9191311,3,1.169,,,,,,,,,,,,,,,,,,2019_Apr_17_1411,59.676980440425446,Cloud_Experiment_FR_REAL,001,39,
images/fcloud80-20_D0.9_9.tif,0.9,2,,,,,,,,,,,,,0,125,125,102,,,,,,,,,,,4,space,1.2342111,2,1.751,,,,,,,,,,,,,,,,,,2019_Apr_17_1411,59.676980440425446,Cloud_Experiment_FR_REAL,001,39,
images/fcloud65-35_D1.6_8.tif,1.6,1,,,,,,,,,,,,,0,126,126,81,,,,,,,,,,,4,space,1.4283245,3,1.734,,,,,,,,,,,,,,,,,,2019_Apr_17_1411,59.676980440425446,Cloud_Experiment_FR_REAL,001,39,
images/fcloud_D1.6_7.tif,1.6,0,,,,,,,,,,,,,0,127,127,32,,,,,,,,,,,4,space,2.8773895,4,1.267,,,,,,,,,,,,,,,,,,2019_Apr_17_1411,59.676980440425446,Cloud_Experiment_FR_REAL,001,39,
images/fcloud80-20_D1.8_7.tif,1.8,2,,,,,,,,,,,,,0,128,128,136,,,,,,,,,,,4,space,3.1532309,2,1.102,,,,,,,,,,,,,,,,,,2019_Apr_17_1411,59.676980440425446,Cloud_Experiment_FR_REAL,001,39,
images/fcloud_D1.5_9.tif,1.5,0,,,,,,,,,,,,,0,129,129,30,,,,,,,,,,,5,space,2.5686134,4,1.435,,,,,,,,,,,,,,,,,,2019_Apr_17_1411,59.676980440425446,Cloud_Experiment_FR_REAL,001,39,
images/fcloud_D1.4_7.tif,1.4,0,,,,,,,,,,,,,0,130,130,24,,,,,,,,,,,5,space,2.0271124,5,1.785,,,,,,,,,,,,,,,,,,2019_Apr_17_1411,59.676980440425446,Cloud_Experiment_FR_REAL,001,39,
images/fcloud80-20_D1.4_9.tif,1.4,2,,,,,,,,,,,,,0,131,131,122,,,,,,,,,,,5,space,2.7597167,3,2.267,,,,,,,,,,,,,,,,,,2019_Apr_17_1411,59.676980440425446,Cloud_Experiment_FR_REAL,001,39,
images/fcloud80-20_D1.3_7.tif,1.3,2,,,,,,,,,,,,,0,132,132,116,,,,,,,,,,,4,space,3.1393328,1,1.534,,,,,,,,,,,,,,,,,,2019_Apr_17_1411,59.676980440425446,Cloud_Experiment_FR_REAL,001,39,
images/fcloud80-20_D1_8.tif,1.0,2,,,,,,,,,,,,,0,133,133,105,,,,,,,,,,,4,space,2.0425636,1,0.885,,,,,,,,,,,,,,,,,,2019_Apr_17_1411,59.676980440425446,Cloud_Experiment_FR_REAL,001,39,
images/fcloud_D1.4_10.tif,1.4,0,,,,,,,,,,,,,0,134,134,27,,,,,,,,,,,5,space,1.6373132,4,0.885,,,,,,,,,,,,,,,,,,2019_Apr_17_1411,59.676980440425446,Cloud_Experiment_FR_REAL,001,39,
images/fcloud_D1.9_10.tif,1.9,0,,,,,,,,,,,,,0,135,135,47,,,,,,,,,,,4,space,4.501379,4,1.002,,,,,,,,,,,,,,,,,,2019_Apr_17_1411,59.676980440425446,Cloud_Experiment_FR_REAL,001,39,
images/fcloud65-35_D1.7_10.tif,1.7,1,,,,,,,,,,,,,0,136,136,87,,,,,,,,,,,5,space,4.7801673,3,0.886,,,,,,,,,,,,,,,,,,2019_Apr_17_1411,59.676980440425446,Cloud_Experiment_FR_REAL,001,39,
images/fcloud65-35_D1.4_9.tif,1.4,1,,,,,,,,,,,,,0,137,137,74,,,,,,,,,,,4,space,1.6957737,3,1.884,,,,,,,,,,,,,,,,,,2019_Apr_17_1411,59.676980440425446,Cloud_Experiment_FR_REAL,001,39,
images/fcloud80-20_D0.9_8.tif,0.9,2,,,,,,,,,,,,,0,138,138,101,,,,,,,,,,,3,space,1.4362172,2,0.851,,,,,,,,,,,,,,,,,,2019_Apr_17_1411,59.676980440425446,Cloud_Experiment_FR_REAL,001,39,
images/fcloud65-35_D1.2_7.tif,1.2,1,,,,,,,,,,,,,0,139,139,64,,,,,,,,,,,5,space,2.7219303,2,1.185,,,,,,,,,,,,,,,,,,2019_Apr_17_1411,59.676980440425446,Cloud_Experiment_FR_REAL,001,39,
images/fcloud_D1.3_7.tif,1.3,0,,,,,,,,,,,,,0,140,140,20,,,,,,,,,,,5,space,2.7444361,4,0.919,,,,,,,,,,,,,,,,,,2019_Apr_17_1411,59.676980440425446,Cloud_Experiment_FR_REAL,001,39,
images/fcloud_D1.5_8.tif,1.5,0,,,,,,,,,,,,,0,141,141,29,,,,,,,,,,,5,space,1.6161218,4,1.068,,,,,,,,,,,,,,,,,,2019_Apr_17_1411,59.676980440425446,Cloud_Experiment_FR_REAL,001,39,
images/fcloud_D1.7_9.tif,1.7,0,,,,,,,,,,,,,0,142,142,38,,,,,,,,,,,4,space,2.3246684,2,1.218,,,,,,,,,,,,,,,,,,2019_Apr_17_1411,59.676980440425446,Cloud_Experiment_FR_REAL,001,39,
images/fcloud80-20_D1.5_7.tif,1.5,2,,,,,,,,,,,,,0,143,143,124,,,,,,,,,,,5,space,1.4377362,3,1.086,,,,,,,,,,,,,,,,,,2019_Apr_17_1411,59.676980440425446,Cloud_Experiment_FR_REAL,001,39,
,,,,,,,,,,,,,,,,,,,,,,,,,4,5.583,,,,,,,,,,,,,,,,,,,,,,,,,2019_Apr_17_1411,59.676980440425446,Cloud_Experiment_FR_REAL,001,39,
,,,,,,,,,,,,,,,,,,,,,,,,,,,,,,,,,,4,,,,,,,,,,,,,,,,,2019_Apr_17_1411,59.676980440425446,Cloud_Experiment_FR_REAL,001,39,
,,,,,,,,,,,,,,,,,,,,,,,,,,,,,,,,,,,3,,,,,,,,,,,,,,,,2019_Apr_17_1411,59.676980440425446,Cloud_Experiment_FR_REAL,001,39,
,,,,,,,,,,,,,,,,,,,,,,,,,,,,,,,,,,,,7,,,,,,,,,,,,,,,2019_Apr_17_1411,59.676980440425446,Cloud_Experiment_FR_REAL,001,39,
,,,,,,,,,,,,,,,,,,,,,,,,,,,,,,,,,,,,,1,,,,,,,,,,,,,,2019_Apr_17_1411,59.676980440425446,Cloud_Experiment_FR_REAL,001,39,
,,,,,,,,,,,,,,,,,,,,,,,,,,,,,,,,,,,,,,1,,,,,,,,,,,,,2019_Apr_17_1411,59.676980440425446,Cloud_Experiment_FR_REAL,001,39,
,,,,,,,,,,,,,,,,,,,,,,,,,,,,,,,,,,,,,,,7,,,,,,,,,,,,2019_Apr_17_1411,59.676980440425446,Cloud_Experiment_FR_REAL,001,39,
,,,,,,,,,,,,,,,,,,,,,,,,,,,,,,,,,,,,,,,,5,,,,,,,,,,,2019_Apr_17_1411,59.676980440425446,Cloud_Experiment_FR_REAL,001,39,
,,,,,,,,,,,,,,,,,,,,,,,,,,,,,,,,,,,,,,,,,7,,,,,,,,,,2019_Apr_17_1411,59.676980440425446,Cloud_Experiment_FR_REAL,001,39,
,,,,,,,,,,,,,,,,,,,,,,,,,,,,,,,,,,,,,,,,,,7,,,,,,,,,2019_Apr_17_1411,59.676980440425446,Cloud_Experiment_FR_REAL,001,39,
,,,,,,,,,,,,,,,,,,,,,,,,,,,,,,,,,,,,,,,,,,,2,,,,,,,,2019_Apr_17_1411,59.676980440425446,Cloud_Experiment_FR_REAL,001,39,
,,,,,,,,,,,,,,,,,,,,,,,,,,,,,,,,,,,,,,,,,,,,,,,,,,4,2019_Apr_17_1411,59.676980440425446,Cloud_Experiment_FR_REAL,001,39,
