ImageFile,FD,Contrast,trials_4.thisRepN,trials_4.thisTrialN,trials_4.thisN,trials_4.thisIndex,trials.thisRepN,trials.thisTrialN,trials.thisN,trials.thisIndex,trials_2.thisRepN,trials_2.thisTrialN,trials_2.thisN,trials_2.thisIndex,trials_3.thisRepN,trials_3.thisTrialN,trials_3.thisN,trials_3.thisIndex,end_instructions.keys,end_instructions.rt,key_resp_4.keys,key_resp_4.rt,key_resp_6.keys,key_resp_6.rt,Fatigue.response,Fatigue.rt,key_resp_5.keys,key_resp_5.rt,n_objets.response,reaction_time.keys,reaction_time.rt,vividness.response,vividness.rt,Flow01.response,Flow02.response,Flow03.response,Flow04.response,Flow05.response,Flow06.response,Flow07.response,Flow08.response,Flow09.response,Flow10.response,key_resp_2.keys,key_resp_2.rt,key_resp_8.keys,key_resp_8.rt,key_resp_3.keys,key_resp_3.rt,Redondance_question.response,date,frameRate,expName,session,participant,
,,,,,,,,,,,,,,,,,,,space,27.630359,,,,,,,,,,,,,,,,,,,,,,,,,,,,,,,2019_Apr_17_1659,59.189809882808504,Cloud_Experiment_FR_REAL,001,40,
,,,,,,,,,,,,,,,,,,,,,space,60.7329455,,,,,,,,,,,,,,,,,,,,,,,,,,,,,2019_Apr_17_1659,59.189809882808504,Cloud_Experiment_FR_REAL,001,40,
,,,,,,,,,,,,,,,,,,,,,,,space,226.2377919,,,,,,,,,,,,,,,,,,,,,,,,,,,2019_Apr_17_1659,59.189809882808504,Cloud_Experiment_FR_REAL,001,40,
,,,,,,,,,,,,,,,,,,,,,,,,,4,13.518,,,,,,,,,,,,,,,,,,,,,,,,,2019_Apr_17_1659,59.189809882808504,Cloud_Experiment_FR_REAL,001,40,
,,,,,,,,,,,,,,,,,,,,,,,,,,,space,8.0950647,,,,,,,,,,,,,,,,,,,,,,,2019_Apr_17_1659,59.189809882808504,Cloud_Experiment_FR_REAL,001,40,
pratique/fcloud65-35_D1.6_30,1.6,1,0,0,0,2,,,,,,,,,,,,,,,,,,,,,,,2,space,5.3844609,5,9.378,,,,,,,,,,,,,,,,,,2019_Apr_17_1659,59.189809882808504,Cloud_Experiment_FR_REAL,001,40,
pratique/fcloud_D0.8_30,0.8,0,0,1,1,0,,,,,,,,,,,,,,,,,,,,,,,3,None,,1,22.598,,,,,,,,,,,,,,,,,,2019_Apr_17_1659,59.189809882808504,Cloud_Experiment_FR_REAL,001,40,
pratique/fcloud80-20_D1.5_30,1.5,2,0,2,2,8,,,,,,,,,,,,,,,,,,,,,,,2,space,7.5130349,2,2.601,,,,,,,,,,,,,,,,,,2019_Apr_17_1659,59.189809882808504,Cloud_Experiment_FR_REAL,001,40,
pratique/fcloud65-35_D1.3_30,1.3,1,0,3,3,6,,,,,,,,,,,,,,,,,,,,,,,2,None,,4,2.734,,,,,,,,,,,,,,,,,,2019_Apr_17_1659,59.189809882808504,Cloud_Experiment_FR_REAL,001,40,
pratique/fcloud80-20_D1_30,1.0,2,0,4,4,9,,,,,,,,,,,,,,,,,,,,,,,1,space,3.7726195,5,6.88,,,,,,,,,,,,,,,,,,2019_Apr_17_1659,59.189809882808504,Cloud_Experiment_FR_REAL,001,40,
pratique/fcloud65-35_D1.2_30,1.2,1,0,5,5,3,,,,,,,,,,,,,,,,,,,,,,,1,space,8.1526863,2,2.534,,,,,,,,,,,,,,,,,,2019_Apr_17_1659,59.189809882808504,Cloud_Experiment_FR_REAL,001,40,
pratique/fcloud_D1.4_30,1.4,0,0,6,6,1,,,,,,,,,,,,,,,,,,,,,,,2,None,,4,10.244,,,,,,,,,,,,,,,,,,2019_Apr_17_1659,59.189809882808504,Cloud_Experiment_FR_REAL,001,40,
pratique/fcloud65-35_D1.9_29,1.9,1,0,7,7,7,,,,,,,,,,,,,,,,,,,,,,,1,space,7.2675503,3,4.265,,,,,,,,,,,,,,,,,,2019_Apr_17_1659,59.189809882808504,Cloud_Experiment_FR_REAL,001,40,
pratique/fcloud80-20_D1.8_30,1.8,2,0,8,8,4,,,,,,,,,,,,,,,,,,,,,,,3,space,2.6443145,5,1.951,,,,,,,,,,,,,,,,,,2019_Apr_17_1659,59.189809882808504,Cloud_Experiment_FR_REAL,001,40,
pratique/fcloud_D1.6_28,1.6,0,0,9,9,5,,,,,,,,,,,,,,,,,,,,,,,2,None,,5,3.433,,,,,,,,,,,,,,,,,,2019_Apr_17_1659,59.189809882808504,Cloud_Experiment_FR_REAL,001,40,
,,,,,,,,,,,,,,,,,,,,,,,,,,,,,,,,,,6,,,,,,,,,,,,,,,,,2019_Apr_17_1659,59.189809882808504,Cloud_Experiment_FR_REAL,001,40,
,,,,,,,,,,,,,,,,,,,,,,,,,,,,,,,,,,,3,,,,,,,,,,,,,,,,2019_Apr_17_1659,59.189809882808504,Cloud_Experiment_FR_REAL,001,40,
,,,,,,,,,,,,,,,,,,,,,,,,,,,,,,,,,,,,7,,,,,,,,,,,,,,,2019_Apr_17_1659,59.189809882808504,Cloud_Experiment_FR_REAL,001,40,
,,,,,,,,,,,,,,,,,,,,,,,,,,,,,,,,,,,,,5,,,,,,,,,,,,,,2019_Apr_17_1659,59.189809882808504,Cloud_Experiment_FR_REAL,001,40,
,,,,,,,,,,,,,,,,,,,,,,,,,,,,,,,,,,,,,,2,,,,,,,,,,,,,2019_Apr_17_1659,59.189809882808504,Cloud_Experiment_FR_REAL,001,40,
,,,,,,,,,,,,,,,,,,,,,,,,,,,,,,,,,,,,,,,7,,,,,,,,,,,,2019_Apr_17_1659,59.189809882808504,Cloud_Experiment_FR_REAL,001,40,
,,,,,,,,,,,,,,,,,,,,,,,,,,,,,,,,,,,,,,,,5,,,,,,,,,,,2019_Apr_17_1659,59.189809882808504,Cloud_Experiment_FR_REAL,001,40,
,,,,,,,,,,,,,,,,,,,,,,,,,,,,,,,,,,,,,,,,,7,,,,,,,,,,2019_Apr_17_1659,59.189809882808504,Cloud_Experiment_FR_REAL,001,40,
,,,,,,,,,,,,,,,,,,,,,,,,,,,,,,,,,,,,,,,,,,3,,,,,,,,,2019_Apr_17_1659,59.189809882808504,Cloud_Experiment_FR_REAL,001,40,
,,,,,,,,,,,,,,,,,,,,,,,,,,,,,,,,,,,,,,,,,,,6,,,,,,,,2019_Apr_17_1659,59.189809882808504,Cloud_Experiment_FR_REAL,001,40,
,,,,,,,,,,,,,,,,,,,,,,,,,,,,,,,,,,,,,,,,,,,,space,3.7971155,,,,,,2019_Apr_17_1659,59.189809882808504,Cloud_Experiment_FR_REAL,001,40,
images/fcloud80-20_D1.1_3.tif,1.1,2,,,,,0,0,0,83,,,,,,,,,,,,,,,,,,,2,space,4.8238718,5,2.317,,,,,,,,,,,,,,,,,,2019_Apr_17_1659,59.189809882808504,Cloud_Experiment_FR_REAL,001,40,
images/fcloud80-20_D1.5_1.tif,1.5,2,,,,,0,1,1,93,,,,,,,,,,,,,,,,,,,1,space,7.2422284,4,2.251,,,,,,,,,,,,,,,,,,2019_Apr_17_1659,59.189809882808504,Cloud_Experiment_FR_REAL,001,40,
images/fcloud65-35_D1.2_2.tif,1.2,1,,,,,0,2,2,49,,,,,,,,,,,,,,,,,,,2,space,3.4580375,5,1.402,,,,,,,,,,,,,,,,,,2019_Apr_17_1659,59.189809882808504,Cloud_Experiment_FR_REAL,001,40,
images/fcloud65-35_D0.8_3.tif,0.8,1,,,,,0,3,3,38,,,,,,,,,,,,,,,,,,,2,space,4.9226852,4,1.269,,,,,,,,,,,,,,,,,,2019_Apr_17_1659,59.189809882808504,Cloud_Experiment_FR_REAL,001,40,
images/fcloud80-20_D1.3_2.tif,1.3,2,,,,,0,4,4,88,,,,,,,,,,,,,,,,,,,2,space,3.061469,5,2.035,,,,,,,,,,,,,,,,,,2019_Apr_17_1659,59.189809882808504,Cloud_Experiment_FR_REAL,001,40,
images/fcloud65-35_D1.4_1.tif,1.4,1,,,,,0,5,5,54,,,,,,,,,,,,,,,,,,,1,space,3.8069845,5,1.35,,,,,,,,,,,,,,,,,,2019_Apr_17_1659,59.189809882808504,Cloud_Experiment_FR_REAL,001,40,
images/fcloud80-20_D1.8_2.tif,1.8,2,,,,,0,6,6,103,,,,,,,,,,,,,,,,,,,3,space,3.0025621,5,3.0,,,,,,,,,,,,,,,,,,2019_Apr_17_1659,59.189809882808504,Cloud_Experiment_FR_REAL,001,40,
images/fcloud80-20_D1.7_2.tif,1.7,2,,,,,0,7,7,100,,,,,,,,,,,,,,,,,,,None,None,,None,12.808,,,,,,,,,,,,,,,,,,2019_Apr_17_1659,59.189809882808504,Cloud_Experiment_FR_REAL,001,40,
images/fcloud80-20_D0.8_2.tif,0.8,2,,,,,0,8,8,73,,,,,,,,,,,,,,,,,,,1,space,7.6328255,2,2.268,,,,,,,,,,,,,,,,,,2019_Apr_17_1659,59.189809882808504,Cloud_Experiment_FR_REAL,001,40,
images/fcloud_D1.9_2.tif,1.9,0,,,,,0,9,9,34,,,,,,,,,,,,,,,,,,,2,None,,3,2.567,,,,,,,,,,,,,,,,,,2019_Apr_17_1659,59.189809882808504,Cloud_Experiment_FR_REAL,001,40,
images/fcloud65-35_D1_1.tif,1.0,1,,,,,0,10,10,42,,,,,,,,,,,,,,,,,,,2,space,5.6435293,4,1.635,,,,,,,,,,,,,,,,,,2019_Apr_17_1659,59.189809882808504,Cloud_Experiment_FR_REAL,001,40,
images/fcloud65-35_D1.7_3.tif,1.7,1,,,,,0,11,11,65,,,,,,,,,,,,,,,,,,,2,space,6.0731197,4,2.149,,,,,,,,,,,,,,,,,,2019_Apr_17_1659,59.189809882808504,Cloud_Experiment_FR_REAL,001,40,
images/fcloud_D0.8_3.tif,0.8,0,,,,,0,12,12,2,,,,,,,,,,,,,,,,,,,3,space,1.56397,5,1.318,,,,,,,,,,,,,,,,,,2019_Apr_17_1659,59.189809882808504,Cloud_Experiment_FR_REAL,001,40,
images/fcloud80-20_D1.5_2.tif,1.5,2,,,,,0,13,13,94,,,,,,,,,,,,,,,,,,,1,None,,3,2.216,,,,,,,,,,,,,,,,,,2019_Apr_17_1659,59.189809882808504,Cloud_Experiment_FR_REAL,001,40,
images/fcloud_D1.9_3.tif,1.9,0,,,,,0,14,14,35,,,,,,,,,,,,,,,,,,,1,space,5.8594362,3,1.568,,,,,,,,,,,,,,,,,,2019_Apr_17_1659,59.189809882808504,Cloud_Experiment_FR_REAL,001,40,
images/fcloud65-35_D1.7_1.tif,1.7,1,,,,,0,15,15,63,,,,,,,,,,,,,,,,,,,2,space,2.647623,5,2.601,,,,,,,,,,,,,,,,,,2019_Apr_17_1659,59.189809882808504,Cloud_Experiment_FR_REAL,001,40,
images/fcloud_D1.6_3.tif,1.6,0,,,,,0,16,16,26,,,,,,,,,,,,,,,,,,,1,space,6.2040116,3,1.635,,,,,,,,,,,,,,,,,,2019_Apr_17_1659,59.189809882808504,Cloud_Experiment_FR_REAL,001,40,
images/fcloud_D1_3.tif,1.0,0,,,,,0,17,17,8,,,,,,,,,,,,,,,,,,,2,space,6.1047287,4,1.818,,,,,,,,,,,,,,,,,,2019_Apr_17_1659,59.189809882808504,Cloud_Experiment_FR_REAL,001,40,
images/fcloud80-20_D0.9_3.tif,0.9,2,,,,,0,18,18,77,,,,,,,,,,,,,,,,,,,2,space,1.6109007,5,1.219,,,,,,,,,,,,,,,,,,2019_Apr_17_1659,59.189809882808504,Cloud_Experiment_FR_REAL,001,40,
images/fcloud65-35_D1.1_3.tif,1.1,1,,,,,0,19,19,47,,,,,,,,,,,,,,,,,,,1,space,5.5207073,3,1.468,,,,,,,,,,,,,,,,,,2019_Apr_17_1659,59.189809882808504,Cloud_Experiment_FR_REAL,001,40,
images/fcloud_D0.8_2.tif,0.8,0,,,,,0,20,20,1,,,,,,,,,,,,,,,,,,,1,space,5.7048567,2,0.967,,,,,,,,,,,,,,,,,,2019_Apr_17_1659,59.189809882808504,Cloud_Experiment_FR_REAL,001,40,
images/fcloud_D1.5_3.tif,1.5,0,,,,,0,21,21,23,,,,,,,,,,,,,,,,,,,1,None,,4,1.852,,,,,,,,,,,,,,,,,,2019_Apr_17_1659,59.189809882808504,Cloud_Experiment_FR_REAL,001,40,
images/fcloud_D1.2_2.tif,1.2,0,,,,,0,22,22,13,,,,,,,,,,,,,,,,,,,1,space,6.9725309,3,1.5,,,,,,,,,,,,,,,,,,2019_Apr_17_1659,59.189809882808504,Cloud_Experiment_FR_REAL,001,40,
images/fcloud80-20_D1.8_3.tif,1.8,2,,,,,0,23,23,104,,,,,,,,,,,,,,,,,,,2,space,4.284295,4,1.435,,,,,,,,,,,,,,,,,,2019_Apr_17_1659,59.189809882808504,Cloud_Experiment_FR_REAL,001,40,
images/fcloud80-20_D1.7_1.tif,1.7,2,,,,,0,24,24,99,,,,,,,,,,,,,,,,,,,5,space,1.9952048,5,4.15,,,,,,,,,,,,,,,,,,2019_Apr_17_1659,59.189809882808504,Cloud_Experiment_FR_REAL,001,40,
images/fcloud65-35_D1.5_1.tif,1.5,1,,,,,0,25,25,57,,,,,,,,,,,,,,,,,,,1,space,4.07186,5,1.585,,,,,,,,,,,,,,,,,,2019_Apr_17_1659,59.189809882808504,Cloud_Experiment_FR_REAL,001,40,
images/fcloud_D1.1_2.tif,1.1,0,,,,,0,26,26,10,,,,,,,,,,,,,,,,,,,2,space,3.907161,5,1.019,,,,,,,,,,,,,,,,,,2019_Apr_17_1659,59.189809882808504,Cloud_Experiment_FR_REAL,001,40,
images/fcloud_D1.8_1.tif,1.8,0,,,,,0,27,27,30,,,,,,,,,,,,,,,,,,,None,None,,None,10.309,,,,,,,,,,,,,,,,,,2019_Apr_17_1659,59.189809882808504,Cloud_Experiment_FR_REAL,001,40,
images/fcloud_D0.8_1.tif,0.8,0,,,,,0,28,28,0,,,,,,,,,,,,,,,,,,,None,None,,None,19.983,,,,,,,,,,,,,,,,,,2019_Apr_17_1659,59.189809882808504,Cloud_Experiment_FR_REAL,001,40,
images/fcloud_D1_1.tif,1.0,0,,,,,0,29,29,6,,,,,,,,,,,,,,,,,,,3,space,1.6643034,5,0.952,,,,,,,,,,,,,,,,,,2019_Apr_17_1659,59.189809882808504,Cloud_Experiment_FR_REAL,001,40,
images/fcloud65-35_D1.5_3.tif,1.5,1,,,,,0,30,30,59,,,,,,,,,,,,,,,,,,,1,None,,3,2.384,,,,,,,,,,,,,,,,,,2019_Apr_17_1659,59.189809882808504,Cloud_Experiment_FR_REAL,001,40,
images/fcloud80-20_D1.4_2.tif,1.4,2,,,,,0,31,31,91,,,,,,,,,,,,,,,,,,,1,space,7.7435393,2,2.117,,,,,,,,,,,,,,,,,,2019_Apr_17_1659,59.189809882808504,Cloud_Experiment_FR_REAL,001,40,
images/fcloud_D1.8_2.tif,1.8,0,,,,,0,32,32,31,,,,,,,,,,,,,,,,,,,3,space,1.8745051,5,1.467,,,,,,,,,,,,,,,,,,2019_Apr_17_1659,59.189809882808504,Cloud_Experiment_FR_REAL,001,40,
images/fcloud_D1.1_3.tif,1.1,0,,,,,0,33,33,11,,,,,,,,,,,,,,,,,,,2,space,4.6316529,4,1.585,,,,,,,,,,,,,,,,,,2019_Apr_17_1659,59.189809882808504,Cloud_Experiment_FR_REAL,001,40,
images/fcloud65-35_D1.9_2.tif,1.9,1,,,,,0,34,34,70,,,,,,,,,,,,,,,,,,,3,space,2.8571836,4,2.117,,,,,,,,,,,,,,,,,,2019_Apr_17_1659,59.189809882808504,Cloud_Experiment_FR_REAL,001,40,
images/fcloud_D0.9_2.tif,0.9,0,,,,,0,35,35,4,,,,,,,,,,,,,,,,,,,2,space,1.443581,4,2.7,,,,,,,,,,,,,,,,,,2019_Apr_17_1659,59.189809882808504,Cloud_Experiment_FR_REAL,001,40,
images/fcloud65-35_D1.6_1.tif,1.6,1,,,,,0,36,36,60,,,,,,,,,,,,,,,,,,,2,space,4.8801508,3,1.384,,,,,,,,,,,,,,,,,,2019_Apr_17_1659,59.189809882808504,Cloud_Experiment_FR_REAL,001,40,
images/fcloud_D1_2.tif,1.0,0,,,,,0,37,37,7,,,,,,,,,,,,,,,,,,,3,space,1.5131974,4,1.086,,,,,,,,,,,,,,,,,,2019_Apr_17_1659,59.189809882808504,Cloud_Experiment_FR_REAL,001,40,
images/fcloud80-20_D1.9_2.tif,1.9,2,,,,,0,38,38,106,,,,,,,,,,,,,,,,,,,2,space,2.1052809,5,1.118,,,,,,,,,,,,,,,,,,2019_Apr_17_1659,59.189809882808504,Cloud_Experiment_FR_REAL,001,40,
images/fcloud_D1.6_1.tif,1.6,0,,,,,0,39,39,24,,,,,,,,,,,,,,,,,,,1,space,7.9712018,3,1.102,,,,,,,,,,,,,,,,,,2019_Apr_17_1659,59.189809882808504,Cloud_Experiment_FR_REAL,001,40,
images/fcloud65-35_D1.6_2.tif,1.6,1,,,,,0,40,40,61,,,,,,,,,,,,,,,,,,,1,space,7.1211398,4,1.384,,,,,,,,,,,,,,,,,,2019_Apr_17_1659,59.189809882808504,Cloud_Experiment_FR_REAL,001,40,
images/fcloud65-35_D1.8_3.tif,1.8,1,,,,,0,41,41,68,,,,,,,,,,,,,,,,,,,1,space,5.9928478,3,1.068,,,,,,,,,,,,,,,,,,2019_Apr_17_1659,59.189809882808504,Cloud_Experiment_FR_REAL,001,40,
images/fcloud_D1.2_3.tif,1.2,0,,,,,0,42,42,14,,,,,,,,,,,,,,,,,,,1,space,6.1408197,3,3.151,,,,,,,,,,,,,,,,,,2019_Apr_17_1659,59.189809882808504,Cloud_Experiment_FR_REAL,001,40,
images/fcloud_D1.7_3.tif,1.7,0,,,,,0,43,43,29,,,,,,,,,,,,,,,,,,,1,space,6.7059743,2,0.985,,,,,,,,,,,,,,,,,,2019_Apr_17_1659,59.189809882808504,Cloud_Experiment_FR_REAL,001,40,
images/fcloud65-35_D1.2_1.tif,1.2,1,,,,,0,44,44,48,,,,,,,,,,,,,,,,,,,1,space,4.8228195,3,1.217,,,,,,,,,,,,,,,,,,2019_Apr_17_1659,59.189809882808504,Cloud_Experiment_FR_REAL,001,40,
images/fcloud_D1.5_2.tif,1.5,0,,,,,0,45,45,22,,,,,,,,,,,,,,,,,,,2,space,3.7819994,4,1.451,,,,,,,,,,,,,,,,,,2019_Apr_17_1659,59.189809882808504,Cloud_Experiment_FR_REAL,001,40,
images/fcloud80-20_D1.3_3.tif,1.3,2,,,,,0,46,46,89,,,,,,,,,,,,,,,,,,,2,space,5.0104297,4,1.202,,,,,,,,,,,,,,,,,,2019_Apr_17_1659,59.189809882808504,Cloud_Experiment_FR_REAL,001,40,
images/fcloud_D1.3_3.tif,1.3,0,,,,,0,47,47,17,,,,,,,,,,,,,,,,,,,2,space,3.9573986,3,2.517,,,,,,,,,,,,,,,,,,2019_Apr_17_1659,59.189809882808504,Cloud_Experiment_FR_REAL,001,40,
images/fcloud80-20_D1.8_1.tif,1.8,2,,,,,0,48,48,102,,,,,,,,,,,,,,,,,,,1,space,4.5906039,5,1.235,,,,,,,,,,,,,,,,,,2019_Apr_17_1659,59.189809882808504,Cloud_Experiment_FR_REAL,001,40,
images/fcloud80-20_D1.9_1.tif,1.9,2,,,,,0,49,49,105,,,,,,,,,,,,,,,,,,,1,None,,2,2.182,,,,,,,,,,,,,,,,,,2019_Apr_17_1659,59.189809882808504,Cloud_Experiment_FR_REAL,001,40,
images/fcloud65-35_D0.8_1.tif,0.8,1,,,,,0,50,50,36,,,,,,,,,,,,,,,,,,,2,space,1.8471353,2,2.368,,,,,,,,,,,,,,,,,,2019_Apr_17_1659,59.189809882808504,Cloud_Experiment_FR_REAL,001,40,
images/fcloud_D1.7_1.tif,1.7,0,,,,,0,51,51,27,,,,,,,,,,,,,,,,,,,1,space,7.3569393,2,0.802,,,,,,,,,,,,,,,,,,2019_Apr_17_1659,59.189809882808504,Cloud_Experiment_FR_REAL,001,40,
images/fcloud65-35_D0.9_2.tif,0.9,1,,,,,0,52,52,40,,,,,,,,,,,,,,,,,,,2,space,1.8934662,5,1.152,,,,,,,,,,,,,,,,,,2019_Apr_17_1659,59.189809882808504,Cloud_Experiment_FR_REAL,001,40,
images/fcloud_D1.3_1.tif,1.3,0,,,,,0,53,53,15,,,,,,,,,,,,,,,,,,,3,space,4.5935626,4,1.451,,,,,,,,,,,,,,,,,,2019_Apr_17_1659,59.189809882808504,Cloud_Experiment_FR_REAL,001,40,
images/fcloud80-20_D1.2_3.tif,1.2,2,,,,,0,54,54,86,,,,,,,,,,,,,,,,,,,1,space,4.3833446,4,1.201,,,,,,,,,,,,,,,,,,2019_Apr_17_1659,59.189809882808504,Cloud_Experiment_FR_REAL,001,40,
images/fcloud65-35_D1.8_2.tif,1.8,1,,,,,0,55,55,67,,,,,,,,,,,,,,,,,,,1,space,5.1590998,3,0.969,,,,,,,,,,,,,,,,,,2019_Apr_17_1659,59.189809882808504,Cloud_Experiment_FR_REAL,001,40,
images/fcloud80-20_D1_3.tif,1.0,2,,,,,0,56,56,80,,,,,,,,,,,,,,,,,,,2,space,5.156302,5,0.902,,,,,,,,,,,,,,,,,,2019_Apr_17_1659,59.189809882808504,Cloud_Experiment_FR_REAL,001,40,
images/fcloud65-35_D1_2.tif,1.0,1,,,,,0,57,57,43,,,,,,,,,,,,,,,,,,,1,space,3.111194,4,1.418,,,,,,,,,,,,,,,,,,2019_Apr_17_1659,59.189809882808504,Cloud_Experiment_FR_REAL,001,40,
images/fcloud65-35_D1.4_3.tif,1.4,1,,,,,0,58,58,56,,,,,,,,,,,,,,,,,,,1,space,4.3593755,4,0.918,,,,,,,,,,,,,,,,,,2019_Apr_17_1659,59.189809882808504,Cloud_Experiment_FR_REAL,001,40,
images/fcloud80-20_D0.9_1.tif,0.9,2,,,,,0,59,59,75,,,,,,,,,,,,,,,,,,,1,space,1.9356842,5,1.152,,,,,,,,,,,,,,,,,,2019_Apr_17_1659,59.189809882808504,Cloud_Experiment_FR_REAL,001,40,
images/fcloud80-20_D0.8_3.tif,0.8,2,,,,,0,60,60,74,,,,,,,,,,,,,,,,,,,2,space,2.8932768,4,1.085,,,,,,,,,,,,,,,,,,2019_Apr_17_1659,59.189809882808504,Cloud_Experiment_FR_REAL,001,40,
images/fcloud80-20_D1.2_2.tif,1.2,2,,,,,0,61,61,85,,,,,,,,,,,,,,,,,,,1,space,2.8145934,4,0.803,,,,,,,,,,,,,,,,,,2019_Apr_17_1659,59.189809882808504,Cloud_Experiment_FR_REAL,001,40,
images/fcloud65-35_D1.8_1.tif,1.8,1,,,,,0,62,62,66,,,,,,,,,,,,,,,,,,,1,space,1.8148769,3,1.651,,,,,,,,,,,,,,,,,,2019_Apr_17_1659,59.189809882808504,Cloud_Experiment_FR_REAL,001,40,
images/fcloud_D1.4_3.tif,1.4,0,,,,,0,63,63,20,,,,,,,,,,,,,,,,,,,2,space,4.2268859,4,1.635,,,,,,,,,,,,,,,,,,2019_Apr_17_1659,59.189809882808504,Cloud_Experiment_FR_REAL,001,40,
images/fcloud65-35_D1.9_3.tif,1.9,1,,,,,0,64,64,71,,,,,,,,,,,,,,,,,,,1,space,5.8072457,2,2.616,,,,,,,,,,,,,,,,,,2019_Apr_17_1659,59.189809882808504,Cloud_Experiment_FR_REAL,001,40,
images/fcloud80-20_D1_1.tif,1.0,2,,,,,0,65,65,78,,,,,,,,,,,,,,,,,,,1,space,6.7028541,2,1.751,,,,,,,,,,,,,,,,,,2019_Apr_17_1659,59.189809882808504,Cloud_Experiment_FR_REAL,001,40,
images/fcloud_D1.2_1.tif,1.2,0,,,,,0,66,66,12,,,,,,,,,,,,,,,,,,,3,space,3.8251339,4,1.217,,,,,,,,,,,,,,,,,,2019_Apr_17_1659,59.189809882808504,Cloud_Experiment_FR_REAL,001,40,
images/fcloud65-35_D1.7_2.tif,1.7,1,,,,,0,67,67,64,,,,,,,,,,,,,,,,,,,2,space,4.4290653,3,2.051,,,,,,,,,,,,,,,,,,2019_Apr_17_1659,59.189809882808504,Cloud_Experiment_FR_REAL,001,40,
images/fcloud65-35_D1.4_2.tif,1.4,1,,,,,0,68,68,55,,,,,,,,,,,,,,,,,,,1,space,6.9234126,2,1.251,,,,,,,,,,,,,,,,,,2019_Apr_17_1659,59.189809882808504,Cloud_Experiment_FR_REAL,001,40,
images/fcloud_D1.8_3.tif,1.8,0,,,,,0,69,69,32,,,,,,,,,,,,,,,,,,,2,space,5.1294185,4,1.269,,,,,,,,,,,,,,,,,,2019_Apr_17_1659,59.189809882808504,Cloud_Experiment_FR_REAL,001,40,
images/fcloud80-20_D1.4_1.tif,1.4,2,,,,,0,70,70,90,,,,,,,,,,,,,,,,,,,1,space,7.6183551,3,1.735,,,,,,,,,,,,,,,,,,2019_Apr_17_1659,59.189809882808504,Cloud_Experiment_FR_REAL,001,40,
images/fcloud80-20_D1.1_1.tif,1.1,2,,,,,0,71,71,81,,,,,,,,,,,,,,,,,,,1,space,5.3086414,4,2.017,,,,,,,,,,,,,,,,,,2019_Apr_17_1659,59.189809882808504,Cloud_Experiment_FR_REAL,001,40,
images/fcloud80-20_D1.3_1.tif,1.3,2,,,,,0,72,72,87,,,,,,,,,,,,,,,,,,,1,space,3.7283295,4,1.351,,,,,,,,,,,,,,,,,,2019_Apr_17_1659,59.189809882808504,Cloud_Experiment_FR_REAL,001,40,
images/fcloud65-35_D1_3.tif,1.0,1,,,,,0,73,73,44,,,,,,,,,,,,,,,,,,,2,space,2.826414,4,1.568,,,,,,,,,,,,,,,,,,2019_Apr_17_1659,59.189809882808504,Cloud_Experiment_FR_REAL,001,40,
images/fcloud65-35_D0.9_3.tif,0.9,1,,,,,0,74,74,41,,,,,,,,,,,,,,,,,,,3,space,3.009422,5,1.118,,,,,,,,,,,,,,,,,,2019_Apr_17_1659,59.189809882808504,Cloud_Experiment_FR_REAL,001,40,
images/fcloud80-20_D1_2.tif,1.0,2,,,,,0,75,75,79,,,,,,,,,,,,,,,,,,,1,space,4.8101072,5,2.6,,,,,,,,,,,,,,,,,,2019_Apr_17_1659,59.189809882808504,Cloud_Experiment_FR_REAL,001,40,
images/fcloud80-20_D1.5_3.tif,1.5,2,,,,,0,76,76,95,,,,,,,,,,,,,,,,,,,2,space,3.1817369,4,1.252,,,,,,,,,,,,,,,,,,2019_Apr_17_1659,59.189809882808504,Cloud_Experiment_FR_REAL,001,40,
images/fcloud80-20_D1.6_3.tif,1.6,2,,,,,0,77,77,98,,,,,,,,,,,,,,,,,,,3,space,5.3578036,3,0.952,,,,,,,,,,,,,,,,,,2019_Apr_17_1659,59.189809882808504,Cloud_Experiment_FR_REAL,001,40,
images/fcloud65-35_D1.5_2.tif,1.5,1,,,,,0,78,78,58,,,,,,,,,,,,,,,,,,,2,space,2.022198,4,0.918,,,,,,,,,,,,,,,,,,2019_Apr_17_1659,59.189809882808504,Cloud_Experiment_FR_REAL,001,40,
images/fcloud80-20_D1.4_3.tif,1.4,2,,,,,0,79,79,92,,,,,,,,,,,,,,,,,,,2,space,5.2779293,3,0.952,,,,,,,,,,,,,,,,,,2019_Apr_17_1659,59.189809882808504,Cloud_Experiment_FR_REAL,001,40,
images/fcloud80-20_D1.2_1.tif,1.2,2,,,,,0,80,80,84,,,,,,,,,,,,,,,,,,,None,None,,None,10.06,,,,,,,,,,,,,,,,,,2019_Apr_17_1659,59.189809882808504,Cloud_Experiment_FR_REAL,001,40,
images/fcloud_D0.9_1.tif,0.9,0,,,,,0,81,81,3,,,,,,,,,,,,,,,,,,,1,space,5.6565218,5,2.085,,,,,,,,,,,,,,,,,,2019_Apr_17_1659,59.189809882808504,Cloud_Experiment_FR_REAL,001,40,
images/fcloud65-35_D1.2_3.tif,1.2,1,,,,,0,82,82,50,,,,,,,,,,,,,,,,,,,1,None,,2,2.301,,,,,,,,,,,,,,,,,,2019_Apr_17_1659,59.189809882808504,Cloud_Experiment_FR_REAL,001,40,
images/fcloud_D1.3_2.tif,1.3,0,,,,,0,83,83,16,,,,,,,,,,,,,,,,,,,3,space,3.6417343,5,1.452,,,,,,,,,,,,,,,,,,2019_Apr_17_1659,59.189809882808504,Cloud_Experiment_FR_REAL,001,40,
images/fcloud80-20_D1.7_3.tif,1.7,2,,,,,0,84,84,101,,,,,,,,,,,,,,,,,,,2,space,5.6527892,3,1.653,,,,,,,,,,,,,,,,,,2019_Apr_17_1659,59.189809882808504,Cloud_Experiment_FR_REAL,001,40,
images/fcloud_D1.1_1.tif,1.1,0,,,,,0,85,85,9,,,,,,,,,,,,,,,,,,,3,space,2.8617423,5,1.468,,,,,,,,,,,,,,,,,,2019_Apr_17_1659,59.189809882808504,Cloud_Experiment_FR_REAL,001,40,
images/fcloud_D1.6_2.tif,1.6,0,,,,,0,86,86,25,,,,,,,,,,,,,,,,,,,2,None,,3,1.151,,,,,,,,,,,,,,,,,,2019_Apr_17_1659,59.189809882808504,Cloud_Experiment_FR_REAL,001,40,
images/fcloud80-20_D1.6_1.tif,1.6,2,,,,,0,87,87,96,,,,,,,,,,,,,,,,,,,2,space,3.2173786,3,2.349,,,,,,,,,,,,,,,,,,2019_Apr_17_1659,59.189809882808504,Cloud_Experiment_FR_REAL,001,40,
images/fcloud80-20_D0.8_1.tif,0.8,2,,,,,0,88,88,72,,,,,,,,,,,,,,,,,,,2,space,2.6479076,4,1.152,,,,,,,,,,,,,,,,,,2019_Apr_17_1659,59.189809882808504,Cloud_Experiment_FR_REAL,001,40,
images/fcloud65-35_D1.9_1.tif,1.9,1,,,,,0,89,89,69,,,,,,,,,,,,,,,,,,,1,space,5.0564518,5,2.634,,,,,,,,,,,,,,,,,,2019_Apr_17_1659,59.189809882808504,Cloud_Experiment_FR_REAL,001,40,
images/fcloud_D1.5_1.tif,1.5,0,,,,,0,90,90,21,,,,,,,,,,,,,,,,,,,2,space,3.7643161,5,1.685,,,,,,,,,,,,,,,,,,2019_Apr_17_1659,59.189809882808504,Cloud_Experiment_FR_REAL,001,40,
images/fcloud65-35_D0.9_1.tif,0.9,1,,,,,0,91,91,39,,,,,,,,,,,,,,,,,,,2,space,4.1434216,4,1.85,,,,,,,,,,,,,,,,,,2019_Apr_17_1659,59.189809882808504,Cloud_Experiment_FR_REAL,001,40,
images/fcloud_D1.4_2.tif,1.4,0,,,,,0,92,92,19,,,,,,,,,,,,,,,,,,,None,None,,None,11.576,,,,,,,,,,,,,,,,,,2019_Apr_17_1659,59.189809882808504,Cloud_Experiment_FR_REAL,001,40,
images/fcloud_D1.9_1.tif,1.9,0,,,,,0,93,93,33,,,,,,,,,,,,,,,,,,,None,None,,None,20.999,,,,,,,,,,,,,,,,,,2019_Apr_17_1659,59.189809882808504,Cloud_Experiment_FR_REAL,001,40,
images/fcloud_D1.7_2.tif,1.7,0,,,,,0,94,94,28,,,,,,,,,,,,,,,,,,,None,None,,None,30.44,,,,,,,,,,,,,,,,,,2019_Apr_17_1659,59.189809882808504,Cloud_Experiment_FR_REAL,001,40,
images/fcloud65-35_D1.6_3.tif,1.6,1,,,,,0,95,95,62,,,,,,,,,,,,,,,,,,,1,space,3.8381176,5,1.35,,,,,,,,,,,,,,,,,,2019_Apr_17_1659,59.189809882808504,Cloud_Experiment_FR_REAL,001,40,
images/fcloud80-20_D0.9_2.tif,0.9,2,,,,,0,96,96,76,,,,,,,,,,,,,,,,,,,2,space,2.5340481,4,1.018,,,,,,,,,,,,,,,,,,2019_Apr_17_1659,59.189809882808504,Cloud_Experiment_FR_REAL,001,40,
images/fcloud65-35_D0.8_2.tif,0.8,1,,,,,0,97,97,37,,,,,,,,,,,,,,,,,,,2,space,4.1329055,3,0.918,,,,,,,,,,,,,,,,,,2019_Apr_17_1659,59.189809882808504,Cloud_Experiment_FR_REAL,001,40,
images/fcloud80-20_D1.9_3.tif,1.9,2,,,,,0,98,98,107,,,,,,,,,,,,,,,,,,,1,None,,2,0.801,,,,,,,,,,,,,,,,,,2019_Apr_17_1659,59.189809882808504,Cloud_Experiment_FR_REAL,001,40,
images/fcloud80-20_D1.6_2.tif,1.6,2,,,,,0,99,99,97,,,,,,,,,,,,,,,,,,,2,space,1.9358621,3,2.234,,,,,,,,,,,,,,,,,,2019_Apr_17_1659,59.189809882808504,Cloud_Experiment_FR_REAL,001,40,
images/fcloud65-35_D1.3_1.tif,1.3,1,,,,,0,100,100,51,,,,,,,,,,,,,,,,,,,3,space,1.344348,4,1.386,,,,,,,,,,,,,,,,,,2019_Apr_17_1659,59.189809882808504,Cloud_Experiment_FR_REAL,001,40,
images/fcloud65-35_D1.1_2.tif,1.1,1,,,,,0,101,101,46,,,,,,,,,,,,,,,,,,,1,space,4.3392524,2,2.118,,,,,,,,,,,,,,,,,,2019_Apr_17_1659,59.189809882808504,Cloud_Experiment_FR_REAL,001,40,
images/fcloud_D0.9_3.tif,0.9,0,,,,,0,102,102,5,,,,,,,,,,,,,,,,,,,3,space,1.4578854,5,0.968,,,,,,,,,,,,,,,,,,2019_Apr_17_1659,59.189809882808504,Cloud_Experiment_FR_REAL,001,40,
images/fcloud80-20_D1.1_2.tif,1.1,2,,,,,0,103,103,82,,,,,,,,,,,,,,,,,,,1,space,5.9751939,4,0.936,,,,,,,,,,,,,,,,,,2019_Apr_17_1659,59.189809882808504,Cloud_Experiment_FR_REAL,001,40,
images/fcloud65-35_D1.3_3.tif,1.3,1,,,,,0,104,104,53,,,,,,,,,,,,,,,,,,,2,space,5.1112007,3,3.785,,,,,,,,,,,,,,,,,,2019_Apr_17_1659,59.189809882808504,Cloud_Experiment_FR_REAL,001,40,
images/fcloud65-35_D1.3_2.tif,1.3,1,,,,,0,105,105,52,,,,,,,,,,,,,,,,,,,1,space,3.1612548,4,1.086,,,,,,,,,,,,,,,,,,2019_Apr_17_1659,59.189809882808504,Cloud_Experiment_FR_REAL,001,40,
images/fcloud65-35_D1.1_1.tif,1.1,1,,,,,0,106,106,45,,,,,,,,,,,,,,,,,,,2,space,4.4879282,5,0.884,,,,,,,,,,,,,,,,,,2019_Apr_17_1659,59.189809882808504,Cloud_Experiment_FR_REAL,001,40,
images/fcloud_D1.4_1.tif,1.4,0,,,,,0,107,107,18,,,,,,,,,,,,,,,,,,,None,None,,None,10.311,,,,,,,,,,,,,,,,,,2019_Apr_17_1659,59.189809882808504,Cloud_Experiment_FR_REAL,001,40,
,,,,,,,,,,,,,,,,,,,,,,,,,,,,,,,,,,,,,,,,,,,,,,space,3.3649648,,,,2019_Apr_17_1659,59.189809882808504,Cloud_Experiment_FR_REAL,001,40,
,,,,,,,,,,,,,,,,,,,,,,,,,4,10.469,,,,,,,,,,,,,,,,,,,,,,,,,2019_Apr_17_1659,59.189809882808504,Cloud_Experiment_FR_REAL,001,40,
,,,,,,,,,,,,,,,,,,,,,,,,,,,,,,,,,,6,,,,,,,,,,,,,,,,,2019_Apr_17_1659,59.189809882808504,Cloud_Experiment_FR_REAL,001,40,
,,,,,,,,,,,,,,,,,,,,,,,,,,,,,,,,,,,3,,,,,,,,,,,,,,,,2019_Apr_17_1659,59.189809882808504,Cloud_Experiment_FR_REAL,001,40,
,,,,,,,,,,,,,,,,,,,,,,,,,,,,,,,,,,,,7,,,,,,,,,,,,,,,2019_Apr_17_1659,59.189809882808504,Cloud_Experiment_FR_REAL,001,40,
,,,,,,,,,,,,,,,,,,,,,,,,,,,,,,,,,,,,,2,,,,,,,,,,,,,,2019_Apr_17_1659,59.189809882808504,Cloud_Experiment_FR_REAL,001,40,
,,,,,,,,,,,,,,,,,,,,,,,,,,,,,,,,,,,,,,2,,,,,,,,,,,,,2019_Apr_17_1659,59.189809882808504,Cloud_Experiment_FR_REAL,001,40,
,,,,,,,,,,,,,,,,,,,,,,,,,,,,,,,,,,,,,,,2,,,,,,,,,,,,2019_Apr_17_1659,59.189809882808504,Cloud_Experiment_FR_REAL,001,40,
,,,,,,,,,,,,,,,,,,,,,,,,,,,,,,,,,,,,,,,,5,,,,,,,,,,,2019_Apr_17_1659,59.189809882808504,Cloud_Experiment_FR_REAL,001,40,
,,,,,,,,,,,,,,,,,,,,,,,,,,,,,,,,,,,,,,,,,7,,,,,,,,,,2019_Apr_17_1659,59.189809882808504,Cloud_Experiment_FR_REAL,001,40,
,,,,,,,,,,,,,,,,,,,,,,,,,,,,,,,,,,,,,,,,,,4,,,,,,,,,2019_Apr_17_1659,59.189809882808504,Cloud_Experiment_FR_REAL,001,40,
,,,,,,,,,,,,,,,,,,,,,,,,,,,,,,,,,,,,,,,,,,,6,,,,,,,,2019_Apr_17_1659,59.189809882808504,Cloud_Experiment_FR_REAL,001,40,
,,,,,,,,,,,,,,,,,,,,,,,,,,,,,,,,,,,,,,,,,,,,,,,,space,71.4402815,,2019_Apr_17_1659,59.189809882808504,Cloud_Experiment_FR_REAL,001,40,
images/fcloud_D1.7_6.tif,1.7,0,,,,,,,,,0,0,0,29,,,,,,,,,,,,,,,1,space,5.2148462,3,1.817,,,,,,,,,,,,,,,,,,2019_Apr_17_1659,59.189809882808504,Cloud_Experiment_FR_REAL,001,40,
images/fcloud80-20_D1.6_4.tif,1.6,2,,,,,,,,,0,1,1,96,,,,,,,,,,,,,,,1,space,5.2568837,2,0.936,,,,,,,,,,,,,,,,,,2019_Apr_17_1659,59.189809882808504,Cloud_Experiment_FR_REAL,001,40,
images/fcloud_D1.8_4.tif,1.8,0,,,,,,,,,0,2,2,30,,,,,,,,,,,,,,,1,space,6.8072112,2,1.002,,,,,,,,,,,,,,,,,,2019_Apr_17_1659,59.189809882808504,Cloud_Experiment_FR_REAL,001,40,
images/fcloud_D1.1_5.tif,1.1,0,,,,,,,,,0,3,3,10,,,,,,,,,,,,,,,3,space,2.528555,5,0.785,,,,,,,,,,,,,,,,,,2019_Apr_17_1659,59.189809882808504,Cloud_Experiment_FR_REAL,001,40,
images/fcloud80-20_D1.7_5.tif,1.7,2,,,,,,,,,0,4,4,100,,,,,,,,,,,,,,,4,space,2.9323873,4,1.253,,,,,,,,,,,,,,,,,,2019_Apr_17_1659,59.189809882808504,Cloud_Experiment_FR_REAL,001,40,
images/fcloud65-35_D1.4_4.tif,1.4,1,,,,,,,,,0,5,5,54,,,,,,,,,,,,,,,1,space,3.43924,3,0.769,,,,,,,,,,,,,,,,,,2019_Apr_17_1659,59.189809882808504,Cloud_Experiment_FR_REAL,001,40,
images/fcloud_D1_4.tif,1.0,0,,,,,,,,,0,6,6,6,,,,,,,,,,,,,,,2,space,4.1603543,3,1.118,,,,,,,,,,,,,,,,,,2019_Apr_17_1659,59.189809882808504,Cloud_Experiment_FR_REAL,001,40,
images/fcloud80-20_D1.5_4.tif,1.5,2,,,,,,,,,0,7,7,93,,,,,,,,,,,,,,,3,space,2.0719061,4,0.752,,,,,,,,,,,,,,,,,,2019_Apr_17_1659,59.189809882808504,Cloud_Experiment_FR_REAL,001,40,
images/fcloud80-20_D1.9_5.tif,1.9,2,,,,,,,,,0,8,8,106,,,,,,,,,,,,,,,2,space,2.595823,4,1.735,,,,,,,,,,,,,,,,,,2019_Apr_17_1659,59.189809882808504,Cloud_Experiment_FR_REAL,001,40,
images/fcloud80-20_D1.9_6.tif,1.9,2,,,,,,,,,0,9,9,107,,,,,,,,,,,,,,,2,space,2.6433649,4,1.136,,,,,,,,,,,,,,,,,,2019_Apr_17_1659,59.189809882808504,Cloud_Experiment_FR_REAL,001,40,
images/fcloud_D0.8_6.tif,0.8,0,,,,,,,,,0,10,10,2,,,,,,,,,,,,,,,1,space,1.3800229,5,1.585,,,,,,,,,,,,,,,,,,2019_Apr_17_1659,59.189809882808504,Cloud_Experiment_FR_REAL,001,40,
images/fcloud80-20_D1.8_4.tif,1.8,2,,,,,,,,,0,11,11,102,,,,,,,,,,,,,,,1,space,5.604584,3,1.052,,,,,,,,,,,,,,,,,,2019_Apr_17_1659,59.189809882808504,Cloud_Experiment_FR_REAL,001,40,
images/fcloud65-35_D1.2_6.tif,1.2,1,,,,,,,,,0,12,12,50,,,,,,,,,,,,,,,3,space,1.3434801,5,1.601,,,,,,,,,,,,,,,,,,2019_Apr_17_1659,59.189809882808504,Cloud_Experiment_FR_REAL,001,40,
images/fcloud80-20_D1.1_6.tif,1.1,2,,,,,,,,,0,13,13,83,,,,,,,,,,,,,,,1,space,6.6031274,2,0.719,,,,,,,,,,,,,,,,,,2019_Apr_17_1659,59.189809882808504,Cloud_Experiment_FR_REAL,001,40,
images/fcloud80-20_D1.8_6.tif,1.8,2,,,,,,,,,0,14,14,104,,,,,,,,,,,,,,,3,space,3.012763,4,1.367,,,,,,,,,,,,,,,,,,2019_Apr_17_1659,59.189809882808504,Cloud_Experiment_FR_REAL,001,40,
images/fcloud65-35_D1.5_5.tif,1.5,1,,,,,,,,,0,15,15,58,,,,,,,,,,,,,,,2,space,3.8867566,5,0.902,,,,,,,,,,,,,,,,,,2019_Apr_17_1659,59.189809882808504,Cloud_Experiment_FR_REAL,001,40,
images/fcloud65-35_D1.6_5.tif,1.6,1,,,,,,,,,0,16,16,61,,,,,,,,,,,,,,,1,space,6.7951648,3,0.851,,,,,,,,,,,,,,,,,,2019_Apr_17_1659,59.189809882808504,Cloud_Experiment_FR_REAL,001,40,
images/fcloud65-35_D1.6_4.tif,1.6,1,,,,,,,,,0,17,17,60,,,,,,,,,,,,,,,1,space,4.5612601,3,1.169,,,,,,,,,,,,,,,,,,2019_Apr_17_1659,59.189809882808504,Cloud_Experiment_FR_REAL,001,40,
images/fcloud80-20_D0.8_4.tif,0.8,2,,,,,,,,,0,18,18,72,,,,,,,,,,,,,,,3,space,2.0346749,5,0.835,,,,,,,,,,,,,,,,,,2019_Apr_17_1659,59.189809882808504,Cloud_Experiment_FR_REAL,001,40,
images/fcloud80-20_D1.1_4.tif,1.1,2,,,,,,,,,0,19,19,81,,,,,,,,,,,,,,,1,space,6.0924569,2,1.002,,,,,,,,,,,,,,,,,,2019_Apr_17_1659,59.189809882808504,Cloud_Experiment_FR_REAL,001,40,
images/fcloud80-20_D1.8_5.tif,1.8,2,,,,,,,,,0,20,20,103,,,,,,,,,,,,,,,1,space,3.3262164,3,1.369,,,,,,,,,,,,,,,,,,2019_Apr_17_1659,59.189809882808504,Cloud_Experiment_FR_REAL,001,40,
images/fcloud_D1.8_5.tif,1.8,0,,,,,,,,,0,21,21,31,,,,,,,,,,,,,,,2,space,2.7759806,5,0.767,,,,,,,,,,,,,,,,,,2019_Apr_17_1659,59.189809882808504,Cloud_Experiment_FR_REAL,001,40,
images/fcloud_D1.4_6.tif,1.4,0,,,,,,,,,0,22,22,20,,,,,,,,,,,,,,,4,space,2.4782259,5,0.734,,,,,,,,,,,,,,,,,,2019_Apr_17_1659,59.189809882808504,Cloud_Experiment_FR_REAL,001,40,
images/fcloud65-35_D0.9_6.tif,0.9,1,,,,,,,,,0,23,23,41,,,,,,,,,,,,,,,2,space,2.1825111,4,0.736,,,,,,,,,,,,,,,,,,2019_Apr_17_1659,59.189809882808504,Cloud_Experiment_FR_REAL,001,40,
images/fcloud65-35_D1.7_5.tif,1.7,1,,,,,,,,,0,24,24,64,,,,,,,,,,,,,,,3,space,1.8288111,5,1.27,,,,,,,,,,,,,,,,,,2019_Apr_17_1659,59.189809882808504,Cloud_Experiment_FR_REAL,001,40,
images/fcloud65-35_D1.1_4.tif,1.1,1,,,,,,,,,0,25,25,45,,,,,,,,,,,,,,,2,space,1.8115394,4,0.784,,,,,,,,,,,,,,,,,,2019_Apr_17_1659,59.189809882808504,Cloud_Experiment_FR_REAL,001,40,
images/fcloud65-35_D0.8_4.tif,0.8,1,,,,,,,,,0,26,26,36,,,,,,,,,,,,,,,2,space,1.8500026,4,0.801,,,,,,,,,,,,,,,,,,2019_Apr_17_1659,59.189809882808504,Cloud_Experiment_FR_REAL,001,40,
images/fcloud_D1.5_4.tif,1.5,0,,,,,,,,,0,27,27,21,,,,,,,,,,,,,,,2,space,4.407494,4,1.118,,,,,,,,,,,,,,,,,,2019_Apr_17_1659,59.189809882808504,Cloud_Experiment_FR_REAL,001,40,
images/fcloud65-35_D1.1_5.tif,1.1,1,,,,,,,,,0,28,28,46,,,,,,,,,,,,,,,None,None,,None,10.675,,,,,,,,,,,,,,,,,,2019_Apr_17_1659,59.189809882808504,Cloud_Experiment_FR_REAL,001,40,
images/fcloud65-35_D1.9_5.tif,1.9,1,,,,,,,,,0,29,29,70,,,,,,,,,,,,,,,2,space,3.2010743,5,0.834,,,,,,,,,,,,,,,,,,2019_Apr_17_1659,59.189809882808504,Cloud_Experiment_FR_REAL,001,40,
images/fcloud80-20_D1.3_4.tif,1.3,2,,,,,,,,,0,30,30,87,,,,,,,,,,,,,,,2,space,1.5316778,5,0.686,,,,,,,,,,,,,,,,,,2019_Apr_17_1659,59.189809882808504,Cloud_Experiment_FR_REAL,001,40,
images/fcloud_D1.9_4.tif,1.9,0,,,,,,,,,0,31,31,33,,,,,,,,,,,,,,,1,space,6.4565149,3,1.169,,,,,,,,,,,,,,,,,,2019_Apr_17_1659,59.189809882808504,Cloud_Experiment_FR_REAL,001,40,
images/fcloud_D1.1_6.tif,1.1,0,,,,,,,,,0,32,32,11,,,,,,,,,,,,,,,3,space,0.9833898,5,2.15,,,,,,,,,,,,,,,,,,2019_Apr_17_1659,59.189809882808504,Cloud_Experiment_FR_REAL,001,40,
images/fcloud65-35_D0.9_4.tif,0.9,1,,,,,,,,,0,33,33,39,,,,,,,,,,,,,,,2,space,1.6653052,4,1.418,,,,,,,,,,,,,,,,,,2019_Apr_17_1659,59.189809882808504,Cloud_Experiment_FR_REAL,001,40,
images/fcloud_D1.3_6.tif,1.3,0,,,,,,,,,0,34,34,17,,,,,,,,,,,,,,,2,space,4.4714584,5,2.351,,,,,,,,,,,,,,,,,,2019_Apr_17_1659,59.189809882808504,Cloud_Experiment_FR_REAL,001,40,
images/fcloud_D1.4_4.tif,1.4,0,,,,,,,,,0,35,35,18,,,,,,,,,,,,,,,3,space,2.0442304,3,0.685,,,,,,,,,,,,,,,,,,2019_Apr_17_1659,59.189809882808504,Cloud_Experiment_FR_REAL,001,40,
images/fcloud_D1.5_6.tif,1.5,0,,,,,,,,,0,36,36,23,,,,,,,,,,,,,,,2,space,4.1053318,4,1.535,,,,,,,,,,,,,,,,,,2019_Apr_17_1659,59.189809882808504,Cloud_Experiment_FR_REAL,001,40,
images/fcloud65-35_D0.8_5.tif,0.8,1,,,,,,,,,0,37,37,37,,,,,,,,,,,,,,,1,None,,1,1.085,,,,,,,,,,,,,,,,,,2019_Apr_17_1659,59.189809882808504,Cloud_Experiment_FR_REAL,001,40,
images/fcloud65-35_D1_4.tif,1.0,1,,,,,,,,,0,38,38,42,,,,,,,,,,,,,,,None,None,,None,12.756,,,,,,,,,,,,,,,,,,2019_Apr_17_1659,59.189809882808504,Cloud_Experiment_FR_REAL,001,40,
images/fcloud80-20_D1.1_5.tif,1.1,2,,,,,,,,,0,39,39,82,,,,,,,,,,,,,,,2,space,3.63985,3,0.969,,,,,,,,,,,,,,,,,,2019_Apr_17_1659,59.189809882808504,Cloud_Experiment_FR_REAL,001,40,
images/fcloud_D1.2_6.tif,1.2,0,,,,,,,,,0,40,40,14,,,,,,,,,,,,,,,None,None,,None,10.576,,,,,,,,,,,,,,,,,,2019_Apr_17_1659,59.189809882808504,Cloud_Experiment_FR_REAL,001,40,
images/fcloud80-20_D1_4.tif,1.0,2,,,,,,,,,0,41,41,78,,,,,,,,,,,,,,,1,space,2.0476764,2,2.617,,,,,,,,,,,,,,,,,,2019_Apr_17_1659,59.189809882808504,Cloud_Experiment_FR_REAL,001,40,
images/fcloud65-35_D1.4_6.tif,1.4,1,,,,,,,,,0,42,42,56,,,,,,,,,,,,,,,1,space,5.9425312,4,1.434,,,,,,,,,,,,,,,,,,2019_Apr_17_1659,59.189809882808504,Cloud_Experiment_FR_REAL,001,40,
images/fcloud_D1.1_4.tif,1.1,0,,,,,,,,,0,43,43,9,,,,,,,,,,,,,,,3,space,3.0821398,5,0.752,,,,,,,,,,,,,,,,,,2019_Apr_17_1659,59.189809882808504,Cloud_Experiment_FR_REAL,001,40,
images/fcloud80-20_D1_5.tif,1.0,2,,,,,,,,,0,44,44,79,,,,,,,,,,,,,,,None,None,,None,9.893,,,,,,,,,,,,,,,,,,2019_Apr_17_1659,59.189809882808504,Cloud_Experiment_FR_REAL,001,40,
images/fcloud80-20_D1.7_6.tif,1.7,2,,,,,,,,,0,45,45,101,,,,,,,,,,,,,,,1,space,4.4610862,3,1.034,,,,,,,,,,,,,,,,,,2019_Apr_17_1659,59.189809882808504,Cloud_Experiment_FR_REAL,001,40,
images/fcloud_D0.8_4.tif,0.8,0,,,,,,,,,0,46,46,0,,,,,,,,,,,,,,,3,space,1.7311666,4,1.401,,,,,,,,,,,,,,,,,,2019_Apr_17_1659,59.189809882808504,Cloud_Experiment_FR_REAL,001,40,
images/fcloud80-20_D1.5_6.tif,1.5,2,,,,,,,,,0,47,47,95,,,,,,,,,,,,,,,2,space,2.1384702,3,1.718,,,,,,,,,,,,,,,,,,2019_Apr_17_1659,59.189809882808504,Cloud_Experiment_FR_REAL,001,40,
images/fcloud65-35_D1.2_5.tif,1.2,1,,,,,,,,,0,48,48,49,,,,,,,,,,,,,,,2,space,7.2795666,3,1.051,,,,,,,,,,,,,,,,,,2019_Apr_17_1659,59.189809882808504,Cloud_Experiment_FR_REAL,001,40,
images/fcloud_D1.7_5.tif,1.7,0,,,,,,,,,0,49,49,28,,,,,,,,,,,,,,,1,None,,1,1.069,,,,,,,,,,,,,,,,,,2019_Apr_17_1659,59.189809882808504,Cloud_Experiment_FR_REAL,001,40,
images/fcloud65-35_D1.6_6.tif,1.6,1,,,,,,,,,0,50,50,62,,,,,,,,,,,,,,,2,space,1.7742858,4,1.718,,,,,,,,,,,,,,,,,,2019_Apr_17_1659,59.189809882808504,Cloud_Experiment_FR_REAL,001,40,
images/fcloud65-35_D1.3_4.tif,1.3,1,,,,,,,,,0,51,51,51,,,,,,,,,,,,,,,2,space,4.8779776,3,1.052,,,,,,,,,,,,,,,,,,2019_Apr_17_1659,59.189809882808504,Cloud_Experiment_FR_REAL,001,40,
images/fcloud65-35_D1.8_4.tif,1.8,1,,,,,,,,,0,52,52,66,,,,,,,,,,,,,,,None,None,,None,10.292,,,,,,,,,,,,,,,,,,2019_Apr_17_1659,59.189809882808504,Cloud_Experiment_FR_REAL,001,40,
images/fcloud65-35_D1.9_6.tif,1.9,1,,,,,,,,,0,53,53,71,,,,,,,,,,,,,,,1,space,6.2736494,1,0.586,,,,,,,,,,,,,,,,,,2019_Apr_17_1659,59.189809882808504,Cloud_Experiment_FR_REAL,001,40,
images/fcloud_D1.6_5.tif,1.6,0,,,,,,,,,0,54,54,25,,,,,,,,,,,,,,,1,None,,1,1.37,,,,,,,,,,,,,,,,,,2019_Apr_17_1659,59.189809882808504,Cloud_Experiment_FR_REAL,001,40,
images/fcloud65-35_D0.9_5.tif,0.9,1,,,,,,,,,0,55,55,40,,,,,,,,,,,,,,,2,space,3.3131584,4,3.033,,,,,,,,,,,,,,,,,,2019_Apr_17_1659,59.189809882808504,Cloud_Experiment_FR_REAL,001,40,
images/fcloud80-20_D0.9_4.tif,0.9,2,,,,,,,,,0,56,56,75,,,,,,,,,,,,,,,1,space,3.5210306,4,0.952,,,,,,,,,,,,,,,,,,2019_Apr_17_1659,59.189809882808504,Cloud_Experiment_FR_REAL,001,40,
images/fcloud_D1.6_4.tif,1.6,0,,,,,,,,,0,57,57,24,,,,,,,,,,,,,,,3,space,1.3589667,5,0.868,,,,,,,,,,,,,,,,,,2019_Apr_17_1659,59.189809882808504,Cloud_Experiment_FR_REAL,001,40,
images/fcloud80-20_D1.4_5.tif,1.4,2,,,,,,,,,0,58,58,91,,,,,,,,,,,,,,,1,space,1.5182529,5,0.735,,,,,,,,,,,,,,,,,,2019_Apr_17_1659,59.189809882808504,Cloud_Experiment_FR_REAL,001,40,
images/fcloud65-35_D0.8_6.tif,0.8,1,,,,,,,,,0,59,59,38,,,,,,,,,,,,,,,1,space,2.5415337,5,0.868,,,,,,,,,,,,,,,,,,2019_Apr_17_1659,59.189809882808504,Cloud_Experiment_FR_REAL,001,40,
images/fcloud80-20_D1.7_4.tif,1.7,2,,,,,,,,,0,60,60,99,,,,,,,,,,,,,,,2,space,6.4247409,2,2.584,,,,,,,,,,,,,,,,,,2019_Apr_17_1659,59.189809882808504,Cloud_Experiment_FR_REAL,001,40,
images/fcloud_D1.8_6.tif,1.8,0,,,,,,,,,0,61,61,32,,,,,,,,,,,,,,,1,None,,2,0.801,,,,,,,,,,,,,,,,,,2019_Apr_17_1659,59.189809882808504,Cloud_Experiment_FR_REAL,001,40,
images/fcloud65-35_D1.1_6.tif,1.1,1,,,,,,,,,0,62,62,47,,,,,,,,,,,,,,,None,None,,None,10.043,,,,,,,,,,,,,,,,,,2019_Apr_17_1659,59.189809882808504,Cloud_Experiment_FR_REAL,001,40,
images/fcloud80-20_D1.2_6.tif,1.2,2,,,,,,,,,0,63,63,86,,,,,,,,,,,,,,,2,space,2.9824949,4,1.085,,,,,,,,,,,,,,,,,,2019_Apr_17_1659,59.189809882808504,Cloud_Experiment_FR_REAL,001,40,
images/fcloud80-20_D1.4_4.tif,1.4,2,,,,,,,,,0,64,64,90,,,,,,,,,,,,,,,1,space,6.7604421,2,1.351,,,,,,,,,,,,,,,,,,2019_Apr_17_1659,59.189809882808504,Cloud_Experiment_FR_REAL,001,40,
images/fcloud80-20_D0.8_5.tif,0.8,2,,,,,,,,,0,65,65,73,,,,,,,,,,,,,,,1,space,1.1817223,4,5.93,,,,,,,,,,,,,,,,,,2019_Apr_17_1659,59.189809882808504,Cloud_Experiment_FR_REAL,001,40,
images/fcloud65-35_D1.5_6.tif,1.5,1,,,,,,,,,0,66,66,59,,,,,,,,,,,,,,,1,space,5.5146179,2,0.67,,,,,,,,,,,,,,,,,,2019_Apr_17_1659,59.189809882808504,Cloud_Experiment_FR_REAL,001,40,
images/fcloud65-35_D1.7_6.tif,1.7,1,,,,,,,,,0,67,67,65,,,,,,,,,,,,,,,2,space,1.8923956,2,1.102,,,,,,,,,,,,,,,,,,2019_Apr_17_1659,59.189809882808504,Cloud_Experiment_FR_REAL,001,40,
images/fcloud65-35_D1.2_4.tif,1.2,1,,,,,,,,,0,68,68,48,,,,,,,,,,,,,,,3,space,2.6736145,5,1.352,,,,,,,,,,,,,,,,,,2019_Apr_17_1659,59.189809882808504,Cloud_Experiment_FR_REAL,001,40,
images/fcloud65-35_D1_6.tif,1.0,1,,,,,,,,,0,69,69,44,,,,,,,,,,,,,,,2,space,1.8240407,4,0.918,,,,,,,,,,,,,,,,,,2019_Apr_17_1659,59.189809882808504,Cloud_Experiment_FR_REAL,001,40,
images/fcloud65-35_D1.3_6.tif,1.3,1,,,,,,,,,0,70,70,53,,,,,,,,,,,,,,,1,space,7.2028866,1,1.001,,,,,,,,,,,,,,,,,,2019_Apr_17_1659,59.189809882808504,Cloud_Experiment_FR_REAL,001,40,
images/fcloud65-35_D1.8_5.tif,1.8,1,,,,,,,,,0,71,71,67,,,,,,,,,,,,,,,3,space,1.2517967,4,1.435,,,,,,,,,,,,,,,,,,2019_Apr_17_1659,59.189809882808504,Cloud_Experiment_FR_REAL,001,40,
images/fcloud80-20_D0.9_5.tif,0.9,2,,,,,,,,,0,72,72,76,,,,,,,,,,,,,,,4,space,5.8369982,4,2.618,,,,,,,,,,,,,,,,,,2019_Apr_17_1659,59.189809882808504,Cloud_Experiment_FR_REAL,001,40,
images/fcloud_D0.9_5.tif,0.9,0,,,,,,,,,0,73,73,4,,,,,,,,,,,,,,,1,space,7.5576551,4,2.283,,,,,,,,,,,,,,,,,,2019_Apr_17_1659,59.189809882808504,Cloud_Experiment_FR_REAL,001,40,
images/fcloud80-20_D1.5_5.tif,1.5,2,,,,,,,,,0,74,74,94,,,,,,,,,,,,,,,1,space,7.4387121,3,1.169,,,,,,,,,,,,,,,,,,2019_Apr_17_1659,59.189809882808504,Cloud_Experiment_FR_REAL,001,40,
images/fcloud_D0.8_5.tif,0.8,0,,,,,,,,,0,75,75,1,,,,,,,,,,,,,,,None,None,,None,12.142,,,,,,,,,,,,,,,,,,2019_Apr_17_1659,59.189809882808504,Cloud_Experiment_FR_REAL,001,40,
images/fcloud80-20_D0.9_6.tif,0.9,2,,,,,,,,,0,76,76,77,,,,,,,,,,,,,,,1,space,4.779046,2,0.819,,,,,,,,,,,,,,,,,,2019_Apr_17_1659,59.189809882808504,Cloud_Experiment_FR_REAL,001,40,
images/fcloud_D1.2_4.tif,1.2,0,,,,,,,,,0,77,77,12,,,,,,,,,,,,,,,2,space,4.8108779,3,1.652,,,,,,,,,,,,,,,,,,2019_Apr_17_1659,59.189809882808504,Cloud_Experiment_FR_REAL,001,40,
images/fcloud65-35_D1.3_5.tif,1.3,1,,,,,,,,,0,78,78,52,,,,,,,,,,,,,,,1,space,3.9402154,2,1.2,,,,,,,,,,,,,,,,,,2019_Apr_17_1659,59.189809882808504,Cloud_Experiment_FR_REAL,001,40,
images/fcloud65-35_D1.4_5.tif,1.4,1,,,,,,,,,0,79,79,55,,,,,,,,,,,,,,,1,space,5.2790905,2,1.635,,,,,,,,,,,,,,,,,,2019_Apr_17_1659,59.189809882808504,Cloud_Experiment_FR_REAL,001,40,
images/fcloud80-20_D1.3_5.tif,1.3,2,,,,,,,,,0,80,80,88,,,,,,,,,,,,,,,1,space,4.7358376,5,1.768,,,,,,,,,,,,,,,,,,2019_Apr_17_1659,59.189809882808504,Cloud_Experiment_FR_REAL,001,40,
images/fcloud65-35_D1.9_4.tif,1.9,1,,,,,,,,,0,81,81,69,,,,,,,,,,,,,,,1,None,,2,1.684,,,,,,,,,,,,,,,,,,2019_Apr_17_1659,59.189809882808504,Cloud_Experiment_FR_REAL,001,40,
images/fcloud65-35_D1_5.tif,1.0,1,,,,,,,,,0,82,82,43,,,,,,,,,,,,,,,1,space,8.1469932,1,1.501,,,,,,,,,,,,,,,,,,2019_Apr_17_1659,59.189809882808504,Cloud_Experiment_FR_REAL,001,40,
images/fcloud_D1.4_5.tif,1.4,0,,,,,,,,,0,83,83,19,,,,,,,,,,,,,,,3,space,3.9598373,4,1.401,,,,,,,,,,,,,,,,,,2019_Apr_17_1659,59.189809882808504,Cloud_Experiment_FR_REAL,001,40,
images/fcloud80-20_D1.3_6.tif,1.3,2,,,,,,,,,0,84,84,89,,,,,,,,,,,,,,,1,space,7.5033264,1,1.101,,,,,,,,,,,,,,,,,,2019_Apr_17_1659,59.189809882808504,Cloud_Experiment_FR_REAL,001,40,
images/fcloud65-35_D1.5_4.tif,1.5,1,,,,,,,,,0,85,85,57,,,,,,,,,,,,,,,1,space,5.1695112,2,1.018,,,,,,,,,,,,,,,,,,2019_Apr_17_1659,59.189809882808504,Cloud_Experiment_FR_REAL,001,40,
images/fcloud_D1_5.tif,1.0,0,,,,,,,,,0,86,86,7,,,,,,,,,,,,,,,5,space,1.8302557,5,1.602,,,,,,,,,,,,,,,,,,2019_Apr_17_1659,59.189809882808504,Cloud_Experiment_FR_REAL,001,40,
images/fcloud_D0.9_6.tif,0.9,0,,,,,,,,,0,87,87,5,,,,,,,,,,,,,,,1,None,,2,0.687,,,,,,,,,,,,,,,,,,2019_Apr_17_1659,59.189809882808504,Cloud_Experiment_FR_REAL,001,40,
images/fcloud_D1_6.tif,1.0,0,,,,,,,,,0,88,88,8,,,,,,,,,,,,,,,2,space,3.4444197,5,0.852,,,,,,,,,,,,,,,,,,2019_Apr_17_1659,59.189809882808504,Cloud_Experiment_FR_REAL,001,40,
images/fcloud80-20_D1.9_4.tif,1.9,2,,,,,,,,,0,89,89,105,,,,,,,,,,,,,,,1,space,1.3764589,5,1.019,,,,,,,,,,,,,,,,,,2019_Apr_17_1659,59.189809882808504,Cloud_Experiment_FR_REAL,001,40,
images/fcloud_D1.6_6.tif,1.6,0,,,,,,,,,0,90,90,26,,,,,,,,,,,,,,,2,space,2.6082707,5,0.984,,,,,,,,,,,,,,,,,,2019_Apr_17_1659,59.189809882808504,Cloud_Experiment_FR_REAL,001,40,
images/fcloud_D1.3_4.tif,1.3,0,,,,,,,,,0,91,91,15,,,,,,,,,,,,,,,1,space,5.2109253,3,3.4,,,,,,,,,,,,,,,,,,2019_Apr_17_1659,59.189809882808504,Cloud_Experiment_FR_REAL,001,40,
images/fcloud_D0.9_4.tif,0.9,0,,,,,,,,,0,92,92,3,,,,,,,,,,,,,,,4,space,0.976018399997,4,2.834,,,,,,,,,,,,,,,,,,2019_Apr_17_1659,59.189809882808504,Cloud_Experiment_FR_REAL,001,40,
images/fcloud80-20_D1.2_4.tif,1.2,2,,,,,,,,,0,93,93,84,,,,,,,,,,,,,,,1,space,1.2733103,2,3.149,,,,,,,,,,,,,,,,,,2019_Apr_17_1659,59.189809882808504,Cloud_Experiment_FR_REAL,001,40,
images/fcloud80-20_D1.2_5.tif,1.2,2,,,,,,,,,0,94,94,85,,,,,,,,,,,,,,,1,space,1.25001,3,1.202,,,,,,,,,,,,,,,,,,2019_Apr_17_1659,59.189809882808504,Cloud_Experiment_FR_REAL,001,40,
images/fcloud80-20_D1.6_5.tif,1.6,2,,,,,,,,,0,95,95,97,,,,,,,,,,,,,,,1,None,,1,1.202,,,,,,,,,,,,,,,,,,2019_Apr_17_1659,59.189809882808504,Cloud_Experiment_FR_REAL,001,40,
images/fcloud_D1.7_4.tif,1.7,0,,,,,,,,,0,96,96,27,,,,,,,,,,,,,,,None,None,,None,13.774,,,,,,,,,,,,,,,,,,2019_Apr_17_1659,59.189809882808504,Cloud_Experiment_FR_REAL,001,40,
images/fcloud65-35_D1.8_6.tif,1.8,1,,,,,,,,,0,97,97,68,,,,,,,,,,,,,,,1,space,5.5612266,3,1.968,,,,,,,,,,,,,,,,,,2019_Apr_17_1659,59.189809882808504,Cloud_Experiment_FR_REAL,001,40,
images/fcloud_D1.9_6.tif,1.9,0,,,,,,,,,0,98,98,35,,,,,,,,,,,,,,,2,space,2.8574991,3,1.351,,,,,,,,,,,,,,,,,,2019_Apr_17_1659,59.189809882808504,Cloud_Experiment_FR_REAL,001,40,
images/fcloud80-20_D1.4_6.tif,1.4,2,,,,,,,,,0,99,99,92,,,,,,,,,,,,,,,2,space,2.0689471,3,2.318,,,,,,,,,,,,,,,,,,2019_Apr_17_1659,59.189809882808504,Cloud_Experiment_FR_REAL,001,40,
images/fcloud65-35_D1.7_4.tif,1.7,1,,,,,,,,,0,100,100,63,,,,,,,,,,,,,,,2,space,1.9580325,3,2.499,,,,,,,,,,,,,,,,,,2019_Apr_17_1659,59.189809882808504,Cloud_Experiment_FR_REAL,001,40,
images/fcloud_D1.2_5.tif,1.2,0,,,,,,,,,0,101,101,13,,,,,,,,,,,,,,,None,None,,None,11.808,,,,,,,,,,,,,,,,,,2019_Apr_17_1659,59.189809882808504,Cloud_Experiment_FR_REAL,001,40,
images/fcloud80-20_D1_6.tif,1.0,2,,,,,,,,,0,102,102,80,,,,,,,,,,,,,,,1,space,4.1779145,1,1.068,,,,,,,,,,,,,,,,,,2019_Apr_17_1659,59.189809882808504,Cloud_Experiment_FR_REAL,001,40,
images/fcloud80-20_D0.8_6.tif,0.8,2,,,,,,,,,0,103,103,74,,,,,,,,,,,,,,,1,space,6.5105185,1,0.869,,,,,,,,,,,,,,,,,,2019_Apr_17_1659,59.189809882808504,Cloud_Experiment_FR_REAL,001,40,
images/fcloud_D1.3_5.tif,1.3,0,,,,,,,,,0,104,104,16,,,,,,,,,,,,,,,None,None,,None,10.159,,,,,,,,,,,,,,,,,,2019_Apr_17_1659,59.189809882808504,Cloud_Experiment_FR_REAL,001,40,
images/fcloud80-20_D1.6_6.tif,1.6,2,,,,,,,,,0,105,105,98,,,,,,,,,,,,,,,1,space,7.763511,4,1.634,,,,,,,,,,,,,,,,,,2019_Apr_17_1659,59.189809882808504,Cloud_Experiment_FR_REAL,001,40,
images/fcloud_D1.5_5.tif,1.5,0,,,,,,,,,0,106,106,22,,,,,,,,,,,,,,,2,space,2.7965234,4,1.301,,,,,,,,,,,,,,,,,,2019_Apr_17_1659,59.189809882808504,Cloud_Experiment_FR_REAL,001,40,
images/fcloud_D1.9_5.tif,1.9,0,,,,,,,,,0,107,107,34,,,,,,,,,,,,,,,3,space,2.1318864,4,1.018,,,,,,,,,,,,,,,,,,2019_Apr_17_1659,59.189809882808504,Cloud_Experiment_FR_REAL,001,40,
,,,,,,,,,,,,,,,,,,,,,,,,,,,,,,,,,,,,,,,,,,,,,,space,1.7506449,,,,2019_Apr_17_1659,59.189809882808504,Cloud_Experiment_FR_REAL,001,40,
,,,,,,,,,,,,,,,,,,,,,,,,,3,4.659,,,,,,,,,,,,,,,,,,,,,,,,,2019_Apr_17_1659,59.189809882808504,Cloud_Experiment_FR_REAL,001,40,
,,,,,,,,,,,,,,,,,,,,,,,,,,,,,,,,,,5,,,,,,,,,,,,,,,,,2019_Apr_17_1659,59.189809882808504,Cloud_Experiment_FR_REAL,001,40,
,,,,,,,,,,,,,,,,,,,,,,,,,,,,,,,,,,,2,,,,,,,,,,,,,,,,2019_Apr_17_1659,59.189809882808504,Cloud_Experiment_FR_REAL,001,40,
,,,,,,,,,,,,,,,,,,,,,,,,,,,,,,,,,,,,6,,,,,,,,,,,,,,,2019_Apr_17_1659,59.189809882808504,Cloud_Experiment_FR_REAL,001,40,
,,,,,,,,,,,,,,,,,,,,,,,,,,,,,,,,,,,,,2,,,,,,,,,,,,,,2019_Apr_17_1659,59.189809882808504,Cloud_Experiment_FR_REAL,001,40,
,,,,,,,,,,,,,,,,,,,,,,,,,,,,,,,,,,,,,,2,,,,,,,,,,,,,2019_Apr_17_1659,59.189809882808504,Cloud_Experiment_FR_REAL,001,40,
,,,,,,,,,,,,,,,,,,,,,,,,,,,,,,,,,,,,,,,2,,,,,,,,,,,,2019_Apr_17_1659,59.189809882808504,Cloud_Experiment_FR_REAL,001,40,
,,,,,,,,,,,,,,,,,,,,,,,,,,,,,,,,,,,,,,,,3,,,,,,,,,,,2019_Apr_17_1659,59.189809882808504,Cloud_Experiment_FR_REAL,001,40,
,,,,,,,,,,,,,,,,,,,,,,,,,,,,,,,,,,,,,,,,,7,,,,,,,,,,2019_Apr_17_1659,59.189809882808504,Cloud_Experiment_FR_REAL,001,40,
,,,,,,,,,,,,,,,,,,,,,,,,,,,,,,,,,,,,,,,,,,3,,,,,,,,,2019_Apr_17_1659,59.189809882808504,Cloud_Experiment_FR_REAL,001,40,
,,,,,,,,,,,,,,,,,,,,,,,,,,,,,,,,,,,,,,,,,,,7,,,,,,,,2019_Apr_17_1659,59.189809882808504,Cloud_Experiment_FR_REAL,001,40,
,,,,,,,,,,,,,,,,,,,,,,,,,,,,,,,,,,,,,,,,,,,,,,,,space,260.4749474,,2019_Apr_17_1659,59.189809882808504,Cloud_Experiment_FR_REAL,001,40,
images/fcloud_D0.9_7.tif,0.9,0,,,,,,,,,,,,,0,0,0,4,,,,,,,,,,,3,space,3.5479321,3,1.202,,,,,,,,,,,,,,,,,,2019_Apr_17_1659,59.189809882808504,Cloud_Experiment_FR_REAL,001,40,
images/fcloud65-35_D1.6_7.tif,1.6,1,,,,,,,,,,,,,0,1,1,80,,,,,,,,,,,3,space,2.4737212,4,1.15,,,,,,,,,,,,,,,,,,2019_Apr_17_1659,59.189809882808504,Cloud_Experiment_FR_REAL,001,40,
images/fcloud65-35_D0.9_7.tif,0.9,1,,,,,,,,,,,,,0,2,2,52,,,,,,,,,,,2,space,1.6520408,5,0.735,,,,,,,,,,,,,,,,,,2019_Apr_17_1659,59.189809882808504,Cloud_Experiment_FR_REAL,001,40,
images/fcloud80-20_D1.3_7.tif,1.3,2,,,,,,,,,,,,,0,3,3,116,,,,,,,,,,,1,space,5.4868389,2,2.083,,,,,,,,,,,,,,,,,,2019_Apr_17_1659,59.189809882808504,Cloud_Experiment_FR_REAL,001,40,
images/fcloud_D1_7.tif,1.0,0,,,,,,,,,,,,,0,4,4,8,,,,,,,,,,,1,space,5.311821,4,1.218,,,,,,,,,,,,,,,,,,2019_Apr_17_1659,59.189809882808504,Cloud_Experiment_FR_REAL,001,40,
images/fcloud_D1.3_8.tif,1.3,0,,,,,,,,,,,,,0,5,5,21,,,,,,,,,,,2,space,2.3092332,3,0.786,,,,,,,,,,,,,,,,,,2019_Apr_17_1659,59.189809882808504,Cloud_Experiment_FR_REAL,001,40,
images/fcloud65-35_D1.7_8.tif,1.7,1,,,,,,,,,,,,,0,6,6,85,,,,,,,,,,,None,None,,None,9.944,,,,,,,,,,,,,,,,,,2019_Apr_17_1659,59.189809882808504,Cloud_Experiment_FR_REAL,001,40,
images/fcloud65-35_D1.2_8.tif,1.2,1,,,,,,,,,,,,,0,7,7,65,,,,,,,,,,,1,None,,1,0.869,,,,,,,,,,,,,,,,,,2019_Apr_17_1659,59.189809882808504,Cloud_Experiment_FR_REAL,001,40,
images/fcloud65-35_D1_10.tif,1.0,1,,,,,,,,,,,,,0,8,8,59,,,,,,,,,,,1,space,4.0374445,4,1.052,,,,,,,,,,,,,,,,,,2019_Apr_17_1659,59.189809882808504,Cloud_Experiment_FR_REAL,001,40,
images/fcloud_D1.5_7.tif,1.5,0,,,,,,,,,,,,,0,9,9,28,,,,,,,,,,,1,space,6.4741961,2,1.085,,,,,,,,,,,,,,,,,,2019_Apr_17_1659,59.189809882808504,Cloud_Experiment_FR_REAL,001,40,
images/fcloud80-20_D1.5_10.tif,1.5,2,,,,,,,,,,,,,0,10,10,127,,,,,,,,,,,1,space,6.6536118,2,0.553,,,,,,,,,,,,,,,,,,2019_Apr_17_1659,59.189809882808504,Cloud_Experiment_FR_REAL,001,40,
images/fcloud65-35_D1.3_8.tif,1.3,1,,,,,,,,,,,,,0,11,11,69,,,,,,,,,,,None,None,,None,9.495,,,,,,,,,,,,,,,,,,2019_Apr_17_1659,59.189809882808504,Cloud_Experiment_FR_REAL,001,40,
images/fcloud65-35_D1.7_10.tif,1.7,1,,,,,,,,,,,,,0,12,12,87,,,,,,,,,,,2,space,5.2160039,4,0.85,,,,,,,,,,,,,,,,,,2019_Apr_17_1659,59.189809882808504,Cloud_Experiment_FR_REAL,001,40,
images/fcloud65-35_D1.1_9.tif,1.1,1,,,,,,,,,,,,,0,13,13,62,,,,,,,,,,,1,space,6.2613488,3,1.502,,,,,,,,,,,,,,,,,,2019_Apr_17_1659,59.189809882808504,Cloud_Experiment_FR_REAL,001,40,
images/fcloud_D1.2_7.tif,1.2,0,,,,,,,,,,,,,0,14,14,16,,,,,,,,,,,2,space,2.5648853,2,2.533,,,,,,,,,,,,,,,,,,2019_Apr_17_1659,59.189809882808504,Cloud_Experiment_FR_REAL,001,40,
images/fcloud80-20_D0.9_9.tif,0.9,2,,,,,,,,,,,,,0,15,15,102,,,,,,,,,,,2,space,1.9622745,3,0.736,,,,,,,,,,,,,,,,,,2019_Apr_17_1659,59.189809882808504,Cloud_Experiment_FR_REAL,001,40,
images/fcloud80-20_D1.2_8.tif,1.2,2,,,,,,,,,,,,,0,16,16,113,,,,,,,,,,,2,space,4.1750225,3,0.885,,,,,,,,,,,,,,,,,,2019_Apr_17_1659,59.189809882808504,Cloud_Experiment_FR_REAL,001,40,
images/fcloud_D1.2_10.tif,1.2,0,,,,,,,,,,,,,0,17,17,19,,,,,,,,,,,3,space,2.7078056,4,2.15,,,,,,,,,,,,,,,,,,2019_Apr_17_1659,59.189809882808504,Cloud_Experiment_FR_REAL,001,40,
images/fcloud65-35_D1.6_10.tif,1.6,1,,,,,,,,,,,,,0,18,18,83,,,,,,,,,,,None,None,,None,11.676,,,,,,,,,,,,,,,,,,2019_Apr_17_1659,59.189809882808504,Cloud_Experiment_FR_REAL,001,40,
images/fcloud_D1.1_9.tif,1.1,0,,,,,,,,,,,,,0,19,19,14,,,,,,,,,,,1,space,5.864017,3,1.085,,,,,,,,,,,,,,,,,,2019_Apr_17_1659,59.189809882808504,Cloud_Experiment_FR_REAL,001,40,
images/fcloud80-20_D1_9.tif,1.0,2,,,,,,,,,,,,,0,20,20,106,,,,,,,,,,,3,space,5.4058635,4,1.368,,,,,,,,,,,,,,,,,,2019_Apr_17_1659,59.189809882808504,Cloud_Experiment_FR_REAL,001,40,
images/fcloud80-20_D1.1_9.tif,1.1,2,,,,,,,,,,,,,0,21,21,110,,,,,,,,,,,1,space,5.5765427,3,0.851,,,,,,,,,,,,,,,,,,2019_Apr_17_1659,59.189809882808504,Cloud_Experiment_FR_REAL,001,40,
images/fcloud_D0.9_8.tif,0.9,0,,,,,,,,,,,,,0,22,22,5,,,,,,,,,,,1,space,7.1761288,1,1.152,,,,,,,,,,,,,,,,,,2019_Apr_17_1659,59.189809882808504,Cloud_Experiment_FR_REAL,001,40,
images/fcloud65-35_D1.1_10.tif,1.1,1,,,,,,,,,,,,,0,23,23,63,,,,,,,,,,,1,space,5.4402974,2,0.919,,,,,,,,,,,,,,,,,,2019_Apr_17_1659,59.189809882808504,Cloud_Experiment_FR_REAL,001,40,
images/fcloud65-35_D1.5_8.tif,1.5,1,,,,,,,,,,,,,0,24,24,77,,,,,,,,,,,1,space,4.0104518,2,0.652,,,,,,,,,,,,,,,,,,2019_Apr_17_1659,59.189809882808504,Cloud_Experiment_FR_REAL,001,40,
images/fcloud_D1.3_9.tif,1.3,0,,,,,,,,,,,,,0,25,25,22,,,,,,,,,,,None,None,,None,9.808,,,,,,,,,,,,,,,,,,2019_Apr_17_1659,59.189809882808504,Cloud_Experiment_FR_REAL,001,40,
images/fcloud80-20_D1.5_7.tif,1.5,2,,,,,,,,,,,,,0,26,26,124,,,,,,,,,,,1,space,6.6897755,2,1.884,,,,,,,,,,,,,,,,,,2019_Apr_17_1659,59.189809882808504,Cloud_Experiment_FR_REAL,001,40,
images/fcloud65-35_D1.4_9.tif,1.4,1,,,,,,,,,,,,,0,27,27,74,,,,,,,,,,,1,space,4.7215189,2,0.769,,,,,,,,,,,,,,,,,,2019_Apr_17_1659,59.189809882808504,Cloud_Experiment_FR_REAL,001,40,
images/fcloud80-20_D1.6_10.tif,1.6,2,,,,,,,,,,,,,0,28,28,131,,,,,,,,,,,1,space,7.1112553,4,0.834,,,,,,,,,,,,,,,,,,2019_Apr_17_1659,59.189809882808504,Cloud_Experiment_FR_REAL,001,40,
images/fcloud80-20_D1.8_8.tif,1.8,2,,,,,,,,,,,,,0,29,29,137,,,,,,,,,,,1,space,7.5808039,2,0.768,,,,,,,,,,,,,,,,,,2019_Apr_17_1659,59.189809882808504,Cloud_Experiment_FR_REAL,001,40,
images/fcloud80-20_D1.5_8.tif,1.5,2,,,,,,,,,,,,,0,30,30,125,,,,,,,,,,,2,space,5.4896028,4,0.785,,,,,,,,,,,,,,,,,,2019_Apr_17_1659,59.189809882808504,Cloud_Experiment_FR_REAL,001,40,
images/fcloud_D1.9_7.tif,1.9,0,,,,,,,,,,,,,0,31,31,44,,,,,,,,,,,2,space,1.9774779,5,1.818,,,,,,,,,,,,,,,,,,2019_Apr_17_1659,59.189809882808504,Cloud_Experiment_FR_REAL,001,40,
images/fcloud_D1.2_9.tif,1.2,0,,,,,,,,,,,,,0,32,32,18,,,,,,,,,,,2,space,4.6888678,4,0.918,,,,,,,,,,,,,,,,,,2019_Apr_17_1659,59.189809882808504,Cloud_Experiment_FR_REAL,001,40,
images/fcloud80-20_D0.8_9.tif,0.8,2,,,,,,,,,,,,,0,33,33,98,,,,,,,,,,,1,space,6.7573915,3,1.333,,,,,,,,,,,,,,,,,,2019_Apr_17_1659,59.189809882808504,Cloud_Experiment_FR_REAL,001,40,
images/fcloud_D1.8_9.tif,1.8,0,,,,,,,,,,,,,0,34,34,42,,,,,,,,,,,1,space,6.3105575,3,1.002,,,,,,,,,,,,,,,,,,2019_Apr_17_1659,59.189809882808504,Cloud_Experiment_FR_REAL,001,40,
images/fcloud65-35_D0.8_7.tif,0.8,1,,,,,,,,,,,,,0,35,35,48,,,,,,,,,,,1,space,6.1070428,1,0.586,,,,,,,,,,,,,,,,,,2019_Apr_17_1659,59.189809882808504,Cloud_Experiment_FR_REAL,001,40,
images/fcloud65-35_D1.6_9.tif,1.6,1,,,,,,,,,,,,,0,36,36,82,,,,,,,,,,,None,None,,None,9.793,,,,,,,,,,,,,,,,,,2019_Apr_17_1659,59.189809882808504,Cloud_Experiment_FR_REAL,001,40,
images/fcloud80-20_D0.9_10.tif,0.9,2,,,,,,,,,,,,,0,37,37,103,,,,,,,,,,,1,space,7.6404804,1,0.468,,,,,,,,,,,,,,,,,,2019_Apr_17_1659,59.189809882808504,Cloud_Experiment_FR_REAL,001,40,
images/fcloud_D1.5_9.tif,1.5,0,,,,,,,,,,,,,0,38,38,30,,,,,,,,,,,1,space,3.9509191,3,1.051,,,,,,,,,,,,,,,,,,2019_Apr_17_1659,59.189809882808504,Cloud_Experiment_FR_REAL,001,40,
images/fcloud65-35_D1.9_8.tif,1.9,1,,,,,,,,,,,,,0,39,39,93,,,,,,,,,,,1,space,6.9909672,2,1.317,,,,,,,,,,,,,,,,,,2019_Apr_17_1659,59.189809882808504,Cloud_Experiment_FR_REAL,001,40,
images/fcloud_D1.7_8.tif,1.7,0,,,,,,,,,,,,,0,40,40,37,,,,,,,,,,,1,space,7.7736302,1,0.635,,,,,,,,,,,,,,,,,,2019_Apr_17_1659,59.189809882808504,Cloud_Experiment_FR_REAL,001,40,
images/fcloud_D1.3_10.tif,1.3,0,,,,,,,,,,,,,0,41,41,23,,,,,,,,,,,1,space,1.7802291,3,1.068,,,,,,,,,,,,,,,,,,2019_Apr_17_1659,59.189809882808504,Cloud_Experiment_FR_REAL,001,40,
images/fcloud_D1.1_10.tif,1.1,0,,,,,,,,,,,,,0,42,42,15,,,,,,,,,,,3,space,3.9620304,4,1.101,,,,,,,,,,,,,,,,,,2019_Apr_17_1659,59.189809882808504,Cloud_Experiment_FR_REAL,001,40,
images/fcloud65-35_D1.3_7.tif,1.3,1,,,,,,,,,,,,,0,43,43,68,,,,,,,,,,,1,space,2.0301242,3,1.734,,,,,,,,,,,,,,,,,,2019_Apr_17_1659,59.189809882808504,Cloud_Experiment_FR_REAL,001,40,
images/fcloud80-20_D1_7.tif,1.0,2,,,,,,,,,,,,,0,44,44,104,,,,,,,,,,,1,space,1.0133,5,1.235,,,,,,,,,,,,,,,,,,2019_Apr_17_1659,59.189809882808504,Cloud_Experiment_FR_REAL,001,40,
images/fcloud65-35_D1_8.tif,1.0,1,,,,,,,,,,,,,0,45,45,57,,,,,,,,,,,1,space,3.2994436,5,1.051,,,,,,,,,,,,,,,,,,2019_Apr_17_1659,59.189809882808504,Cloud_Experiment_FR_REAL,001,40,
images/fcloud_D0.9_9.tif,0.9,0,,,,,,,,,,,,,0,46,46,6,,,,,,,,,,,1,space,3.8579883,5,0.671,,,,,,,,,,,,,,,,,,2019_Apr_17_1659,59.189809882808504,Cloud_Experiment_FR_REAL,001,40,
images/fcloud65-35_D1.6_8.tif,1.6,1,,,,,,,,,,,,,0,47,47,81,,,,,,,,,,,4,space,4.0291065,2,1.185,,,,,,,,,,,,,,,,,,2019_Apr_17_1659,59.189809882808504,Cloud_Experiment_FR_REAL,001,40,
images/fcloud65-35_D1.2_7.tif,1.2,1,,,,,,,,,,,,,0,48,48,64,,,,,,,,,,,2,space,3.0570148,2,1.301,,,,,,,,,,,,,,,,,,2019_Apr_17_1659,59.189809882808504,Cloud_Experiment_FR_REAL,001,40,
images/fcloud65-35_D1.1_8.tif,1.1,1,,,,,,,,,,,,,0,49,49,61,,,,,,,,,,,1,space,6.1894826,2,0.618,,,,,,,,,,,,,,,,,,2019_Apr_17_1659,59.189809882808504,Cloud_Experiment_FR_REAL,001,40,
images/fcloud65-35_D1.1_7.tif,1.1,1,,,,,,,,,,,,,0,50,50,60,,,,,,,,,,,2,space,3.1786036,3,1.702,,,,,,,,,,,,,,,,,,2019_Apr_17_1659,59.189809882808504,Cloud_Experiment_FR_REAL,001,40,
images/fcloud65-35_D1.9_7.tif,1.9,1,,,,,,,,,,,,,0,51,51,92,,,,,,,,,,,1,space,2.772759,4,1.768,,,,,,,,,,,,,,,,,,2019_Apr_17_1659,59.189809882808504,Cloud_Experiment_FR_REAL,001,40,
images/fcloud80-20_D1.2_10.tif,1.2,2,,,,,,,,,,,,,0,52,52,115,,,,,,,,,,,1,space,4.1562685,3,1.535,,,,,,,,,,,,,,,,,,2019_Apr_17_1659,59.189809882808504,Cloud_Experiment_FR_REAL,001,40,
images/fcloud65-35_D1.8_9.tif,1.8,1,,,,,,,,,,,,,0,53,53,90,,,,,,,,,,,1,None,,1,1.085,,,,,,,,,,,,,,,,,,2019_Apr_17_1659,59.189809882808504,Cloud_Experiment_FR_REAL,001,40,
images/fcloud65-35_D1.4_10.tif,1.4,1,,,,,,,,,,,,,0,54,54,75,,,,,,,,,,,2,space,4.4234324,3,0.737,,,,,,,,,,,,,,,,,,2019_Apr_17_1659,59.189809882808504,Cloud_Experiment_FR_REAL,001,40,
images/fcloud_D1.8_10.tif,1.8,0,,,,,,,,,,,,,0,55,55,43,,,,,,,,,,,1,space,2.9421783,2,1.184,,,,,,,,,,,,,,,,,,2019_Apr_17_1659,59.189809882808504,Cloud_Experiment_FR_REAL,001,40,
images/fcloud80-20_D1.8_7.tif,1.8,2,,,,,,,,,,,,,0,56,56,136,,,,,,,,,,,None,None,,None,10.226,,,,,,,,,,,,,,,,,,2019_Apr_17_1659,59.189809882808504,Cloud_Experiment_FR_REAL,001,40,
images/fcloud_D1.6_10.tif,1.6,0,,,,,,,,,,,,,0,57,57,35,,,,,,,,,,,1,space,7.1535656,2,0.686,,,,,,,,,,,,,,,,,,2019_Apr_17_1659,59.189809882808504,Cloud_Experiment_FR_REAL,001,40,
images/fcloud_D1.6_8.tif,1.6,0,,,,,,,,,,,,,0,58,58,33,,,,,,,,,,,2,space,2.6312307,4,1.051,,,,,,,,,,,,,,,,,,2019_Apr_17_1659,59.189809882808504,Cloud_Experiment_FR_REAL,001,40,
images/fcloud_D1_10.tif,1.0,0,,,,,,,,,,,,,0,59,59,11,,,,,,,,,,,2,space,4.7290669,4,1.268,,,,,,,,,,,,,,,,,,2019_Apr_17_1659,59.189809882808504,Cloud_Experiment_FR_REAL,001,40,
images/fcloud80-20_D1.7_7.tif,1.7,2,,,,,,,,,,,,,0,60,60,132,,,,,,,,,,,1,space,7.3855611,2,0.685,,,,,,,,,,,,,,,,,,2019_Apr_17_1659,59.189809882808504,Cloud_Experiment_FR_REAL,001,40,
images/fcloud_D1.4_8.tif,1.4,0,,,,,,,,,,,,,0,61,61,25,,,,,,,,,,,1,space,2.1490721,2,0.736,,,,,,,,,,,,,,,,,,2019_Apr_17_1659,59.189809882808504,Cloud_Experiment_FR_REAL,001,40,
images/fcloud80-20_D1.8_10.tif,1.8,2,,,,,,,,,,,,,0,62,62,139,,,,,,,,,,,None,None,,None,12.373,,,,,,,,,,,,,,,,,,2019_Apr_17_1659,59.189809882808504,Cloud_Experiment_FR_REAL,001,40,
images/fcloud80-20_D1.1_7.tif,1.1,2,,,,,,,,,,,,,0,63,63,108,,,,,,,,,,,3,space,3.3257637,2,1.385,,,,,,,,,,,,,,,,,,2019_Apr_17_1659,59.189809882808504,Cloud_Experiment_FR_REAL,001,40,
images/fcloud65-35_D1_9.tif,1.0,1,,,,,,,,,,,,,0,64,64,58,,,,,,,,,,,3,space,1.1250907,2,0.719,,,,,,,,,,,,,,,,,,2019_Apr_17_1659,59.189809882808504,Cloud_Experiment_FR_REAL,001,40,
images/fcloud_D0.9_10.tif,0.9,0,,,,,,,,,,,,,0,65,65,7,,,,,,,,,,,2,space,3.1930588,4,2.418,,,,,,,,,,,,,,,,,,2019_Apr_17_1659,59.189809882808504,Cloud_Experiment_FR_REAL,001,40,
images/fcloud65-35_D1.8_8.tif,1.8,1,,,,,,,,,,,,,0,66,66,89,,,,,,,,,,,3,space,2.4401853,4,1.652,,,,,,,,,,,,,,,,,,2019_Apr_17_1659,59.189809882808504,Cloud_Experiment_FR_REAL,001,40,
images/fcloud_D1.4_10.tif,1.4,0,,,,,,,,,,,,,0,67,67,27,,,,,,,,,,,2,space,3.7078682,4,1.752,,,,,,,,,,,,,,,,,,2019_Apr_17_1659,59.189809882808504,Cloud_Experiment_FR_REAL,001,40,
images/fcloud80-20_D0.8_10.tif,0.8,2,,,,,,,,,,,,,0,68,68,99,,,,,,,,,,,2,space,3.0833703,4,0.935,,,,,,,,,,,,,,,,,,2019_Apr_17_1659,59.189809882808504,Cloud_Experiment_FR_REAL,001,40,
images/fcloud80-20_D1.6_8.tif,1.6,2,,,,,,,,,,,,,0,69,69,129,,,,,,,,,,,1,space,5.8587636,2,0.685,,,,,,,,,,,,,,,,,,2019_Apr_17_1659,59.189809882808504,Cloud_Experiment_FR_REAL,001,40,
images/fcloud80-20_D1.1_10.tif,1.1,2,,,,,,,,,,,,,0,70,70,111,,,,,,,,,,,2,space,4.5085785,3,1.418,,,,,,,,,,,,,,,,,,2019_Apr_17_1659,59.189809882808504,Cloud_Experiment_FR_REAL,001,40,
images/fcloud_D1.5_8.tif,1.5,0,,,,,,,,,,,,,0,71,71,29,,,,,,,,,,,None,None,,None,10.876,,,,,,,,,,,,,,,,,,2019_Apr_17_1659,59.189809882808504,Cloud_Experiment_FR_REAL,001,40,
images/fcloud_D1.1_8.tif,1.1,0,,,,,,,,,,,,,0,72,72,13,,,,,,,,,,,2,space,5.4338759,4,0.852,,,,,,,,,,,,,,,,,,2019_Apr_17_1659,59.189809882808504,Cloud_Experiment_FR_REAL,001,40,
images/fcloud65-35_D1.4_8.tif,1.4,1,,,,,,,,,,,,,0,73,73,73,,,,,,,,,,,2,space,3.5451756,3,0.802,,,,,,,,,,,,,,,,,,2019_Apr_17_1659,59.189809882808504,Cloud_Experiment_FR_REAL,001,40,
images/fcloud80-20_D1_8.tif,1.0,2,,,,,,,,,,,,,0,74,74,105,,,,,,,,,,,1,space,6.3888721,1,1.517,,,,,,,,,,,,,,,,,,2019_Apr_17_1659,59.189809882808504,Cloud_Experiment_FR_REAL,001,40,
images/fcloud_D1.6_9.tif,1.6,0,,,,,,,,,,,,,0,75,75,34,,,,,,,,,,,1,space,6.3921809,2,2.135,,,,,,,,,,,,,,,,,,2019_Apr_17_1659,59.189809882808504,Cloud_Experiment_FR_REAL,001,40,
images/fcloud_D1.3_7.tif,1.3,0,,,,,,,,,,,,,0,76,76,20,,,,,,,,,,,3,space,3.3310427,4,1.635,,,,,,,,,,,,,,,,,,2019_Apr_17_1659,59.189809882808504,Cloud_Experiment_FR_REAL,001,40,
images/fcloud80-20_D1.2_9.tif,1.2,2,,,,,,,,,,,,,0,77,77,114,,,,,,,,,,,1,space,5.0371336,5,2.101,,,,,,,,,,,,,,,,,,2019_Apr_17_1659,59.189809882808504,Cloud_Experiment_FR_REAL,001,40,
images/fcloud_D1.8_7.tif,1.8,0,,,,,,,,,,,,,0,78,78,40,,,,,,,,,,,1,space,7.3877062,2,1.019,,,,,,,,,,,,,,,,,,2019_Apr_17_1659,59.189809882808504,Cloud_Experiment_FR_REAL,001,40,
images/fcloud65-35_D1.7_9.tif,1.7,1,,,,,,,,,,,,,0,79,79,86,,,,,,,,,,,2,space,2.1428522,3,0.901,,,,,,,,,,,,,,,,,,2019_Apr_17_1659,59.189809882808504,Cloud_Experiment_FR_REAL,001,40,
images/fcloud_D1.1_7.tif,1.1,0,,,,,,,,,,,,,0,80,80,12,,,,,,,,,,,None,None,,None,10.075,,,,,,,,,,,,,,,,,,2019_Apr_17_1659,59.189809882808504,Cloud_Experiment_FR_REAL,001,40,
images/fcloud_D1.7_10.tif,1.7,0,,,,,,,,,,,,,0,81,81,39,,,,,,,,,,,1,space,2.2619646,4,1.702,,,,,,,,,,,,,,,,,,2019_Apr_17_1659,59.189809882808504,Cloud_Experiment_FR_REAL,001,40,
images/fcloud80-20_D0.9_7.tif,0.9,2,,,,,,,,,,,,,0,82,82,100,,,,,,,,,,,None,None,,None,11.108,,,,,,,,,,,,,,,,,,2019_Apr_17_1659,59.189809882808504,Cloud_Experiment_FR_REAL,001,40,
images/fcloud80-20_D1.7_8.tif,1.7,2,,,,,,,,,,,,,0,83,83,133,,,,,,,,,,,2,space,1.993054,3,1.369,,,,,,,,,,,,,,,,,,2019_Apr_17_1659,59.189809882808504,Cloud_Experiment_FR_REAL,001,40,
images/fcloud_D0.8_10.tif,0.8,0,,,,,,,,,,,,,0,84,84,3,,,,,,,,,,,2,space,2.4760316,3,1.001,,,,,,,,,,,,,,,,,,2019_Apr_17_1659,59.189809882808504,Cloud_Experiment_FR_REAL,001,40,
images/fcloud_D0.8_8.tif,0.8,0,,,,,,,,,,,,,0,85,85,1,,,,,,,,,,,1,space,4.9970591,2,1.052,,,,,,,,,,,,,,,,,,2019_Apr_17_1659,59.189809882808504,Cloud_Experiment_FR_REAL,001,40,
images/fcloud_D1.4_9.tif,1.4,0,,,,,,,,,,,,,0,86,86,26,,,,,,,,,,,1,space,7.4525947,2,4.117,,,,,,,,,,,,,,,,,,2019_Apr_17_1659,59.189809882808504,Cloud_Experiment_FR_REAL,001,40,
images/fcloud80-20_D1.3_8.tif,1.3,2,,,,,,,,,,,,,0,87,87,117,,,,,,,,,,,3,space,4.0504897,3,4.099,,,,,,,,,,,,,,,,,,2019_Apr_17_1659,59.189809882808504,Cloud_Experiment_FR_REAL,001,40,
images/fcloud_D1.9_9.tif,1.9,0,,,,,,,,,,,,,0,88,88,46,,,,,,,,,,,None,None,,None,13.506,,,,,,,,,,,,,,,,,,2019_Apr_17_1659,59.189809882808504,Cloud_Experiment_FR_REAL,001,40,
images/fcloud_D0.8_7.tif,0.8,0,,,,,,,,,,,,,0,89,89,0,,,,,,,,,,,3,space,1.0403472,5,1.002,,,,,,,,,,,,,,,,,,2019_Apr_17_1659,59.189809882808504,Cloud_Experiment_FR_REAL,001,40,
images/fcloud65-35_D0.9_8.tif,0.9,1,,,,,,,,,,,,,0,90,90,53,,,,,,,,,,,1,space,6.2358955,3,0.954,,,,,,,,,,,,,,,,,,2019_Apr_17_1659,59.189809882808504,Cloud_Experiment_FR_REAL,001,40,
images/fcloud_D1.7_9.tif,1.7,0,,,,,,,,,,,,,0,91,91,38,,,,,,,,,,,3,space,2.6442877,2,1.384,,,,,,,,,,,,,,,,,,2019_Apr_17_1659,59.189809882808504,Cloud_Experiment_FR_REAL,001,40,
images/fcloud65-35_D1.5_7.tif,1.5,1,,,,,,,,,,,,,0,92,92,76,,,,,,,,,,,3,space,3.1115357,2,0.852,,,,,,,,,,,,,,,,,,2019_Apr_17_1659,59.189809882808504,Cloud_Experiment_FR_REAL,001,40,
images/fcloud_D1.6_7.tif,1.6,0,,,,,,,,,,,,,0,93,93,32,,,,,,,,,,,2,space,5.9068834,2,1.084,,,,,,,,,,,,,,,,,,2019_Apr_17_1659,59.189809882808504,Cloud_Experiment_FR_REAL,001,40,
images/fcloud65-35_D0.9_10.tif,0.9,1,,,,,,,,,,,,,0,94,94,55,,,,,,,,,,,2,space,4.530679,2,1.185,,,,,,,,,,,,,,,,,,2019_Apr_17_1659,59.189809882808504,Cloud_Experiment_FR_REAL,001,40,
images/fcloud_D0.8_9.tif,0.8,0,,,,,,,,,,,,,0,95,95,2,,,,,,,,,,,1,space,6.4873001,4,1.153,,,,,,,,,,,,,,,,,,2019_Apr_17_1659,59.189809882808504,Cloud_Experiment_FR_REAL,001,40,
images/fcloud65-35_D0.8_8.tif,0.8,1,,,,,,,,,,,,,0,96,96,49,,,,,,,,,,,2,space,2.0599023,4,1.201,,,,,,,,,,,,,,,,,,2019_Apr_17_1659,59.189809882808504,Cloud_Experiment_FR_REAL,001,40,
images/fcloud65-35_D1.9_10.tif,1.9,1,,,,,,,,,,,,,0,97,97,95,,,,,,,,,,,3,space,3.9827878,3,1.053,,,,,,,,,,,,,,,,,,2019_Apr_17_1659,59.189809882808504,Cloud_Experiment_FR_REAL,001,40,
images/fcloud80-20_D1.1_8.tif,1.1,2,,,,,,,,,,,,,0,98,98,109,,,,,,,,,,,2,space,2.8915643,4,1.566,,,,,,,,,,,,,,,,,,2019_Apr_17_1659,59.189809882808504,Cloud_Experiment_FR_REAL,001,40,
images/fcloud_D1.5_10.tif,1.5,0,,,,,,,,,,,,,0,99,99,31,,,,,,,,,,,3,space,1.9078589,3,2.917,,,,,,,,,,,,,,,,,,2019_Apr_17_1659,59.189809882808504,Cloud_Experiment_FR_REAL,001,40,
images/fcloud80-20_D1.4_8.tif,1.4,2,,,,,,,,,,,,,0,100,100,121,,,,,,,,,,,1,space,6.686233,2,0.802,,,,,,,,,,,,,,,,,,2019_Apr_17_1659,59.189809882808504,Cloud_Experiment_FR_REAL,001,40,
images/fcloud65-35_D1.7_7.tif,1.7,1,,,,,,,,,,,,,0,101,101,84,,,,,,,,,,,1,space,5.6437917,2,0.585,,,,,,,,,,,,,,,,,,2019_Apr_17_1659,59.189809882808504,Cloud_Experiment_FR_REAL,001,40,
images/fcloud65-35_D1.3_9.tif,1.3,1,,,,,,,,,,,,,0,102,102,70,,,,,,,,,,,1,space,3.6092955,2,1.587,,,,,,,,,,,,,,,,,,2019_Apr_17_1659,59.189809882808504,Cloud_Experiment_FR_REAL,001,40,
images/fcloud80-20_D1.7_9.tif,1.7,2,,,,,,,,,,,,,0,103,103,134,,,,,,,,,,,2,space,5.4525817,3,1.818,,,,,,,,,,,,,,,,,,2019_Apr_17_1659,59.189809882808504,Cloud_Experiment_FR_REAL,001,40,
images/fcloud80-20_D1.4_10.tif,1.4,2,,,,,,,,,,,,,0,104,104,123,,,,,,,,,,,2,space,4.7075501,3,1.67,,,,,,,,,,,,,,,,,,2019_Apr_17_1659,59.189809882808504,Cloud_Experiment_FR_REAL,001,40,
images/fcloud_D1.2_8.tif,1.2,0,,,,,,,,,,,,,0,105,105,17,,,,,,,,,,,3,space,4.2768522,3,1.218,,,,,,,,,,,,,,,,,,2019_Apr_17_1659,59.189809882808504,Cloud_Experiment_FR_REAL,001,40,
images/fcloud_D1.4_7.tif,1.4,0,,,,,,,,,,,,,0,106,106,24,,,,,,,,,,,None,None,,None,11.027,,,,,,,,,,,,,,,,,,2019_Apr_17_1659,59.189809882808504,Cloud_Experiment_FR_REAL,001,40,
images/fcloud80-20_D1.8_9.tif,1.8,2,,,,,,,,,,,,,0,107,107,138,,,,,,,,,,,2,space,2.0945588,4,1.251,,,,,,,,,,,,,,,,,,2019_Apr_17_1659,59.189809882808504,Cloud_Experiment_FR_REAL,001,40,
images/fcloud_D1.8_8.tif,1.8,0,,,,,,,,,,,,,0,108,108,41,,,,,,,,,,,None,None,,None,10.459,,,,,,,,,,,,,,,,,,2019_Apr_17_1659,59.189809882808504,Cloud_Experiment_FR_REAL,001,40,
images/fcloud65-35_D1.2_10.tif,1.2,1,,,,,,,,,,,,,0,109,109,67,,,,,,,,,,,2,space,1.4233222,4,1.018,,,,,,,,,,,,,,,,,,2019_Apr_17_1659,59.189809882808504,Cloud_Experiment_FR_REAL,001,40,
images/fcloud80-20_D1.3_9.tif,1.3,2,,,,,,,,,,,,,0,110,110,118,,,,,,,,,,,2,space,1.3943907,3,1.052,,,,,,,,,,,,,,,,,,2019_Apr_17_1659,59.189809882808504,Cloud_Experiment_FR_REAL,001,40,
images/fcloud65-35_D1.9_9.tif,1.9,1,,,,,,,,,,,,,0,111,111,94,,,,,,,,,,,1,space,1.7287088,2,1.184,,,,,,,,,,,,,,,,,,2019_Apr_17_1659,59.189809882808504,Cloud_Experiment_FR_REAL,001,40,
images/fcloud80-20_D1.9_8.tif,1.9,2,,,,,,,,,,,,,0,112,112,141,,,,,,,,,,,1,space,5.2592167,1,0.902,,,,,,,,,,,,,,,,,,2019_Apr_17_1659,59.189809882808504,Cloud_Experiment_FR_REAL,001,40,
images/fcloud80-20_D0.8_8.tif,0.8,2,,,,,,,,,,,,,0,113,113,97,,,,,,,,,,,2,space,4.9109671,3,1.435,,,,,,,,,,,,,,,,,,2019_Apr_17_1659,59.189809882808504,Cloud_Experiment_FR_REAL,001,40,
images/fcloud80-20_D1.9_10.tif,1.9,2,,,,,,,,,,,,,0,114,114,143,,,,,,,,,,,1,space,3.8469404,2,0.687,,,,,,,,,,,,,,,,,,2019_Apr_17_1659,59.189809882808504,Cloud_Experiment_FR_REAL,001,40,
images/fcloud_D1_9.tif,1.0,0,,,,,,,,,,,,,0,115,115,10,,,,,,,,,,,3,space,3.3281042,4,0.868,,,,,,,,,,,,,,,,,,2019_Apr_17_1659,59.189809882808504,Cloud_Experiment_FR_REAL,001,40,
images/fcloud80-20_D1_10.tif,1.0,2,,,,,,,,,,,,,0,116,116,107,,,,,,,,,,,1,space,3.377492,2,0.787,,,,,,,,,,,,,,,,,,2019_Apr_17_1659,59.189809882808504,Cloud_Experiment_FR_REAL,001,40,
images/fcloud80-20_D1.4_7.tif,1.4,2,,,,,,,,,,,,,0,117,117,120,,,,,,,,,,,3,space,1.7097838,3,1.617,,,,,,,,,,,,,,,,,,2019_Apr_17_1659,59.189809882808504,Cloud_Experiment_FR_REAL,001,40,
images/fcloud65-35_D1.8_10.tif,1.8,1,,,,,,,,,,,,,0,118,118,91,,,,,,,,,,,2,space,3.9226989,4,1.668,,,,,,,,,,,,,,,,,,2019_Apr_17_1659,59.189809882808504,Cloud_Experiment_FR_REAL,001,40,
images/fcloud80-20_D1.6_9.tif,1.6,2,,,,,,,,,,,,,0,119,119,130,,,,,,,,,,,1,space,1.7478144,3,0.884,,,,,,,,,,,,,,,,,,2019_Apr_17_1659,59.189809882808504,Cloud_Experiment_FR_REAL,001,40,
images/fcloud_D1.7_7.tif,1.7,0,,,,,,,,,,,,,0,120,120,36,,,,,,,,,,,1,space,4.6798058,2,3.001,,,,,,,,,,,,,,,,,,2019_Apr_17_1659,59.189809882808504,Cloud_Experiment_FR_REAL,001,40,
images/fcloud80-20_D1.9_9.tif,1.9,2,,,,,,,,,,,,,0,121,121,142,,,,,,,,,,,1,space,5.320493,1,1.335,,,,,,,,,,,,,,,,,,2019_Apr_17_1659,59.189809882808504,Cloud_Experiment_FR_REAL,001,40,
images/fcloud65-35_D0.8_10.tif,0.8,1,,,,,,,,,,,,,0,122,122,51,,,,,,,,,,,3,space,1.8775984,2,0.802,,,,,,,,,,,,,,,,,,2019_Apr_17_1659,59.189809882808504,Cloud_Experiment_FR_REAL,001,40,
images/fcloud65-35_D1_7.tif,1.0,1,,,,,,,,,,,,,0,123,123,56,,,,,,,,,,,2,space,2.1294676,3,1.169,,,,,,,,,,,,,,,,,,2019_Apr_17_1659,59.189809882808504,Cloud_Experiment_FR_REAL,001,40,
images/fcloud65-35_D0.9_9.tif,0.9,1,,,,,,,,,,,,,0,124,124,54,,,,,,,,,,,4,space,1.2908124,4,1.101,,,,,,,,,,,,,,,,,,2019_Apr_17_1659,59.189809882808504,Cloud_Experiment_FR_REAL,001,40,
images/fcloud65-35_D1.4_7.tif,1.4,1,,,,,,,,,,,,,0,125,125,72,,,,,,,,,,,1,space,3.0451233,2,0.718,,,,,,,,,,,,,,,,,,2019_Apr_17_1659,59.189809882808504,Cloud_Experiment_FR_REAL,001,40,
images/fcloud80-20_D1.5_9.tif,1.5,2,,,,,,,,,,,,,0,126,126,126,,,,,,,,,,,1,space,12.0374916,2,2.085,,,,,,,,,,,,,,,,,,2019_Apr_17_1659,59.189809882808504,Cloud_Experiment_FR_REAL,001,40,
images/fcloud65-35_D1.8_7.tif,1.8,1,,,,,,,,,,,,,0,127,127,88,,,,,,,,,,,3,None,,3,0.701,,,,,,,,,,,,,,,,,,2019_Apr_17_1659,59.189809882808504,Cloud_Experiment_FR_REAL,001,40,
images/fcloud80-20_D0.8_7.tif,0.8,2,,,,,,,,,,,,,0,128,128,96,,,,,,,,,,,5,space,5.3651289,1,4.815,,,,,,,,,,,,,,,,,,2019_Apr_17_1659,59.189809882808504,Cloud_Experiment_FR_REAL,001,40,
images/fcloud_D1.9_8.tif,1.9,0,,,,,,,,,,,,,0,129,129,45,,,,,,,,,,,3,space,5.9417823,3,0.884,,,,,,,,,,,,,,,,,,2019_Apr_17_1659,59.189809882808504,Cloud_Experiment_FR_REAL,001,40,
images/fcloud80-20_D1.3_10.tif,1.3,2,,,,,,,,,,,,,0,130,130,119,,,,,,,,,,,3,space,1.1477977,4,1.651,,,,,,,,,,,,,,,,,,2019_Apr_17_1659,59.189809882808504,Cloud_Experiment_FR_REAL,001,40,
images/fcloud80-20_D1.7_10.tif,1.7,2,,,,,,,,,,,,,0,131,131,135,,,,,,,,,,,1,space,7.8196096,3,1.418,,,,,,,,,,,,,,,,,,2019_Apr_17_1659,59.189809882808504,Cloud_Experiment_FR_REAL,001,40,
images/fcloud80-20_D1.2_7.tif,1.2,2,,,,,,,,,,,,,0,132,132,112,,,,,,,,,,,3,space,1.976871,2,1.219,,,,,,,,,,,,,,,,,,2019_Apr_17_1659,59.189809882808504,Cloud_Experiment_FR_REAL,001,40,
images/fcloud80-20_D1.4_9.tif,1.4,2,,,,,,,,,,,,,0,133,133,122,,,,,,,,,,,3,space,2.1329072,3,2.0,,,,,,,,,,,,,,,,,,2019_Apr_17_1659,59.189809882808504,Cloud_Experiment_FR_REAL,001,40,
images/fcloud80-20_D0.9_8.tif,0.9,2,,,,,,,,,,,,,0,134,134,101,,,,,,,,,,,2,space,1.5471315,5,1.884,,,,,,,,,,,,,,,,,,2019_Apr_17_1659,59.189809882808504,Cloud_Experiment_FR_REAL,001,40,
images/fcloud_D1.9_10.tif,1.9,0,,,,,,,,,,,,,0,135,135,47,,,,,,,,,,,None,None,,None,11.042,,,,,,,,,,,,,,,,,,2019_Apr_17_1659,59.189809882808504,Cloud_Experiment_FR_REAL,001,40,
images/fcloud65-35_D1.5_9.tif,1.5,1,,,,,,,,,,,,,0,136,136,78,,,,,,,,,,,2,space,2.1701183,4,1.017,,,,,,,,,,,,,,,,,,2019_Apr_17_1659,59.189809882808504,Cloud_Experiment_FR_REAL,001,40,
images/fcloud65-35_D1.5_10.tif,1.5,1,,,,,,,,,,,,,0,137,137,79,,,,,,,,,,,2,space,2.3601805,3,0.685,,,,,,,,,,,,,,,,,,2019_Apr_17_1659,59.189809882808504,Cloud_Experiment_FR_REAL,001,40,
images/fcloud_D1_8.tif,1.0,0,,,,,,,,,,,,,0,138,138,9,,,,,,,,,,,3,space,2.6773928,4,1.801,,,,,,,,,,,,,,,,,,2019_Apr_17_1659,59.189809882808504,Cloud_Experiment_FR_REAL,001,40,
images/fcloud65-35_D1.2_9.tif,1.2,1,,,,,,,,,,,,,0,139,139,66,,,,,,,,,,,1,space,4.6452684,3,0.802,,,,,,,,,,,,,,,,,,2019_Apr_17_1659,59.189809882808504,Cloud_Experiment_FR_REAL,001,40,
images/fcloud65-35_D0.8_9.tif,0.8,1,,,,,,,,,,,,,0,140,140,50,,,,,,,,,,,2,space,4.5420546,4,0.802,,,,,,,,,,,,,,,,,,2019_Apr_17_1659,59.189809882808504,Cloud_Experiment_FR_REAL,001,40,
images/fcloud80-20_D1.9_7.tif,1.9,2,,,,,,,,,,,,,0,141,141,140,,,,,,,,,,,1,None,,2,1.019,,,,,,,,,,,,,,,,,,2019_Apr_17_1659,59.189809882808504,Cloud_Experiment_FR_REAL,001,40,
images/fcloud65-35_D1.3_10.tif,1.3,1,,,,,,,,,,,,,0,142,142,71,,,,,,,,,,,3,space,1.2409436,4,1.402,,,,,,,,,,,,,,,,,,2019_Apr_17_1659,59.189809882808504,Cloud_Experiment_FR_REAL,001,40,
images/fcloud80-20_D1.6_7.tif,1.6,2,,,,,,,,,,,,,0,143,143,128,,,,,,,,,,,1,space,5.5424648,3,1.152,,,,,,,,,,,,,,,,,,2019_Apr_17_1659,59.189809882808504,Cloud_Experiment_FR_REAL,001,40,
,,,,,,,,,,,,,,,,,,,,,,,,,2,5.257,,,,,,,,,,,,,,,,,,,,,,,,,2019_Apr_17_1659,59.189809882808504,Cloud_Experiment_FR_REAL,001,40,
,,,,,,,,,,,,,,,,,,,,,,,,,,,,,,,,,,3,,,,,,,,,,,,,,,,,2019_Apr_17_1659,59.189809882808504,Cloud_Experiment_FR_REAL,001,40,
,,,,,,,,,,,,,,,,,,,,,,,,,,,,,,,,,,,1,,,,,,,,,,,,,,,,2019_Apr_17_1659,59.189809882808504,Cloud_Experiment_FR_REAL,001,40,
,,,,,,,,,,,,,,,,,,,,,,,,,,,,,,,,,,,,7,,,,,,,,,,,,,,,2019_Apr_17_1659,59.189809882808504,Cloud_Experiment_FR_REAL,001,40,
,,,,,,,,,,,,,,,,,,,,,,,,,,,,,,,,,,,,,1,,,,,,,,,,,,,,2019_Apr_17_1659,59.189809882808504,Cloud_Experiment_FR_REAL,001,40,
,,,,,,,,,,,,,,,,,,,,,,,,,,,,,,,,,,,,,,1,,,,,,,,,,,,,2019_Apr_17_1659,59.189809882808504,Cloud_Experiment_FR_REAL,001,40,
,,,,,,,,,,,,,,,,,,,,,,,,,,,,,,,,,,,,,,,1,,,,,,,,,,,,2019_Apr_17_1659,59.189809882808504,Cloud_Experiment_FR_REAL,001,40,
,,,,,,,,,,,,,,,,,,,,,,,,,,,,,,,,,,,,,,,,3,,,,,,,,,,,2019_Apr_17_1659,59.189809882808504,Cloud_Experiment_FR_REAL,001,40,
,,,,,,,,,,,,,,,,,,,,,,,,,,,,,,,,,,,,,,,,,7,,,,,,,,,,2019_Apr_17_1659,59.189809882808504,Cloud_Experiment_FR_REAL,001,40,
,,,,,,,,,,,,,,,,,,,,,,,,,,,,,,,,,,,,,,,,,,1,,,,,,,,,2019_Apr_17_1659,59.189809882808504,Cloud_Experiment_FR_REAL,001,40,
,,,,,,,,,,,,,,,,,,,,,,,,,,,,,,,,,,,,,,,,,,,7,,,,,,,,2019_Apr_17_1659,59.189809882808504,Cloud_Experiment_FR_REAL,001,40,
,,,,,,,,,,,,,,,,,,,,,,,,,,,,,,,,,,,,,,,,,,,,,,,,,,3,2019_Apr_17_1659,59.189809882808504,Cloud_Experiment_FR_REAL,001,40,
