ImageFile,FD,Contrast,trials_4.thisRepN,trials_4.thisTrialN,trials_4.thisN,trials_4.thisIndex,trials.thisRepN,trials.thisTrialN,trials.thisN,trials.thisIndex,trials_2.thisRepN,trials_2.thisTrialN,trials_2.thisN,trials_2.thisIndex,trials_3.thisRepN,trials_3.thisTrialN,trials_3.thisN,trials_3.thisIndex,end_instructions.keys,end_instructions.rt,key_resp_4.keys,key_resp_4.rt,key_resp_6.keys,key_resp_6.rt,Fatigue.response,Fatigue.rt,key_resp_5.keys,key_resp_5.rt,n_objets.response,reaction_time.keys,reaction_time.rt,vividness.response,vividness.rt,Flow01.response,Flow02.response,Flow03.response,Flow04.response,Flow05.response,Flow06.response,Flow07.response,Flow08.response,Flow09.response,Flow10.response,key_resp_2.keys,key_resp_2.rt,key_resp_8.keys,key_resp_8.rt,key_resp_3.keys,key_resp_3.rt,Redondance_question.response,date,frameRate,expName,session,participant,
,,,,,,,,,,,,,,,,,,,space,9.0680746,,,,,,,,,,,,,,,,,,,,,,,,,,,,,,,2019_Apr_17_1828,60.57676348009513,Cloud_Experiment_FR_REAL,001,41,
,,,,,,,,,,,,,,,,,,,,,space,35.9024476,,,,,,,,,,,,,,,,,,,,,,,,,,,,,2019_Apr_17_1828,60.57676348009513,Cloud_Experiment_FR_REAL,001,41,
,,,,,,,,,,,,,,,,,,,,,,,space,14.0727531,,,,,,,,,,,,,,,,,,,,,,,,,,,2019_Apr_17_1828,60.57676348009513,Cloud_Experiment_FR_REAL,001,41,
,,,,,,,,,,,,,,,,,,,,,,,,,8,15.486,,,,,,,,,,,,,,,,,,,,,,,,,2019_Apr_17_1828,60.57676348009513,Cloud_Experiment_FR_REAL,001,41,
,,,,,,,,,,,,,,,,,,,,,,,,,,,space,146.8076355,,,,,,,,,,,,,,,,,,,,,,,2019_Apr_17_1828,60.57676348009513,Cloud_Experiment_FR_REAL,001,41,
pratique/fcloud80-20_D1.5_30,1.5,2,0,0,0,8,,,,,,,,,,,,,,,,,,,,,,,1,space,5.826191,2,5.597,,,,,,,,,,,,,,,,,,2019_Apr_17_1828,60.57676348009513,Cloud_Experiment_FR_REAL,001,41,
pratique/fcloud_D1.4_30,1.4,0,0,1,1,1,,,,,,,,,,,,,,,,,,,,,,,2,space,4.5860189,3,4.333,,,,,,,,,,,,,,,,,,2019_Apr_17_1828,60.57676348009513,Cloud_Experiment_FR_REAL,001,41,
pratique/fcloud80-20_D1.8_30,1.8,2,0,2,2,4,,,,,,,,,,,,,,,,,,,,,,,1,None,,1,2.201,,,,,,,,,,,,,,,,,,2019_Apr_17_1828,60.57676348009513,Cloud_Experiment_FR_REAL,001,41,
pratique/fcloud80-20_D1_30,1.0,2,0,3,3,9,,,,,,,,,,,,,,,,,,,,,,,2,space,4.1705426,3,4.915,,,,,,,,,,,,,,,,,,2019_Apr_17_1828,60.57676348009513,Cloud_Experiment_FR_REAL,001,41,
pratique/fcloud_D0.8_30,0.8,0,0,4,4,0,,,,,,,,,,,,,,,,,,,,,,,None,None,,None,16.372,,,,,,,,,,,,,,,,,,2019_Apr_17_1828,60.57676348009513,Cloud_Experiment_FR_REAL,001,41,
pratique/fcloud_D1.6_28,1.6,0,0,5,5,5,,,,,,,,,,,,,,,,,,,,,,,1,None,,4,4.3,,,,,,,,,,,,,,,,,,2019_Apr_17_1828,60.57676348009513,Cloud_Experiment_FR_REAL,001,41,
pratique/fcloud65-35_D1.2_30,1.2,1,0,6,6,3,,,,,,,,,,,,,,,,,,,,,,,2,space,4.389403,2,3.6,,,,,,,,,,,,,,,,,,2019_Apr_17_1828,60.57676348009513,Cloud_Experiment_FR_REAL,001,41,
pratique/fcloud65-35_D1.3_30,1.3,1,0,7,7,6,,,,,,,,,,,,,,,,,,,,,,,1,space,6.1540191,1,2.084,,,,,,,,,,,,,,,,,,2019_Apr_17_1828,60.57676348009513,Cloud_Experiment_FR_REAL,001,41,
pratique/fcloud65-35_D1.9_29,1.9,1,0,8,8,7,,,,,,,,,,,,,,,,,,,,,,,None,None,,None,13.275,,,,,,,,,,,,,,,,,,2019_Apr_17_1828,60.57676348009513,Cloud_Experiment_FR_REAL,001,41,
pratique/fcloud65-35_D1.6_30,1.6,1,0,9,9,2,,,,,,,,,,,,,,,,,,,,,,,3,space,7.1222054,4,3.734,,,,,,,,,,,,,,,,,,2019_Apr_17_1828,60.57676348009513,Cloud_Experiment_FR_REAL,001,41,
,,,,,,,,,,,,,,,,,,,,,,,,,,,,,,,,,,3,,,,,,,,,,,,,,,,,2019_Apr_17_1828,60.57676348009513,Cloud_Experiment_FR_REAL,001,41,
,,,,,,,,,,,,,,,,,,,,,,,,,,,,,,,,,,,7,,,,,,,,,,,,,,,,2019_Apr_17_1828,60.57676348009513,Cloud_Experiment_FR_REAL,001,41,
,,,,,,,,,,,,,,,,,,,,,,,,,,,,,,,,,,,,7,,,,,,,,,,,,,,,2019_Apr_17_1828,60.57676348009513,Cloud_Experiment_FR_REAL,001,41,
,,,,,,,,,,,,,,,,,,,,,,,,,,,,,,,,,,,,,5,,,,,,,,,,,,,,2019_Apr_17_1828,60.57676348009513,Cloud_Experiment_FR_REAL,001,41,
,,,,,,,,,,,,,,,,,,,,,,,,,,,,,,,,,,,,,,5,,,,,,,,,,,,,2019_Apr_17_1828,60.57676348009513,Cloud_Experiment_FR_REAL,001,41,
,,,,,,,,,,,,,,,,,,,,,,,,,,,,,,,,,,,,,,,5,,,,,,,,,,,,2019_Apr_17_1828,60.57676348009513,Cloud_Experiment_FR_REAL,001,41,
,,,,,,,,,,,,,,,,,,,,,,,,,,,,,,,,,,,,,,,,4,,,,,,,,,,,2019_Apr_17_1828,60.57676348009513,Cloud_Experiment_FR_REAL,001,41,
,,,,,,,,,,,,,,,,,,,,,,,,,,,,,,,,,,,,,,,,,6,,,,,,,,,,2019_Apr_17_1828,60.57676348009513,Cloud_Experiment_FR_REAL,001,41,
,,,,,,,,,,,,,,,,,,,,,,,,,,,,,,,,,,,,,,,,,,3,,,,,,,,,2019_Apr_17_1828,60.57676348009513,Cloud_Experiment_FR_REAL,001,41,
,,,,,,,,,,,,,,,,,,,,,,,,,,,,,,,,,,,,,,,,,,,4,,,,,,,,2019_Apr_17_1828,60.57676348009513,Cloud_Experiment_FR_REAL,001,41,
,,,,,,,,,,,,,,,,,,,,,,,,,,,,,,,,,,,,,,,,,,,,space,1.0513837,,,,,,2019_Apr_17_1828,60.57676348009513,Cloud_Experiment_FR_REAL,001,41,
images/fcloud65-35_D1.8_1.tif,1.8,1,,,,,0,0,0,66,,,,,,,,,,,,,,,,,,,2,space,5.4451984,4,4.383,,,,,,,,,,,,,,,,,,2019_Apr_17_1828,60.57676348009513,Cloud_Experiment_FR_REAL,001,41,
images/fcloud65-35_D1.9_2.tif,1.9,1,,,,,0,1,1,70,,,,,,,,,,,,,,,,,,,2,space,5.7358204,2,4.218,,,,,,,,,,,,,,,,,,2019_Apr_17_1828,60.57676348009513,Cloud_Experiment_FR_REAL,001,41,
images/fcloud65-35_D1.7_3.tif,1.7,1,,,,,0,2,2,65,,,,,,,,,,,,,,,,,,,2,space,5.7223128,3,3.633,,,,,,,,,,,,,,,,,,2019_Apr_17_1828,60.57676348009513,Cloud_Experiment_FR_REAL,001,41,
images/fcloud_D1_3.tif,1.0,0,,,,,0,3,3,8,,,,,,,,,,,,,,,,,,,2,space,6.1724084,3,3.533,,,,,,,,,,,,,,,,,,2019_Apr_17_1828,60.57676348009513,Cloud_Experiment_FR_REAL,001,41,
images/fcloud80-20_D1.2_1.tif,1.2,2,,,,,0,4,4,84,,,,,,,,,,,,,,,,,,,1,space,7.3882137,1,1.702,,,,,,,,,,,,,,,,,,2019_Apr_17_1828,60.57676348009513,Cloud_Experiment_FR_REAL,001,41,
images/fcloud80-20_D1.1_3.tif,1.1,2,,,,,0,5,5,83,,,,,,,,,,,,,,,,,,,2,space,5.2564232,3,4.583,,,,,,,,,,,,,,,,,,2019_Apr_17_1828,60.57676348009513,Cloud_Experiment_FR_REAL,001,41,
images/fcloud_D0.8_1.tif,0.8,0,,,,,0,6,6,0,,,,,,,,,,,,,,,,,,,2,space,4.637274,3,3.3,,,,,,,,,,,,,,,,,,2019_Apr_17_1828,60.57676348009513,Cloud_Experiment_FR_REAL,001,41,
images/fcloud65-35_D1.1_2.tif,1.1,1,,,,,0,7,7,46,,,,,,,,,,,,,,,,,,,1,space,6.5939444,1,3.684,,,,,,,,,,,,,,,,,,2019_Apr_17_1828,60.57676348009513,Cloud_Experiment_FR_REAL,001,41,
images/fcloud_D1.8_3.tif,1.8,0,,,,,0,8,8,32,,,,,,,,,,,,,,,,,,,None,None,,None,13.575,,,,,,,,,,,,,,,,,,2019_Apr_17_1828,60.57676348009513,Cloud_Experiment_FR_REAL,001,41,
images/fcloud65-35_D0.9_1.tif,0.9,1,,,,,0,9,9,39,,,,,,,,,,,,,,,,,,,4,space,2.4979616,4,5.116,,,,,,,,,,,,,,,,,,2019_Apr_17_1828,60.57676348009513,Cloud_Experiment_FR_REAL,001,41,
images/fcloud_D1.6_3.tif,1.6,0,,,,,0,10,10,26,,,,,,,,,,,,,,,,,,,3,space,4.3380417,2,3.434,,,,,,,,,,,,,,,,,,2019_Apr_17_1828,60.57676348009513,Cloud_Experiment_FR_REAL,001,41,
images/fcloud80-20_D1.3_3.tif,1.3,2,,,,,0,11,11,89,,,,,,,,,,,,,,,,,,,2,space,7.629535,3,4.766,,,,,,,,,,,,,,,,,,2019_Apr_17_1828,60.57676348009513,Cloud_Experiment_FR_REAL,001,41,
images/fcloud80-20_D1.7_2.tif,1.7,2,,,,,0,12,12,100,,,,,,,,,,,,,,,,,,,1,space,4.3228128,1,1.501,,,,,,,,,,,,,,,,,,2019_Apr_17_1828,60.57676348009513,Cloud_Experiment_FR_REAL,001,41,
images/fcloud80-20_D1.8_3.tif,1.8,2,,,,,0,13,13,104,,,,,,,,,,,,,,,,,,,3,space,3.3785752,2,2.685,,,,,,,,,,,,,,,,,,2019_Apr_17_1828,60.57676348009513,Cloud_Experiment_FR_REAL,001,41,
images/fcloud80-20_D0.9_2.tif,0.9,2,,,,,0,14,14,76,,,,,,,,,,,,,,,,,,,2,space,2.0253218,5,3.833,,,,,,,,,,,,,,,,,,2019_Apr_17_1828,60.57676348009513,Cloud_Experiment_FR_REAL,001,41,
images/fcloud_D1_2.tif,1.0,0,,,,,0,15,15,7,,,,,,,,,,,,,,,,,,,3,space,2.8234017,3,5.432,,,,,,,,,,,,,,,,,,2019_Apr_17_1828,60.57676348009513,Cloud_Experiment_FR_REAL,001,41,
images/fcloud_D1.1_1.tif,1.1,0,,,,,0,16,16,9,,,,,,,,,,,,,,,,,,,2,space,4.1575944,4,3.05,,,,,,,,,,,,,,,,,,2019_Apr_17_1828,60.57676348009513,Cloud_Experiment_FR_REAL,001,41,
images/fcloud80-20_D1.5_2.tif,1.5,2,,,,,0,17,17,94,,,,,,,,,,,,,,,,,,,1,space,6.1553147,3,1.82,,,,,,,,,,,,,,,,,,2019_Apr_17_1828,60.57676348009513,Cloud_Experiment_FR_REAL,001,41,
images/fcloud65-35_D1.8_3.tif,1.8,1,,,,,0,18,18,68,,,,,,,,,,,,,,,,,,,None,None,,None,14.022,,,,,,,,,,,,,,,,,,2019_Apr_17_1828,60.57676348009513,Cloud_Experiment_FR_REAL,001,41,
images/fcloud65-35_D1_2.tif,1.0,1,,,,,0,19,19,43,,,,,,,,,,,,,,,,,,,1,space,4.2607104,3,2.418,,,,,,,,,,,,,,,,,,2019_Apr_17_1828,60.57676348009513,Cloud_Experiment_FR_REAL,001,41,
images/fcloud65-35_D0.8_2.tif,0.8,1,,,,,0,20,20,37,,,,,,,,,,,,,,,,,,,1,space,4.7397125,1,1.436,,,,,,,,,,,,,,,,,,2019_Apr_17_1828,60.57676348009513,Cloud_Experiment_FR_REAL,001,41,
images/fcloud_D1.7_2.tif,1.7,0,,,,,0,21,21,28,,,,,,,,,,,,,,,,,,,1,space,5.4056493,1,1.734,,,,,,,,,,,,,,,,,,2019_Apr_17_1828,60.57676348009513,Cloud_Experiment_FR_REAL,001,41,
images/fcloud65-35_D1.3_1.tif,1.3,1,,,,,0,22,22,51,,,,,,,,,,,,,,,,,,,1,space,5.7868948,5,1.767,,,,,,,,,,,,,,,,,,2019_Apr_17_1828,60.57676348009513,Cloud_Experiment_FR_REAL,001,41,
images/fcloud65-35_D1.1_1.tif,1.1,1,,,,,0,23,23,45,,,,,,,,,,,,,,,,,,,1,space,6.0860008,5,2.686,,,,,,,,,,,,,,,,,,2019_Apr_17_1828,60.57676348009513,Cloud_Experiment_FR_REAL,001,41,
images/fcloud80-20_D1.6_1.tif,1.6,2,,,,,0,24,24,96,,,,,,,,,,,,,,,,,,,2,space,5.8514055,3,3.9,,,,,,,,,,,,,,,,,,2019_Apr_17_1828,60.57676348009513,Cloud_Experiment_FR_REAL,001,41,
images/fcloud_D1.1_3.tif,1.1,0,,,,,0,25,25,11,,,,,,,,,,,,,,,,,,,1,space,3.74478,5,1.085,,,,,,,,,,,,,,,,,,2019_Apr_17_1828,60.57676348009513,Cloud_Experiment_FR_REAL,001,41,
images/fcloud_D1_1.tif,1.0,0,,,,,0,26,26,6,,,,,,,,,,,,,,,,,,,2,space,6.3799079,4,1.72,,,,,,,,,,,,,,,,,,2019_Apr_17_1828,60.57676348009513,Cloud_Experiment_FR_REAL,001,41,
images/fcloud65-35_D1.2_1.tif,1.2,1,,,,,0,27,27,48,,,,,,,,,,,,,,,,,,,2,space,3.2732205,3,2.118,,,,,,,,,,,,,,,,,,2019_Apr_17_1828,60.57676348009513,Cloud_Experiment_FR_REAL,001,41,
images/fcloud_D1.8_2.tif,1.8,0,,,,,0,28,28,31,,,,,,,,,,,,,,,,,,,1,space,2.6088009,4,3.284,,,,,,,,,,,,,,,,,,2019_Apr_17_1828,60.57676348009513,Cloud_Experiment_FR_REAL,001,41,
images/fcloud80-20_D1.5_1.tif,1.5,2,,,,,0,29,29,93,,,,,,,,,,,,,,,,,,,None,None,,None,12.875,,,,,,,,,,,,,,,,,,2019_Apr_17_1828,60.57676348009513,Cloud_Experiment_FR_REAL,001,41,
images/fcloud80-20_D1.4_2.tif,1.4,2,,,,,0,30,30,91,,,,,,,,,,,,,,,,,,,1,space,4.3972197,5,2.268,,,,,,,,,,,,,,,,,,2019_Apr_17_1828,60.57676348009513,Cloud_Experiment_FR_REAL,001,41,
images/fcloud_D0.9_1.tif,0.9,0,,,,,0,31,31,3,,,,,,,,,,,,,,,,,,,None,None,,None,12.074,,,,,,,,,,,,,,,,,,2019_Apr_17_1828,60.57676348009513,Cloud_Experiment_FR_REAL,001,41,
images/fcloud80-20_D1.6_3.tif,1.6,2,,,,,0,32,32,98,,,,,,,,,,,,,,,,,,,2,space,4.5024107,2,2.052,,,,,,,,,,,,,,,,,,2019_Apr_17_1828,60.57676348009513,Cloud_Experiment_FR_REAL,001,41,
images/fcloud65-35_D0.9_2.tif,0.9,1,,,,,0,33,33,40,,,,,,,,,,,,,,,,,,,3,space,2.7386073,4,3.234,,,,,,,,,,,,,,,,,,2019_Apr_17_1828,60.57676348009513,Cloud_Experiment_FR_REAL,001,41,
images/fcloud80-20_D1.4_1.tif,1.4,2,,,,,0,34,34,90,,,,,,,,,,,,,,,,,,,None,None,,None,13.191,,,,,,,,,,,,,,,,,,2019_Apr_17_1828,60.57676348009513,Cloud_Experiment_FR_REAL,001,41,
images/fcloud65-35_D1.2_3.tif,1.2,1,,,,,0,35,35,50,,,,,,,,,,,,,,,,,,,None,None,,None,23.4,,,,,,,,,,,,,,,,,,2019_Apr_17_1828,60.57676348009513,Cloud_Experiment_FR_REAL,001,41,
images/fcloud_D1.3_3.tif,1.3,0,,,,,0,36,36,17,,,,,,,,,,,,,,,,,,,2,space,5.9057916,3,4.465,,,,,,,,,,,,,,,,,,2019_Apr_17_1828,60.57676348009513,Cloud_Experiment_FR_REAL,001,41,
images/fcloud65-35_D1.7_1.tif,1.7,1,,,,,0,37,37,63,,,,,,,,,,,,,,,,,,,2,space,3.4064962,1,3.349,,,,,,,,,,,,,,,,,,2019_Apr_17_1828,60.57676348009513,Cloud_Experiment_FR_REAL,001,41,
images/fcloud_D1.5_1.tif,1.5,0,,,,,0,38,38,21,,,,,,,,,,,,,,,,,,,1,space,4.3137757,1,1.218,,,,,,,,,,,,,,,,,,2019_Apr_17_1828,60.57676348009513,Cloud_Experiment_FR_REAL,001,41,
images/fcloud80-20_D1.7_1.tif,1.7,2,,,,,0,39,39,99,,,,,,,,,,,,,,,,,,,2,None,,3,2.369,,,,,,,,,,,,,,,,,,2019_Apr_17_1828,60.57676348009513,Cloud_Experiment_FR_REAL,001,41,
images/fcloud65-35_D1.7_2.tif,1.7,1,,,,,0,40,40,64,,,,,,,,,,,,,,,,,,,3,space,3.305034,4,1.337,,,,,,,,,,,,,,,,,,2019_Apr_17_1828,60.57676348009513,Cloud_Experiment_FR_REAL,001,41,
images/fcloud80-20_D0.8_2.tif,0.8,2,,,,,0,41,41,73,,,,,,,,,,,,,,,,,,,1,space,3.4902212,5,1.435,,,,,,,,,,,,,,,,,,2019_Apr_17_1828,60.57676348009513,Cloud_Experiment_FR_REAL,001,41,
images/fcloud65-35_D1.1_3.tif,1.1,1,,,,,0,42,42,47,,,,,,,,,,,,,,,,,,,2,space,3.3540271,3,2.383,,,,,,,,,,,,,,,,,,2019_Apr_17_1828,60.57676348009513,Cloud_Experiment_FR_REAL,001,41,
images/fcloud65-35_D1.9_3.tif,1.9,1,,,,,0,43,43,71,,,,,,,,,,,,,,,,,,,1,space,7.1534941,1,1.352,,,,,,,,,,,,,,,,,,2019_Apr_17_1828,60.57676348009513,Cloud_Experiment_FR_REAL,001,41,
images/fcloud65-35_D1.6_1.tif,1.6,1,,,,,0,44,44,60,,,,,,,,,,,,,,,,,,,1,None,,1,1.636,,,,,,,,,,,,,,,,,,2019_Apr_17_1828,60.57676348009513,Cloud_Experiment_FR_REAL,001,41,
images/fcloud65-35_D1_3.tif,1.0,1,,,,,0,45,45,44,,,,,,,,,,,,,,,,,,,2,space,2.9096746,3,1.601,,,,,,,,,,,,,,,,,,2019_Apr_17_1828,60.57676348009513,Cloud_Experiment_FR_REAL,001,41,
images/fcloud80-20_D0.9_3.tif,0.9,2,,,,,0,46,46,77,,,,,,,,,,,,,,,,,,,3,space,1.5021521,4,2.952,,,,,,,,,,,,,,,,,,2019_Apr_17_1828,60.57676348009513,Cloud_Experiment_FR_REAL,001,41,
images/fcloud_D0.8_2.tif,0.8,0,,,,,0,47,47,1,,,,,,,,,,,,,,,,,,,2,space,6.1505329,5,1.284,,,,,,,,,,,,,,,,,,2019_Apr_17_1828,60.57676348009513,Cloud_Experiment_FR_REAL,001,41,
images/fcloud_D0.9_3.tif,0.9,0,,,,,0,48,48,5,,,,,,,,,,,,,,,,,,,2,space,3.7101538,4,1.352,,,,,,,,,,,,,,,,,,2019_Apr_17_1828,60.57676348009513,Cloud_Experiment_FR_REAL,001,41,
images/fcloud_D1.4_2.tif,1.4,0,,,,,0,49,49,19,,,,,,,,,,,,,,,,,,,1,space,7.5201244,2,2.485,,,,,,,,,,,,,,,,,,2019_Apr_17_1828,60.57676348009513,Cloud_Experiment_FR_REAL,001,41,
images/fcloud80-20_D0.8_1.tif,0.8,2,,,,,0,50,50,72,,,,,,,,,,,,,,,,,,,2,space,7.3124226,1,4.066,,,,,,,,,,,,,,,,,,2019_Apr_17_1828,60.57676348009513,Cloud_Experiment_FR_REAL,001,41,
images/fcloud80-20_D1.9_3.tif,1.9,2,,,,,0,51,51,107,,,,,,,,,,,,,,,,,,,None,None,,None,14.572,,,,,,,,,,,,,,,,,,2019_Apr_17_1828,60.57676348009513,Cloud_Experiment_FR_REAL,001,41,
images/fcloud65-35_D1.5_3.tif,1.5,1,,,,,0,52,52,59,,,,,,,,,,,,,,,,,,,2,space,4.0271876,3,2.617,,,,,,,,,,,,,,,,,,2019_Apr_17_1828,60.57676348009513,Cloud_Experiment_FR_REAL,001,41,
images/fcloud65-35_D1_1.tif,1.0,1,,,,,0,53,53,42,,,,,,,,,,,,,,,,,,,1,space,3.720315,4,1.186,,,,,,,,,,,,,,,,,,2019_Apr_17_1828,60.57676348009513,Cloud_Experiment_FR_REAL,001,41,
images/fcloud65-35_D0.8_3.tif,0.8,1,,,,,0,54,54,38,,,,,,,,,,,,,,,,,,,1,None,,1,2.686,,,,,,,,,,,,,,,,,,2019_Apr_17_1828,60.57676348009513,Cloud_Experiment_FR_REAL,001,41,
images/fcloud_D1.2_1.tif,1.2,0,,,,,0,55,55,12,,,,,,,,,,,,,,,,,,,2,space,4.4547373,3,1.5,,,,,,,,,,,,,,,,,,2019_Apr_17_1828,60.57676348009513,Cloud_Experiment_FR_REAL,001,41,
images/fcloud_D0.9_2.tif,0.9,0,,,,,0,56,56,4,,,,,,,,,,,,,,,,,,,3,space,4.6881119,3,1.65,,,,,,,,,,,,,,,,,,2019_Apr_17_1828,60.57676348009513,Cloud_Experiment_FR_REAL,001,41,
images/fcloud_D1.4_3.tif,1.4,0,,,,,0,57,57,20,,,,,,,,,,,,,,,,,,,2,space,4.7774115,3,1.219,,,,,,,,,,,,,,,,,,2019_Apr_17_1828,60.57676348009513,Cloud_Experiment_FR_REAL,001,41,
images/fcloud_D1.5_3.tif,1.5,0,,,,,0,58,58,23,,,,,,,,,,,,,,,,,,,2,space,3.8219195,5,1.453,,,,,,,,,,,,,,,,,,2019_Apr_17_1828,60.57676348009513,Cloud_Experiment_FR_REAL,001,41,
images/fcloud_D1.6_1.tif,1.6,0,,,,,0,59,59,24,,,,,,,,,,,,,,,,,,,None,None,,None,12.807,,,,,,,,,,,,,,,,,,2019_Apr_17_1828,60.57676348009513,Cloud_Experiment_FR_REAL,001,41,
images/fcloud80-20_D1.7_3.tif,1.7,2,,,,,0,60,60,101,,,,,,,,,,,,,,,,,,,3,space,5.3473859,3,2.118,,,,,,,,,,,,,,,,,,2019_Apr_17_1828,60.57676348009513,Cloud_Experiment_FR_REAL,001,41,
images/fcloud80-20_D1_1.tif,1.0,2,,,,,0,61,61,78,,,,,,,,,,,,,,,,,,,None,None,,None,11.857,,,,,,,,,,,,,,,,,,2019_Apr_17_1828,60.57676348009513,Cloud_Experiment_FR_REAL,001,41,
images/fcloud80-20_D1.4_3.tif,1.4,2,,,,,0,62,62,92,,,,,,,,,,,,,,,,,,,2,space,3.992788,3,2.387,,,,,,,,,,,,,,,,,,2019_Apr_17_1828,60.57676348009513,Cloud_Experiment_FR_REAL,001,41,
images/fcloud65-35_D1.3_2.tif,1.3,1,,,,,0,63,63,52,,,,,,,,,,,,,,,,,,,1,space,4.9214135,2,1.871,,,,,,,,,,,,,,,,,,2019_Apr_17_1828,60.57676348009513,Cloud_Experiment_FR_REAL,001,41,
images/fcloud65-35_D1.3_3.tif,1.3,1,,,,,0,64,64,53,,,,,,,,,,,,,,,,,,,2,space,4.8377024,3,2.435,,,,,,,,,,,,,,,,,,2019_Apr_17_1828,60.57676348009513,Cloud_Experiment_FR_REAL,001,41,
images/fcloud65-35_D1.4_3.tif,1.4,1,,,,,0,65,65,56,,,,,,,,,,,,,,,,,,,1,space,7.6920957,2,1.218,,,,,,,,,,,,,,,,,,2019_Apr_17_1828,60.57676348009513,Cloud_Experiment_FR_REAL,001,41,
images/fcloud65-35_D1.2_2.tif,1.2,1,,,,,0,66,66,49,,,,,,,,,,,,,,,,,,,4,space,6.8309017,4,3.317,,,,,,,,,,,,,,,,,,2019_Apr_17_1828,60.57676348009513,Cloud_Experiment_FR_REAL,001,41,
images/fcloud65-35_D1.4_2.tif,1.4,1,,,,,0,67,67,55,,,,,,,,,,,,,,,,,,,4,space,2.1635679,4,2.1,,,,,,,,,,,,,,,,,,2019_Apr_17_1828,60.57676348009513,Cloud_Experiment_FR_REAL,001,41,
images/fcloud80-20_D1.2_3.tif,1.2,2,,,,,0,68,68,86,,,,,,,,,,,,,,,,,,,1,space,5.9350824,1,1.618,,,,,,,,,,,,,,,,,,2019_Apr_17_1828,60.57676348009513,Cloud_Experiment_FR_REAL,001,41,
images/fcloud65-35_D1.5_2.tif,1.5,1,,,,,0,69,69,58,,,,,,,,,,,,,,,,,,,2,space,4.4210354,4,1.502,,,,,,,,,,,,,,,,,,2019_Apr_17_1828,60.57676348009513,Cloud_Experiment_FR_REAL,001,41,
images/fcloud_D0.8_3.tif,0.8,0,,,,,0,70,70,2,,,,,,,,,,,,,,,,,,,4,space,1.5253771,3,2.786,,,,,,,,,,,,,,,,,,2019_Apr_17_1828,60.57676348009513,Cloud_Experiment_FR_REAL,001,41,
images/fcloud_D1.3_2.tif,1.3,0,,,,,0,71,71,16,,,,,,,,,,,,,,,,,,,1,space,5.3889633,4,1.951,,,,,,,,,,,,,,,,,,2019_Apr_17_1828,60.57676348009513,Cloud_Experiment_FR_REAL,001,41,
images/fcloud80-20_D1.3_2.tif,1.3,2,,,,,0,72,72,88,,,,,,,,,,,,,,,,,,,2,space,2.985334,3,1.87,,,,,,,,,,,,,,,,,,2019_Apr_17_1828,60.57676348009513,Cloud_Experiment_FR_REAL,001,41,
images/fcloud80-20_D1.3_1.tif,1.3,2,,,,,0,73,73,87,,,,,,,,,,,,,,,,,,,1,space,2.2747718,5,1.186,,,,,,,,,,,,,,,,,,2019_Apr_17_1828,60.57676348009513,Cloud_Experiment_FR_REAL,001,41,
images/fcloud65-35_D1.6_2.tif,1.6,1,,,,,0,74,74,61,,,,,,,,,,,,,,,,,,,1,space,3.9048797,1,2.053,,,,,,,,,,,,,,,,,,2019_Apr_17_1828,60.57676348009513,Cloud_Experiment_FR_REAL,001,41,
images/fcloud65-35_D0.9_3.tif,0.9,1,,,,,0,75,75,41,,,,,,,,,,,,,,,,,,,1,space,5.65247,4,5.881,,,,,,,,,,,,,,,,,,2019_Apr_17_1828,60.57676348009513,Cloud_Experiment_FR_REAL,001,41,
images/fcloud80-20_D1.9_1.tif,1.9,2,,,,,0,76,76,105,,,,,,,,,,,,,,,,,,,None,None,,None,15.656,,,,,,,,,,,,,,,,,,2019_Apr_17_1828,60.57676348009513,Cloud_Experiment_FR_REAL,001,41,
images/fcloud_D1.4_1.tif,1.4,0,,,,,0,77,77,18,,,,,,,,,,,,,,,,,,,4,space,2.1501451,5,1.985,,,,,,,,,,,,,,,,,,2019_Apr_17_1828,60.57676348009513,Cloud_Experiment_FR_REAL,001,41,
images/fcloud80-20_D1.6_2.tif,1.6,2,,,,,0,78,78,97,,,,,,,,,,,,,,,,,,,2,space,3.2032543,1,2.334,,,,,,,,,,,,,,,,,,2019_Apr_17_1828,60.57676348009513,Cloud_Experiment_FR_REAL,001,41,
images/fcloud65-35_D1.6_3.tif,1.6,1,,,,,0,79,79,62,,,,,,,,,,,,,,,,,,,2,space,2.0392027,5,1.984,,,,,,,,,,,,,,,,,,2019_Apr_17_1828,60.57676348009513,Cloud_Experiment_FR_REAL,001,41,
images/fcloud_D1.3_1.tif,1.3,0,,,,,0,80,80,15,,,,,,,,,,,,,,,,,,,2,space,3.5424729,2,2.002,,,,,,,,,,,,,,,,,,2019_Apr_17_1828,60.57676348009513,Cloud_Experiment_FR_REAL,001,41,
images/fcloud_D1.7_1.tif,1.7,0,,,,,0,81,81,27,,,,,,,,,,,,,,,,,,,2,space,4.4406516,3,3.65,,,,,,,,,,,,,,,,,,2019_Apr_17_1828,60.57676348009513,Cloud_Experiment_FR_REAL,001,41,
images/fcloud_D1.5_2.tif,1.5,0,,,,,0,82,82,22,,,,,,,,,,,,,,,,,,,None,None,,None,13.491,,,,,,,,,,,,,,,,,,2019_Apr_17_1828,60.57676348009513,Cloud_Experiment_FR_REAL,001,41,
images/fcloud80-20_D0.9_1.tif,0.9,2,,,,,0,83,83,75,,,,,,,,,,,,,,,,,,,2,space,3.3748327,5,2.236,,,,,,,,,,,,,,,,,,2019_Apr_17_1828,60.57676348009513,Cloud_Experiment_FR_REAL,001,41,
images/fcloud_D1.6_2.tif,1.6,0,,,,,0,84,84,25,,,,,,,,,,,,,,,,,,,4,space,1.8051749,5,1.186,,,,,,,,,,,,,,,,,,2019_Apr_17_1828,60.57676348009513,Cloud_Experiment_FR_REAL,001,41,
images/fcloud_D1.2_3.tif,1.2,0,,,,,0,85,85,14,,,,,,,,,,,,,,,,,,,3,space,2.8421793,4,1.485,,,,,,,,,,,,,,,,,,2019_Apr_17_1828,60.57676348009513,Cloud_Experiment_FR_REAL,001,41,
images/fcloud65-35_D1.9_1.tif,1.9,1,,,,,0,86,86,69,,,,,,,,,,,,,,,,,,,1,space,7.0569795,2,1.801,,,,,,,,,,,,,,,,,,2019_Apr_17_1828,60.57676348009513,Cloud_Experiment_FR_REAL,001,41,
images/fcloud65-35_D1.4_1.tif,1.4,1,,,,,0,87,87,54,,,,,,,,,,,,,,,,,,,1,space,7.8051796,1,2.617,,,,,,,,,,,,,,,,,,2019_Apr_17_1828,60.57676348009513,Cloud_Experiment_FR_REAL,001,41,
images/fcloud_D1.7_3.tif,1.7,0,,,,,0,88,88,29,,,,,,,,,,,,,,,,,,,1,space,7.4367678,1,1.768,,,,,,,,,,,,,,,,,,2019_Apr_17_1828,60.57676348009513,Cloud_Experiment_FR_REAL,001,41,
images/fcloud80-20_D1.5_3.tif,1.5,2,,,,,0,89,89,95,,,,,,,,,,,,,,,,,,,3,None,,1,1.551,,,,,,,,,,,,,,,,,,2019_Apr_17_1828,60.57676348009513,Cloud_Experiment_FR_REAL,001,41,
images/fcloud80-20_D1.8_1.tif,1.8,2,,,,,0,90,90,102,,,,,,,,,,,,,,,,,,,4,space,2.9578718,5,3.016,,,,,,,,,,,,,,,,,,2019_Apr_17_1828,60.57676348009513,Cloud_Experiment_FR_REAL,001,41,
images/fcloud_D1.9_1.tif,1.9,0,,,,,0,91,91,33,,,,,,,,,,,,,,,,,,,2,space,2.9272405,3,1.402,,,,,,,,,,,,,,,,,,2019_Apr_17_1828,60.57676348009513,Cloud_Experiment_FR_REAL,001,41,
images/fcloud_D1.8_1.tif,1.8,0,,,,,0,92,92,30,,,,,,,,,,,,,,,,,,,2,space,3.1743302,4,2.301,,,,,,,,,,,,,,,,,,2019_Apr_17_1828,60.57676348009513,Cloud_Experiment_FR_REAL,001,41,
images/fcloud65-35_D1.8_2.tif,1.8,1,,,,,0,93,93,67,,,,,,,,,,,,,,,,,,,2,space,3.8559443,2,2.684,,,,,,,,,,,,,,,,,,2019_Apr_17_1828,60.57676348009513,Cloud_Experiment_FR_REAL,001,41,
images/fcloud_D1.9_2.tif,1.9,0,,,,,0,94,94,34,,,,,,,,,,,,,,,,,,,None,None,,None,11.61,,,,,,,,,,,,,,,,,,2019_Apr_17_1828,60.57676348009513,Cloud_Experiment_FR_REAL,001,41,
images/fcloud65-35_D1.5_1.tif,1.5,1,,,,,0,95,95,57,,,,,,,,,,,,,,,,,,,2,space,2.9625941,4,2.301,,,,,,,,,,,,,,,,,,2019_Apr_17_1828,60.57676348009513,Cloud_Experiment_FR_REAL,001,41,
images/fcloud_D1.1_2.tif,1.1,0,,,,,0,96,96,10,,,,,,,,,,,,,,,,,,,2,space,3.3405387,5,2.168,,,,,,,,,,,,,,,,,,2019_Apr_17_1828,60.57676348009513,Cloud_Experiment_FR_REAL,001,41,
images/fcloud_D1.2_2.tif,1.2,0,,,,,0,97,97,13,,,,,,,,,,,,,,,,,,,3,space,4.0569833,4,1.901,,,,,,,,,,,,,,,,,,2019_Apr_17_1828,60.57676348009513,Cloud_Experiment_FR_REAL,001,41,
images/fcloud65-35_D0.8_1.tif,0.8,1,,,,,0,98,98,36,,,,,,,,,,,,,,,,,,,1,space,6.9905122,2,2.252,,,,,,,,,,,,,,,,,,2019_Apr_17_1828,60.57676348009513,Cloud_Experiment_FR_REAL,001,41,
images/fcloud80-20_D1.8_2.tif,1.8,2,,,,,0,99,99,103,,,,,,,,,,,,,,,,,,,2,space,2.6371666,4,1.585,,,,,,,,,,,,,,,,,,2019_Apr_17_1828,60.57676348009513,Cloud_Experiment_FR_REAL,001,41,
images/fcloud_D1.9_3.tif,1.9,0,,,,,0,100,100,35,,,,,,,,,,,,,,,,,,,None,None,,None,11.125,,,,,,,,,,,,,,,,,,2019_Apr_17_1828,60.57676348009513,Cloud_Experiment_FR_REAL,001,41,
images/fcloud80-20_D1_2.tif,1.0,2,,,,,0,101,101,79,,,,,,,,,,,,,,,,,,,None,None,,None,20.735,,,,,,,,,,,,,,,,,,2019_Apr_17_1828,60.57676348009513,Cloud_Experiment_FR_REAL,001,41,
images/fcloud80-20_D1.2_2.tif,1.2,2,,,,,0,102,102,85,,,,,,,,,,,,,,,,,,,2,space,4.3588535,3,1.302,,,,,,,,,,,,,,,,,,2019_Apr_17_1828,60.57676348009513,Cloud_Experiment_FR_REAL,001,41,
images/fcloud80-20_D1_3.tif,1.0,2,,,,,0,103,103,80,,,,,,,,,,,,,,,,,,,2,space,6.0882682,1,1.419,,,,,,,,,,,,,,,,,,2019_Apr_17_1828,60.57676348009513,Cloud_Experiment_FR_REAL,001,41,
images/fcloud80-20_D0.8_3.tif,0.8,2,,,,,0,104,104,74,,,,,,,,,,,,,,,,,,,None,None,,None,11.092,,,,,,,,,,,,,,,,,,2019_Apr_17_1828,60.57676348009513,Cloud_Experiment_FR_REAL,001,41,
images/fcloud80-20_D1.9_2.tif,1.9,2,,,,,0,105,105,106,,,,,,,,,,,,,,,,,,,2,space,3.3064988,4,1.303,,,,,,,,,,,,,,,,,,2019_Apr_17_1828,60.57676348009513,Cloud_Experiment_FR_REAL,001,41,
images/fcloud80-20_D1.1_2.tif,1.1,2,,,,,0,106,106,82,,,,,,,,,,,,,,,,,,,None,None,,None,10.626,,,,,,,,,,,,,,,,,,2019_Apr_17_1828,60.57676348009513,Cloud_Experiment_FR_REAL,001,41,
images/fcloud80-20_D1.1_1.tif,1.1,2,,,,,0,107,107,81,,,,,,,,,,,,,,,,,,,2,space,4.6786141,3,5.63,,,,,,,,,,,,,,,,,,2019_Apr_17_1828,60.57676348009513,Cloud_Experiment_FR_REAL,001,41,
,,,,,,,,,,,,,,,,,,,,,,,,,,,,,,,,,,,,,,,,,,,,,,space,3.2000121,,,,2019_Apr_17_1828,60.57676348009513,Cloud_Experiment_FR_REAL,001,41,
,,,,,,,,,,,,,,,,,,,,,,,,,7,19.627,,,,,,,,,,,,,,,,,,,,,,,,,2019_Apr_17_1828,60.57676348009513,Cloud_Experiment_FR_REAL,001,41,
,,,,,,,,,,,,,,,,,,,,,,,,,,,,,,,,,,3,,,,,,,,,,,,,,,,,2019_Apr_17_1828,60.57676348009513,Cloud_Experiment_FR_REAL,001,41,
,,,,,,,,,,,,,,,,,,,,,,,,,,,,,,,,,,,6,,,,,,,,,,,,,,,,2019_Apr_17_1828,60.57676348009513,Cloud_Experiment_FR_REAL,001,41,
,,,,,,,,,,,,,,,,,,,,,,,,,,,,,,,,,,,,7,,,,,,,,,,,,,,,2019_Apr_17_1828,60.57676348009513,Cloud_Experiment_FR_REAL,001,41,
,,,,,,,,,,,,,,,,,,,,,,,,,,,,,,,,,,,,,6,,,,,,,,,,,,,,2019_Apr_17_1828,60.57676348009513,Cloud_Experiment_FR_REAL,001,41,
,,,,,,,,,,,,,,,,,,,,,,,,,,,,,,,,,,,,,,7,,,,,,,,,,,,,2019_Apr_17_1828,60.57676348009513,Cloud_Experiment_FR_REAL,001,41,
,,,,,,,,,,,,,,,,,,,,,,,,,,,,,,,,,,,,,,,7,,,,,,,,,,,,2019_Apr_17_1828,60.57676348009513,Cloud_Experiment_FR_REAL,001,41,
,,,,,,,,,,,,,,,,,,,,,,,,,,,,,,,,,,,,,,,,6,,,,,,,,,,,2019_Apr_17_1828,60.57676348009513,Cloud_Experiment_FR_REAL,001,41,
,,,,,,,,,,,,,,,,,,,,,,,,,,,,,,,,,,,,,,,,,7,,,,,,,,,,2019_Apr_17_1828,60.57676348009513,Cloud_Experiment_FR_REAL,001,41,
,,,,,,,,,,,,,,,,,,,,,,,,,,,,,,,,,,,,,,,,,,7,,,,,,,,,2019_Apr_17_1828,60.57676348009513,Cloud_Experiment_FR_REAL,001,41,
,,,,,,,,,,,,,,,,,,,,,,,,,,,,,,,,,,,,,,,,,,,3,,,,,,,,2019_Apr_17_1828,60.57676348009513,Cloud_Experiment_FR_REAL,001,41,
,,,,,,,,,,,,,,,,,,,,,,,,,,,,,,,,,,,,,,,,,,,,,,,,space,55.2707948,,2019_Apr_17_1828,60.57676348009513,Cloud_Experiment_FR_REAL,001,41,
images/fcloud65-35_D1.5_6.tif,1.5,1,,,,,,,,,0,0,0,59,,,,,,,,,,,,,,,3,space,0.145494499997,2,1.052,,,,,,,,,,,,,,,,,,2019_Apr_17_1828,60.57676348009513,Cloud_Experiment_FR_REAL,001,41,
images/fcloud65-35_D1.5_5.tif,1.5,1,,,,,,,,,0,1,1,58,,,,,,,,,,,,,,,3,space,5.0111643,2,1.303,,,,,,,,,,,,,,,,,,2019_Apr_17_1828,60.57676348009513,Cloud_Experiment_FR_REAL,001,41,
images/fcloud80-20_D1.3_5.tif,1.3,2,,,,,,,,,0,2,2,88,,,,,,,,,,,,,,,2,space,6.4161331,2,2.884,,,,,,,,,,,,,,,,,,2019_Apr_17_1828,60.57676348009513,Cloud_Experiment_FR_REAL,001,41,
images/fcloud80-20_D0.9_6.tif,0.9,2,,,,,,,,,0,3,3,77,,,,,,,,,,,,,,,3,space,2.0248093,5,3.384,,,,,,,,,,,,,,,,,,2019_Apr_17_1828,60.57676348009513,Cloud_Experiment_FR_REAL,001,41,
images/fcloud_D1.7_6.tif,1.7,0,,,,,,,,,0,4,4,29,,,,,,,,,,,,,,,1,space,6.7190295,5,6.08,,,,,,,,,,,,,,,,,,2019_Apr_17_1828,60.57676348009513,Cloud_Experiment_FR_REAL,001,41,
images/fcloud65-35_D0.8_5.tif,0.8,1,,,,,,,,,0,5,5,37,,,,,,,,,,,,,,,1,space,8.6853443,2,1.252,,,,,,,,,,,,,,,,,,2019_Apr_17_1828,60.57676348009513,Cloud_Experiment_FR_REAL,001,41,
images/fcloud80-20_D1.2_6.tif,1.2,2,,,,,,,,,0,6,6,86,,,,,,,,,,,,,,,None,None,,None,12.04,,,,,,,,,,,,,,,,,,2019_Apr_17_1828,60.57676348009513,Cloud_Experiment_FR_REAL,001,41,
images/fcloud_D1.9_4.tif,1.9,0,,,,,,,,,0,7,7,33,,,,,,,,,,,,,,,2,space,2.8747673,4,1.234,,,,,,,,,,,,,,,,,,2019_Apr_17_1828,60.57676348009513,Cloud_Experiment_FR_REAL,001,41,
images/fcloud80-20_D1_4.tif,1.0,2,,,,,,,,,0,8,8,78,,,,,,,,,,,,,,,1,space,7.3403061,4,3.866,,,,,,,,,,,,,,,,,,2019_Apr_17_1828,60.57676348009513,Cloud_Experiment_FR_REAL,001,41,
images/fcloud65-35_D1.2_6.tif,1.2,1,,,,,,,,,0,9,9,50,,,,,,,,,,,,,,,1,space,5.9050014,2,2.535,,,,,,,,,,,,,,,,,,2019_Apr_17_1828,60.57676348009513,Cloud_Experiment_FR_REAL,001,41,
images/fcloud_D1.5_5.tif,1.5,0,,,,,,,,,0,10,10,22,,,,,,,,,,,,,,,3,space,1.7146401,4,1.804,,,,,,,,,,,,,,,,,,2019_Apr_17_1828,60.57676348009513,Cloud_Experiment_FR_REAL,001,41,
images/fcloud80-20_D0.8_5.tif,0.8,2,,,,,,,,,0,11,11,73,,,,,,,,,,,,,,,1,space,2.2030277,1,1.584,,,,,,,,,,,,,,,,,,2019_Apr_17_1828,60.57676348009513,Cloud_Experiment_FR_REAL,001,41,
images/fcloud80-20_D1.7_4.tif,1.7,2,,,,,,,,,0,12,12,99,,,,,,,,,,,,,,,3,space,4.5588786,3,3.033,,,,,,,,,,,,,,,,,,2019_Apr_17_1828,60.57676348009513,Cloud_Experiment_FR_REAL,001,41,
images/fcloud65-35_D1.8_6.tif,1.8,1,,,,,,,,,0,13,13,68,,,,,,,,,,,,,,,2,space,6.0214575,3,5.198,,,,,,,,,,,,,,,,,,2019_Apr_17_1828,60.57676348009513,Cloud_Experiment_FR_REAL,001,41,
images/fcloud65-35_D1.7_6.tif,1.7,1,,,,,,,,,0,14,14,65,,,,,,,,,,,,,,,1,space,2.148372,1,0.836,,,,,,,,,,,,,,,,,,2019_Apr_17_1828,60.57676348009513,Cloud_Experiment_FR_REAL,001,41,
images/fcloud80-20_D0.8_4.tif,0.8,2,,,,,,,,,0,15,15,72,,,,,,,,,,,,,,,2,space,3.3381945,5,3.034,,,,,,,,,,,,,,,,,,2019_Apr_17_1828,60.57676348009513,Cloud_Experiment_FR_REAL,001,41,
images/fcloud65-35_D0.8_4.tif,0.8,1,,,,,,,,,0,16,16,36,,,,,,,,,,,,,,,3,space,2.8886674,2,5.367,,,,,,,,,,,,,,,,,,2019_Apr_17_1828,60.57676348009513,Cloud_Experiment_FR_REAL,001,41,
images/fcloud65-35_D1.6_5.tif,1.6,1,,,,,,,,,0,17,17,61,,,,,,,,,,,,,,,2,space,4.3705257,3,2.083,,,,,,,,,,,,,,,,,,2019_Apr_17_1828,60.57676348009513,Cloud_Experiment_FR_REAL,001,41,
images/fcloud_D1.2_6.tif,1.2,0,,,,,,,,,0,18,18,14,,,,,,,,,,,,,,,1,space,7.6275087,1,0.501,,,,,,,,,,,,,,,,,,2019_Apr_17_1828,60.57676348009513,Cloud_Experiment_FR_REAL,001,41,
images/fcloud80-20_D1.7_6.tif,1.7,2,,,,,,,,,0,19,19,101,,,,,,,,,,,,,,,1,space,6.4753541,2,1.803,,,,,,,,,,,,,,,,,,2019_Apr_17_1828,60.57676348009513,Cloud_Experiment_FR_REAL,001,41,
images/fcloud80-20_D1.9_4.tif,1.9,2,,,,,,,,,0,20,20,105,,,,,,,,,,,,,,,2,space,7.5879399,3,1.124,,,,,,,,,,,,,,,,,,2019_Apr_17_1828,60.57676348009513,Cloud_Experiment_FR_REAL,001,41,
images/fcloud65-35_D1.7_5.tif,1.7,1,,,,,,,,,0,21,21,64,,,,,,,,,,,,,,,2,space,2.1125249,3,1.638,,,,,,,,,,,,,,,,,,2019_Apr_17_1828,60.57676348009513,Cloud_Experiment_FR_REAL,001,41,
images/fcloud_D1.8_5.tif,1.8,0,,,,,,,,,0,22,22,31,,,,,,,,,,,,,,,1,space,7.7540762,2,1.488,,,,,,,,,,,,,,,,,,2019_Apr_17_1828,60.57676348009513,Cloud_Experiment_FR_REAL,001,41,
images/fcloud_D1.6_4.tif,1.6,0,,,,,,,,,0,23,23,24,,,,,,,,,,,,,,,3,space,3.3388832,2,1.919,,,,,,,,,,,,,,,,,,2019_Apr_17_1828,60.57676348009513,Cloud_Experiment_FR_REAL,001,41,
images/fcloud80-20_D1.2_4.tif,1.2,2,,,,,,,,,0,24,24,84,,,,,,,,,,,,,,,2,space,5.4522954,4,1.203,,,,,,,,,,,,,,,,,,2019_Apr_17_1828,60.57676348009513,Cloud_Experiment_FR_REAL,001,41,
images/fcloud65-35_D1.9_4.tif,1.9,1,,,,,,,,,0,25,25,69,,,,,,,,,,,,,,,None,None,,None,10.692,,,,,,,,,,,,,,,,,,2019_Apr_17_1828,60.57676348009513,Cloud_Experiment_FR_REAL,001,41,
images/fcloud80-20_D1.8_4.tif,1.8,2,,,,,,,,,0,26,26,102,,,,,,,,,,,,,,,1,space,4.6303111,4,1.034,,,,,,,,,,,,,,,,,,2019_Apr_17_1828,60.57676348009513,Cloud_Experiment_FR_REAL,001,41,
images/fcloud_D1.7_5.tif,1.7,0,,,,,,,,,0,27,27,28,,,,,,,,,,,,,,,2,space,4.7438643,5,1.667,,,,,,,,,,,,,,,,,,2019_Apr_17_1828,60.57676348009513,Cloud_Experiment_FR_REAL,001,41,
images/fcloud65-35_D1.1_6.tif,1.1,1,,,,,,,,,0,28,28,47,,,,,,,,,,,,,,,2,space,2.5265922,3,2.088,,,,,,,,,,,,,,,,,,2019_Apr_17_1828,60.57676348009513,Cloud_Experiment_FR_REAL,001,41,
images/fcloud80-20_D1_5.tif,1.0,2,,,,,,,,,0,29,29,79,,,,,,,,,,,,,,,3,space,3.5380903,5,1.267,,,,,,,,,,,,,,,,,,2019_Apr_17_1828,60.57676348009513,Cloud_Experiment_FR_REAL,001,41,
images/fcloud65-35_D1_4.tif,1.0,1,,,,,,,,,0,30,30,42,,,,,,,,,,,,,,,2,space,3.2827364,5,5.165,,,,,,,,,,,,,,,,,,2019_Apr_17_1828,60.57676348009513,Cloud_Experiment_FR_REAL,001,41,
images/fcloud65-35_D1.2_4.tif,1.2,1,,,,,,,,,0,31,31,48,,,,,,,,,,,,,,,3,space,2.1743962,3,2.168,,,,,,,,,,,,,,,,,,2019_Apr_17_1828,60.57676348009513,Cloud_Experiment_FR_REAL,001,41,
images/fcloud_D1.4_4.tif,1.4,0,,,,,,,,,0,32,32,18,,,,,,,,,,,,,,,None,space,8.4958593,None,12.045,,,,,,,,,,,,,,,,,,2019_Apr_17_1828,60.57676348009513,Cloud_Experiment_FR_REAL,001,41,
images/fcloud65-35_D0.9_5.tif,0.9,1,,,,,,,,,0,33,33,40,,,,,,,,,,,,,,,2,space,4.0420387,2,2.201,,,,,,,,,,,,,,,,,,2019_Apr_17_1828,60.57676348009513,Cloud_Experiment_FR_REAL,001,41,
images/fcloud_D1.6_5.tif,1.6,0,,,,,,,,,0,34,34,25,,,,,,,,,,,,,,,3,space,2.5736587,1,1.786,,,,,,,,,,,,,,,,,,2019_Apr_17_1828,60.57676348009513,Cloud_Experiment_FR_REAL,001,41,
images/fcloud65-35_D0.9_6.tif,0.9,1,,,,,,,,,0,35,35,41,,,,,,,,,,,,,,,2,space,5.9370743,3,0.985,,,,,,,,,,,,,,,,,,2019_Apr_17_1828,60.57676348009513,Cloud_Experiment_FR_REAL,001,41,
images/fcloud65-35_D1.9_5.tif,1.9,1,,,,,,,,,0,36,36,70,,,,,,,,,,,,,,,3,space,5.5006144,3,1.733,,,,,,,,,,,,,,,,,,2019_Apr_17_1828,60.57676348009513,Cloud_Experiment_FR_REAL,001,41,
images/fcloud_D1.5_4.tif,1.5,0,,,,,,,,,0,37,37,21,,,,,,,,,,,,,,,3,space,2.228904,1,2.466,,,,,,,,,,,,,,,,,,2019_Apr_17_1828,60.57676348009513,Cloud_Experiment_FR_REAL,001,41,
images/fcloud65-35_D1.7_4.tif,1.7,1,,,,,,,,,0,38,38,63,,,,,,,,,,,,,,,2,space,2.9625084,3,3.35,,,,,,,,,,,,,,,,,,2019_Apr_17_1828,60.57676348009513,Cloud_Experiment_FR_REAL,001,41,
images/fcloud80-20_D1.9_6.tif,1.9,2,,,,,,,,,0,39,39,107,,,,,,,,,,,,,,,1,space,6.4844506,2,2.435,,,,,,,,,,,,,,,,,,2019_Apr_17_1828,60.57676348009513,Cloud_Experiment_FR_REAL,001,41,
images/fcloud65-35_D1.8_4.tif,1.8,1,,,,,,,,,0,40,40,66,,,,,,,,,,,,,,,2,space,5.9845816,3,3.451,,,,,,,,,,,,,,,,,,2019_Apr_17_1828,60.57676348009513,Cloud_Experiment_FR_REAL,001,41,
images/fcloud65-35_D1.1_4.tif,1.1,1,,,,,,,,,0,41,41,45,,,,,,,,,,,,,,,1,space,7.0371623,2,1.821,,,,,,,,,,,,,,,,,,2019_Apr_17_1828,60.57676348009513,Cloud_Experiment_FR_REAL,001,41,
images/fcloud_D0.8_4.tif,0.8,0,,,,,,,,,0,42,42,0,,,,,,,,,,,,,,,None,None,,None,11.909,,,,,,,,,,,,,,,,,,2019_Apr_17_1828,60.57676348009513,Cloud_Experiment_FR_REAL,001,41,
images/fcloud_D0.8_5.tif,0.8,0,,,,,,,,,0,43,43,1,,,,,,,,,,,,,,,4,space,2.6149673,3,1.185,,,,,,,,,,,,,,,,,,2019_Apr_17_1828,60.57676348009513,Cloud_Experiment_FR_REAL,001,41,
images/fcloud80-20_D1.3_6.tif,1.3,2,,,,,,,,,0,44,44,89,,,,,,,,,,,,,,,None,None,,None,10.262,,,,,,,,,,,,,,,,,,2019_Apr_17_1828,60.57676348009513,Cloud_Experiment_FR_REAL,001,41,
images/fcloud65-35_D1.4_6.tif,1.4,1,,,,,,,,,0,45,45,56,,,,,,,,,,,,,,,4,space,2.0307641,5,1.169,,,,,,,,,,,,,,,,,,2019_Apr_17_1828,60.57676348009513,Cloud_Experiment_FR_REAL,001,41,
images/fcloud80-20_D1.6_4.tif,1.6,2,,,,,,,,,0,46,46,96,,,,,,,,,,,,,,,2,space,3.8872094,1,2.351,,,,,,,,,,,,,,,,,,2019_Apr_17_1828,60.57676348009513,Cloud_Experiment_FR_REAL,001,41,
images/fcloud65-35_D1.5_4.tif,1.5,1,,,,,,,,,0,47,47,57,,,,,,,,,,,,,,,1,space,7.7323198,1,1.352,,,,,,,,,,,,,,,,,,2019_Apr_17_1828,60.57676348009513,Cloud_Experiment_FR_REAL,001,41,
images/fcloud_D1.4_5.tif,1.4,0,,,,,,,,,0,48,48,19,,,,,,,,,,,,,,,3,space,4.3872239,2,0.971,,,,,,,,,,,,,,,,,,2019_Apr_17_1828,60.57676348009513,Cloud_Experiment_FR_REAL,001,41,
images/fcloud65-35_D1.3_6.tif,1.3,1,,,,,,,,,0,49,49,53,,,,,,,,,,,,,,,3,space,3.3230423,4,1.385,,,,,,,,,,,,,,,,,,2019_Apr_17_1828,60.57676348009513,Cloud_Experiment_FR_REAL,001,41,
images/fcloud65-35_D1_6.tif,1.0,1,,,,,,,,,0,50,50,44,,,,,,,,,,,,,,,3,space,1.7091717,4,1.352,,,,,,,,,,,,,,,,,,2019_Apr_17_1828,60.57676348009513,Cloud_Experiment_FR_REAL,001,41,
images/fcloud_D0.9_6.tif,0.9,0,,,,,,,,,0,51,51,5,,,,,,,,,,,,,,,3,space,2.8933255,5,1.119,,,,,,,,,,,,,,,,,,2019_Apr_17_1828,60.57676348009513,Cloud_Experiment_FR_REAL,001,41,
images/fcloud_D1.6_6.tif,1.6,0,,,,,,,,,0,52,52,26,,,,,,,,,,,,,,,2,space,5.8216958,3,1.618,,,,,,,,,,,,,,,,,,2019_Apr_17_1828,60.57676348009513,Cloud_Experiment_FR_REAL,001,41,
images/fcloud_D1.1_6.tif,1.1,0,,,,,,,,,0,53,53,11,,,,,,,,,,,,,,,3,space,1.9740688,3,5.032,,,,,,,,,,,,,,,,,,2019_Apr_17_1828,60.57676348009513,Cloud_Experiment_FR_REAL,001,41,
images/fcloud_D1.8_6.tif,1.8,0,,,,,,,,,0,54,54,32,,,,,,,,,,,,,,,3,space,2.2574329,2,2.085,,,,,,,,,,,,,,,,,,2019_Apr_17_1828,60.57676348009513,Cloud_Experiment_FR_REAL,001,41,
images/fcloud65-35_D1.8_5.tif,1.8,1,,,,,,,,,0,55,55,67,,,,,,,,,,,,,,,2,space,2.9767495,3,1.918,,,,,,,,,,,,,,,,,,2019_Apr_17_1828,60.57676348009513,Cloud_Experiment_FR_REAL,001,41,
images/fcloud65-35_D1.9_6.tif,1.9,1,,,,,,,,,0,56,56,71,,,,,,,,,,,,,,,1,space,7.2758479,1,0.853,,,,,,,,,,,,,,,,,,2019_Apr_17_1828,60.57676348009513,Cloud_Experiment_FR_REAL,001,41,
images/fcloud80-20_D1.4_6.tif,1.4,2,,,,,,,,,0,57,57,92,,,,,,,,,,,,,,,1,space,2.5379036,1,0.786,,,,,,,,,,,,,,,,,,2019_Apr_17_1828,60.57676348009513,Cloud_Experiment_FR_REAL,001,41,
images/fcloud65-35_D1.4_4.tif,1.4,1,,,,,,,,,0,58,58,54,,,,,,,,,,,,,,,2,space,7.1897646,2,7.23,,,,,,,,,,,,,,,,,,2019_Apr_17_1828,60.57676348009513,Cloud_Experiment_FR_REAL,001,41,
images/fcloud_D1.3_4.tif,1.3,0,,,,,,,,,0,59,59,15,,,,,,,,,,,,,,,2,space,3.3890528,2,37.071,,,,,,,,,,,,,,,,,,2019_Apr_17_1828,60.57676348009513,Cloud_Experiment_FR_REAL,001,41,
images/fcloud80-20_D1.5_6.tif,1.5,2,,,,,,,,,0,60,60,95,,,,,,,,,,,,,,,None,space,1.8377297,None,46.613,,,,,,,,,,,,,,,,,,2019_Apr_17_1828,60.57676348009513,Cloud_Experiment_FR_REAL,001,41,
images/fcloud_D1_5.tif,1.0,0,,,,,,,,,0,61,61,7,,,,,,,,,,,,,,,1,space,5.727147,1,2.251,,,,,,,,,,,,,,,,,,2019_Apr_17_1828,60.57676348009513,Cloud_Experiment_FR_REAL,001,41,
images/fcloud_D0.9_4.tif,0.9,0,,,,,,,,,0,62,62,3,,,,,,,,,,,,,,,3,space,1.4095208,5,1.701,,,,,,,,,,,,,,,,,,2019_Apr_17_1828,60.57676348009513,Cloud_Experiment_FR_REAL,001,41,
images/fcloud_D1.3_6.tif,1.3,0,,,,,,,,,0,63,63,17,,,,,,,,,,,,,,,None,space,8.0360493,None,11.627,,,,,,,,,,,,,,,,,,2019_Apr_17_1828,60.57676348009513,Cloud_Experiment_FR_REAL,001,41,
images/fcloud_D1_4.tif,1.0,0,,,,,,,,,0,64,64,6,,,,,,,,,,,,,,,5,space,2.8417081,5,8.329,,,,,,,,,,,,,,,,,,2019_Apr_17_1828,60.57676348009513,Cloud_Experiment_FR_REAL,001,41,
images/fcloud_D1.9_6.tif,1.9,0,,,,,,,,,0,65,65,35,,,,,,,,,,,,,,,None,None,,None,18.055,,,,,,,,,,,,,,,,,,2019_Apr_17_1828,60.57676348009513,Cloud_Experiment_FR_REAL,001,41,
images/fcloud80-20_D0.9_4.tif,0.9,2,,,,,,,,,0,66,66,75,,,,,,,,,,,,,,,1,space,4.5435749,4,1.567,,,,,,,,,,,,,,,,,,2019_Apr_17_1828,60.57676348009513,Cloud_Experiment_FR_REAL,001,41,
images/fcloud80-20_D1.1_4.tif,1.1,2,,,,,,,,,0,67,67,81,,,,,,,,,,,,,,,2,space,3.7295529,4,2.185,,,,,,,,,,,,,,,,,,2019_Apr_17_1828,60.57676348009513,Cloud_Experiment_FR_REAL,001,41,
images/fcloud80-20_D1.9_5.tif,1.9,2,,,,,,,,,0,68,68,106,,,,,,,,,,,,,,,1,space,3.756793,1,1.502,,,,,,,,,,,,,,,,,,2019_Apr_17_1828,60.57676348009513,Cloud_Experiment_FR_REAL,001,41,
images/fcloud80-20_D1.1_5.tif,1.1,2,,,,,,,,,0,69,69,82,,,,,,,,,,,,,,,2,space,2.5774315,3,5.847,,,,,,,,,,,,,,,,,,2019_Apr_17_1828,60.57676348009513,Cloud_Experiment_FR_REAL,001,41,
images/fcloud_D1.1_5.tif,1.1,0,,,,,,,,,0,70,70,10,,,,,,,,,,,,,,,1,space,6.7908882,2,1.769,,,,,,,,,,,,,,,,,,2019_Apr_17_1828,60.57676348009513,Cloud_Experiment_FR_REAL,001,41,
images/fcloud80-20_D1_6.tif,1.0,2,,,,,,,,,0,71,71,80,,,,,,,,,,,,,,,None,space,4.2167395,None,12.26,,,,,,,,,,,,,,,,,,2019_Apr_17_1828,60.57676348009513,Cloud_Experiment_FR_REAL,001,41,
images/fcloud80-20_D1.4_4.tif,1.4,2,,,,,,,,,0,72,72,90,,,,,,,,,,,,,,,2,space,6.5914957,2,2.9,,,,,,,,,,,,,,,,,,2019_Apr_17_1828,60.57676348009513,Cloud_Experiment_FR_REAL,001,41,
images/fcloud_D1.3_5.tif,1.3,0,,,,,,,,,0,73,73,16,,,,,,,,,,,,,,,3,space,5.5859094,4,1.785,,,,,,,,,,,,,,,,,,2019_Apr_17_1828,60.57676348009513,Cloud_Experiment_FR_REAL,001,41,
images/fcloud80-20_D1.4_5.tif,1.4,2,,,,,,,,,0,74,74,91,,,,,,,,,,,,,,,1,space,7.0003975,1,2.418,,,,,,,,,,,,,,,,,,2019_Apr_17_1828,60.57676348009513,Cloud_Experiment_FR_REAL,001,41,
images/fcloud80-20_D0.9_5.tif,0.9,2,,,,,,,,,0,75,75,76,,,,,,,,,,,,,,,3,space,3.9077324,3,1.652,,,,,,,,,,,,,,,,,,2019_Apr_17_1828,60.57676348009513,Cloud_Experiment_FR_REAL,001,41,
images/fcloud80-20_D1.1_6.tif,1.1,2,,,,,,,,,0,76,76,83,,,,,,,,,,,,,,,4,space,2.1102015,3,1.636,,,,,,,,,,,,,,,,,,2019_Apr_17_1828,60.57676348009513,Cloud_Experiment_FR_REAL,001,41,
images/fcloud65-35_D0.9_4.tif,0.9,1,,,,,,,,,0,77,77,39,,,,,,,,,,,,,,,3,space,2.8462564,2,2.402,,,,,,,,,,,,,,,,,,2019_Apr_17_1828,60.57676348009513,Cloud_Experiment_FR_REAL,001,41,
images/fcloud80-20_D1.6_6.tif,1.6,2,,,,,,,,,0,78,78,98,,,,,,,,,,,,,,,2,space,2.0377872,5,5.665,,,,,,,,,,,,,,,,,,2019_Apr_17_1828,60.57676348009513,Cloud_Experiment_FR_REAL,001,41,
images/fcloud65-35_D1_5.tif,1.0,1,,,,,,,,,0,79,79,43,,,,,,,,,,,,,,,2,space,2.2721608,2,23.45,,,,,,,,,,,,,,,,,,2019_Apr_17_1828,60.57676348009513,Cloud_Experiment_FR_REAL,001,41,
images/fcloud65-35_D0.8_6.tif,0.8,1,,,,,,,,,0,80,80,38,,,,,,,,,,,,,,,2,space,7.4700097,1,2.317,,,,,,,,,,,,,,,,,,2019_Apr_17_1828,60.57676348009513,Cloud_Experiment_FR_REAL,001,41,
images/fcloud80-20_D1.5_5.tif,1.5,2,,,,,,,,,0,81,81,94,,,,,,,,,,,,,,,2,space,4.9520935,4,1.668,,,,,,,,,,,,,,,,,,2019_Apr_17_1828,60.57676348009513,Cloud_Experiment_FR_REAL,001,41,
images/fcloud80-20_D1.5_4.tif,1.5,2,,,,,,,,,0,82,82,93,,,,,,,,,,,,,,,None,None,,None,12.709,,,,,,,,,,,,,,,,,,2019_Apr_17_1828,60.57676348009513,Cloud_Experiment_FR_REAL,001,41,
images/fcloud_D1.9_5.tif,1.9,0,,,,,,,,,0,83,83,34,,,,,,,,,,,,,,,4,space,2.6771307,3,1.852,,,,,,,,,,,,,,,,,,2019_Apr_17_1828,60.57676348009513,Cloud_Experiment_FR_REAL,001,41,
images/fcloud_D1.2_5.tif,1.2,0,,,,,,,,,0,84,84,13,,,,,,,,,,,,,,,2,space,3.7576382,3,2.533,,,,,,,,,,,,,,,,,,2019_Apr_17_1828,60.57676348009513,Cloud_Experiment_FR_REAL,001,41,
images/fcloud_D1_6.tif,1.0,0,,,,,,,,,0,85,85,8,,,,,,,,,,,,,,,3,space,6.9095497,2,2.535,,,,,,,,,,,,,,,,,,2019_Apr_17_1828,60.57676348009513,Cloud_Experiment_FR_REAL,001,41,
images/fcloud65-35_D1.2_5.tif,1.2,1,,,,,,,,,0,86,86,49,,,,,,,,,,,,,,,3,space,2.1320932,3,6.313,,,,,,,,,,,,,,,,,,2019_Apr_17_1828,60.57676348009513,Cloud_Experiment_FR_REAL,001,41,
images/fcloud_D0.9_5.tif,0.9,0,,,,,,,,,0,87,87,4,,,,,,,,,,,,,,,1,space,2.5485542,2,2.168,,,,,,,,,,,,,,,,,,2019_Apr_17_1828,60.57676348009513,Cloud_Experiment_FR_REAL,001,41,
images/fcloud_D1.4_6.tif,1.4,0,,,,,,,,,0,88,88,20,,,,,,,,,,,,,,,3,space,5.8030444,1,2.818,,,,,,,,,,,,,,,,,,2019_Apr_17_1828,60.57676348009513,Cloud_Experiment_FR_REAL,001,41,
images/fcloud_D1.8_4.tif,1.8,0,,,,,,,,,0,89,89,30,,,,,,,,,,,,,,,None,None,,None,15.089,,,,,,,,,,,,,,,,,,2019_Apr_17_1828,60.57676348009513,Cloud_Experiment_FR_REAL,001,41,
images/fcloud_D1.7_4.tif,1.7,0,,,,,,,,,0,90,90,27,,,,,,,,,,,,,,,2,space,5.7267963,3,1.652,,,,,,,,,,,,,,,,,,2019_Apr_17_1828,60.57676348009513,Cloud_Experiment_FR_REAL,001,41,
images/fcloud80-20_D1.8_6.tif,1.8,2,,,,,,,,,0,91,91,104,,,,,,,,,,,,,,,None,None,,None,11.075,,,,,,,,,,,,,,,,,,2019_Apr_17_1828,60.57676348009513,Cloud_Experiment_FR_REAL,001,41,
images/fcloud_D1.2_4.tif,1.2,0,,,,,,,,,0,92,92,12,,,,,,,,,,,,,,,1,space,5.7186832,5,0.969,,,,,,,,,,,,,,,,,,2019_Apr_17_1828,60.57676348009513,Cloud_Experiment_FR_REAL,001,41,
images/fcloud65-35_D1.4_5.tif,1.4,1,,,,,,,,,0,93,93,55,,,,,,,,,,,,,,,1,space,5.47208,4,1.152,,,,,,,,,,,,,,,,,,2019_Apr_17_1828,60.57676348009513,Cloud_Experiment_FR_REAL,001,41,
images/fcloud80-20_D1.3_4.tif,1.3,2,,,,,,,,,0,94,94,87,,,,,,,,,,,,,,,1,space,7.5163967,1,1.218,,,,,,,,,,,,,,,,,,2019_Apr_17_1828,60.57676348009513,Cloud_Experiment_FR_REAL,001,41,
images/fcloud80-20_D1.6_5.tif,1.6,2,,,,,,,,,0,95,95,97,,,,,,,,,,,,,,,1,space,8.0203825,2,1.801,,,,,,,,,,,,,,,,,,2019_Apr_17_1828,60.57676348009513,Cloud_Experiment_FR_REAL,001,41,
images/fcloud80-20_D1.2_5.tif,1.2,2,,,,,,,,,0,96,96,85,,,,,,,,,,,,,,,None,None,,None,11.775,,,,,,,,,,,,,,,,,,2019_Apr_17_1828,60.57676348009513,Cloud_Experiment_FR_REAL,001,41,
images/fcloud65-35_D1.6_6.tif,1.6,1,,,,,,,,,0,97,97,62,,,,,,,,,,,,,,,4,space,3.2795467,3,2.834,,,,,,,,,,,,,,,,,,2019_Apr_17_1828,60.57676348009513,Cloud_Experiment_FR_REAL,001,41,
images/fcloud65-35_D1.6_4.tif,1.6,1,,,,,,,,,0,98,98,60,,,,,,,,,,,,,,,3,space,5.4542621,4,4.081,,,,,,,,,,,,,,,,,,2019_Apr_17_1828,60.57676348009513,Cloud_Experiment_FR_REAL,001,41,
images/fcloud80-20_D1.7_5.tif,1.7,2,,,,,,,,,0,99,99,100,,,,,,,,,,,,,,,None,None,,None,13.525,,,,,,,,,,,,,,,,,,2019_Apr_17_1828,60.57676348009513,Cloud_Experiment_FR_REAL,001,41,
images/fcloud65-35_D1.1_5.tif,1.1,1,,,,,,,,,0,100,100,46,,,,,,,,,,,,,,,2,space,2.0143243,3,2.952,,,,,,,,,,,,,,,,,,2019_Apr_17_1828,60.57676348009513,Cloud_Experiment_FR_REAL,001,41,
images/fcloud_D1.1_4.tif,1.1,0,,,,,,,,,0,101,101,9,,,,,,,,,,,,,,,None,None,,None,12.974,,,,,,,,,,,,,,,,,,2019_Apr_17_1828,60.57676348009513,Cloud_Experiment_FR_REAL,001,41,
images/fcloud_D0.8_6.tif,0.8,0,,,,,,,,,0,102,102,2,,,,,,,,,,,,,,,1,None,,5,1.269,,,,,,,,,,,,,,,,,,2019_Apr_17_1828,60.57676348009513,Cloud_Experiment_FR_REAL,001,41,
images/fcloud80-20_D1.8_5.tif,1.8,2,,,,,,,,,0,103,103,103,,,,,,,,,,,,,,,2,space,4.6750588,3,1.469,,,,,,,,,,,,,,,,,,2019_Apr_17_1828,60.57676348009513,Cloud_Experiment_FR_REAL,001,41,
images/fcloud_D1.5_6.tif,1.5,0,,,,,,,,,0,104,104,23,,,,,,,,,,,,,,,None,space,10.1300462,None,13.525,,,,,,,,,,,,,,,,,,2019_Apr_17_1828,60.57676348009513,Cloud_Experiment_FR_REAL,001,41,
images/fcloud80-20_D0.8_6.tif,0.8,2,,,,,,,,,0,105,105,74,,,,,,,,,,,,,,,3,space,4.3847275,4,2.551,,,,,,,,,,,,,,,,,,2019_Apr_17_1828,60.57676348009513,Cloud_Experiment_FR_REAL,001,41,
images/fcloud65-35_D1.3_4.tif,1.3,1,,,,,,,,,0,106,106,51,,,,,,,,,,,,,,,2,space,2.4600685,1,2.484,,,,,,,,,,,,,,,,,,2019_Apr_17_1828,60.57676348009513,Cloud_Experiment_FR_REAL,001,41,
images/fcloud65-35_D1.3_5.tif,1.3,1,,,,,,,,,0,107,107,52,,,,,,,,,,,,,,,1,space,4.6471152,1,1.136,,,,,,,,,,,,,,,,,,2019_Apr_17_1828,60.57676348009513,Cloud_Experiment_FR_REAL,001,41,
,,,,,,,,,,,,,,,,,,,,,,,,,,,,,,,,,,,,,,,,,,,,,,space,2.0016185,,,,2019_Apr_17_1828,60.57676348009513,Cloud_Experiment_FR_REAL,001,41,
,,,,,,,,,,,,,,,,,,,,,,,,,4,15.434,,,,,,,,,,,,,,,,,,,,,,,,,2019_Apr_17_1828,60.57676348009513,Cloud_Experiment_FR_REAL,001,41,
,,,,,,,,,,,,,,,,,,,,,,,,,,,,,,,,,,4,,,,,,,,,,,,,,,,,2019_Apr_17_1828,60.57676348009513,Cloud_Experiment_FR_REAL,001,41,
,,,,,,,,,,,,,,,,,,,,,,,,,,,,,,,,,,,3,,,,,,,,,,,,,,,,2019_Apr_17_1828,60.57676348009513,Cloud_Experiment_FR_REAL,001,41,
,,,,,,,,,,,,,,,,,,,,,,,,,,,,,,,,,,,,7,,,,,,,,,,,,,,,2019_Apr_17_1828,60.57676348009513,Cloud_Experiment_FR_REAL,001,41,
,,,,,,,,,,,,,,,,,,,,,,,,,,,,,,,,,,,,,4,,,,,,,,,,,,,,2019_Apr_17_1828,60.57676348009513,Cloud_Experiment_FR_REAL,001,41,
,,,,,,,,,,,,,,,,,,,,,,,,,,,,,,,,,,,,,,3,,,,,,,,,,,,,2019_Apr_17_1828,60.57676348009513,Cloud_Experiment_FR_REAL,001,41,
,,,,,,,,,,,,,,,,,,,,,,,,,,,,,,,,,,,,,,,7,,,,,,,,,,,,2019_Apr_17_1828,60.57676348009513,Cloud_Experiment_FR_REAL,001,41,
,,,,,,,,,,,,,,,,,,,,,,,,,,,,,,,,,,,,,,,,7,,,,,,,,,,,2019_Apr_17_1828,60.57676348009513,Cloud_Experiment_FR_REAL,001,41,
,,,,,,,,,,,,,,,,,,,,,,,,,,,,,,,,,,,,,,,,,7,,,,,,,,,,2019_Apr_17_1828,60.57676348009513,Cloud_Experiment_FR_REAL,001,41,
,,,,,,,,,,,,,,,,,,,,,,,,,,,,,,,,,,,,,,,,,,7,,,,,,,,,2019_Apr_17_1828,60.57676348009513,Cloud_Experiment_FR_REAL,001,41,
,,,,,,,,,,,,,,,,,,,,,,,,,,,,,,,,,,,,,,,,,,,3,,,,,,,,2019_Apr_17_1828,60.57676348009513,Cloud_Experiment_FR_REAL,001,41,
,,,,,,,,,,,,,,,,,,,,,,,,,,,,,,,,,,,,,,,,,,,,,,,,space,80.881872,,2019_Apr_17_1828,60.57676348009513,Cloud_Experiment_FR_REAL,001,41,
images/fcloud_D1.5_9.tif,1.5,0,,,,,,,,,,,,,0,0,0,30,,,,,,,,,,,None,None,,None,159.765,,,,,,,,,,,,,,,,,,2019_Apr_17_1828,60.57676348009513,Cloud_Experiment_FR_REAL,001,41,
images/fcloud80-20_D0.9_10.tif,0.9,2,,,,,,,,,,,,,0,1,1,103,,,,,,,,,,,2,space,4.2747607,2,1.733,,,,,,,,,,,,,,,,,,2019_Apr_17_1828,60.57676348009513,Cloud_Experiment_FR_REAL,001,41,
images/fcloud65-35_D1.5_10.tif,1.5,1,,,,,,,,,,,,,0,2,2,79,,,,,,,,,,,3,space,3.567998,4,2.349,,,,,,,,,,,,,,,,,,2019_Apr_17_1828,60.57676348009513,Cloud_Experiment_FR_REAL,001,41,
images/fcloud_D1.7_8.tif,1.7,0,,,,,,,,,,,,,0,3,3,37,,,,,,,,,,,None,None,,None,12.073,,,,,,,,,,,,,,,,,,2019_Apr_17_1828,60.57676348009513,Cloud_Experiment_FR_REAL,001,41,
images/fcloud_D1.6_7.tif,1.6,0,,,,,,,,,,,,,0,4,4,32,,,,,,,,,,,2,space,4.8291014,3,1.253,,,,,,,,,,,,,,,,,,2019_Apr_17_1828,60.57676348009513,Cloud_Experiment_FR_REAL,001,41,
images/fcloud80-20_D1.3_7.tif,1.3,2,,,,,,,,,,,,,0,5,5,116,,,,,,,,,,,2,space,6.316673,1,1.435,,,,,,,,,,,,,,,,,,2019_Apr_17_1828,60.57676348009513,Cloud_Experiment_FR_REAL,001,41,
images/fcloud_D1.2_10.tif,1.2,0,,,,,,,,,,,,,0,6,6,19,,,,,,,,,,,3,space,3.6503015,3,1.452,,,,,,,,,,,,,,,,,,2019_Apr_17_1828,60.57676348009513,Cloud_Experiment_FR_REAL,001,41,
images/fcloud65-35_D1.3_7.tif,1.3,1,,,,,,,,,,,,,0,7,7,68,,,,,,,,,,,1,None,,1,0.785,,,,,,,,,,,,,,,,,,2019_Apr_17_1828,60.57676348009513,Cloud_Experiment_FR_REAL,001,41,
images/fcloud65-35_D0.8_7.tif,0.8,1,,,,,,,,,,,,,0,8,8,48,,,,,,,,,,,1,space,5.7091851,2,3.833,,,,,,,,,,,,,,,,,,2019_Apr_17_1828,60.57676348009513,Cloud_Experiment_FR_REAL,001,41,
images/fcloud_D1.8_9.tif,1.8,0,,,,,,,,,,,,,0,9,9,42,,,,,,,,,,,None,None,,None,13.34,,,,,,,,,,,,,,,,,,2019_Apr_17_1828,60.57676348009513,Cloud_Experiment_FR_REAL,001,41,
images/fcloud80-20_D1_7.tif,1.0,2,,,,,,,,,,,,,0,10,10,104,,,,,,,,,,,3,space,3.665007,3,2.219,,,,,,,,,,,,,,,,,,2019_Apr_17_1828,60.57676348009513,Cloud_Experiment_FR_REAL,001,41,
images/fcloud65-35_D1.6_9.tif,1.6,1,,,,,,,,,,,,,0,11,11,82,,,,,,,,,,,1,space,5.4029618,1,1.734,,,,,,,,,,,,,,,,,,2019_Apr_17_1828,60.57676348009513,Cloud_Experiment_FR_REAL,001,41,
images/fcloud80-20_D1.7_9.tif,1.7,2,,,,,,,,,,,,,0,12,12,134,,,,,,,,,,,2,space,3.4879989,3,1.668,,,,,,,,,,,,,,,,,,2019_Apr_17_1828,60.57676348009513,Cloud_Experiment_FR_REAL,001,41,
images/fcloud65-35_D1.5_8.tif,1.5,1,,,,,,,,,,,,,0,13,13,77,,,,,,,,,,,2,space,5.1975654,4,1.901,,,,,,,,,,,,,,,,,,2019_Apr_17_1828,60.57676348009513,Cloud_Experiment_FR_REAL,001,41,
images/fcloud_D1.6_8.tif,1.6,0,,,,,,,,,,,,,0,14,14,33,,,,,,,,,,,2,space,5.9945212,5,2.701,,,,,,,,,,,,,,,,,,2019_Apr_17_1828,60.57676348009513,Cloud_Experiment_FR_REAL,001,41,
images/fcloud65-35_D1_7.tif,1.0,1,,,,,,,,,,,,,0,15,15,56,,,,,,,,,,,1,None,,1,0.654,,,,,,,,,,,,,,,,,,2019_Apr_17_1828,60.57676348009513,Cloud_Experiment_FR_REAL,001,41,
images/fcloud_D0.9_9.tif,0.9,0,,,,,,,,,,,,,0,16,16,6,,,,,,,,,,,2,space,5.9711134,5,1.818,,,,,,,,,,,,,,,,,,2019_Apr_17_1828,60.57676348009513,Cloud_Experiment_FR_REAL,001,41,
images/fcloud80-20_D1.2_7.tif,1.2,2,,,,,,,,,,,,,0,17,17,112,,,,,,,,,,,1,space,7.9638105,1,1.451,,,,,,,,,,,,,,,,,,2019_Apr_17_1828,60.57676348009513,Cloud_Experiment_FR_REAL,001,41,
images/fcloud65-35_D1.5_7.tif,1.5,1,,,,,,,,,,,,,0,18,18,76,,,,,,,,,,,None,None,,None,10.377,,,,,,,,,,,,,,,,,,2019_Apr_17_1828,60.57676348009513,Cloud_Experiment_FR_REAL,001,41,
images/fcloud65-35_D1.8_10.tif,1.8,1,,,,,,,,,,,,,0,19,19,91,,,,,,,,,,,1,space,5.9771544,2,3.433,,,,,,,,,,,,,,,,,,2019_Apr_17_1828,60.57676348009513,Cloud_Experiment_FR_REAL,001,41,
images/fcloud_D1.5_7.tif,1.5,0,,,,,,,,,,,,,0,20,20,28,,,,,,,,,,,3,space,2.7053632,3,1.585,,,,,,,,,,,,,,,,,,2019_Apr_17_1828,60.57676348009513,Cloud_Experiment_FR_REAL,001,41,
images/fcloud_D1.4_9.tif,1.4,0,,,,,,,,,,,,,0,21,21,26,,,,,,,,,,,1,space,1.6654199,5,1.302,,,,,,,,,,,,,,,,,,2019_Apr_17_1828,60.57676348009513,Cloud_Experiment_FR_REAL,001,41,
images/fcloud_D1.2_8.tif,1.2,0,,,,,,,,,,,,,0,22,22,17,,,,,,,,,,,2,space,2.1074632,4,1.285,,,,,,,,,,,,,,,,,,2019_Apr_17_1828,60.57676348009513,Cloud_Experiment_FR_REAL,001,41,
images/fcloud_D0.8_10.tif,0.8,0,,,,,,,,,,,,,0,23,23,3,,,,,,,,,,,1,space,4.7711913,5,1.069,,,,,,,,,,,,,,,,,,2019_Apr_17_1828,60.57676348009513,Cloud_Experiment_FR_REAL,001,41,
images/fcloud80-20_D1.1_10.tif,1.1,2,,,,,,,,,,,,,0,24,24,111,,,,,,,,,,,1,space,6.0679708,2,0.87,,,,,,,,,,,,,,,,,,2019_Apr_17_1828,60.57676348009513,Cloud_Experiment_FR_REAL,001,41,
images/fcloud80-20_D1.2_10.tif,1.2,2,,,,,,,,,,,,,0,25,25,115,,,,,,,,,,,3,space,2.0397354,2,1.017,,,,,,,,,,,,,,,,,,2019_Apr_17_1828,60.57676348009513,Cloud_Experiment_FR_REAL,001,41,
images/fcloud65-35_D1.6_7.tif,1.6,1,,,,,,,,,,,,,0,26,26,80,,,,,,,,,,,1,space,2.7823173,1,0.569,,,,,,,,,,,,,,,,,,2019_Apr_17_1828,60.57676348009513,Cloud_Experiment_FR_REAL,001,41,
images/fcloud_D1.7_9.tif,1.7,0,,,,,,,,,,,,,0,27,27,38,,,,,,,,,,,None,None,,None,9.561,,,,,,,,,,,,,,,,,,2019_Apr_17_1828,60.57676348009513,Cloud_Experiment_FR_REAL,001,41,
images/fcloud65-35_D1.4_7.tif,1.4,1,,,,,,,,,,,,,0,28,28,72,,,,,,,,,,,5,space,2.2671339,4,1.352,,,,,,,,,,,,,,,,,,2019_Apr_17_1828,60.57676348009513,Cloud_Experiment_FR_REAL,001,41,
images/fcloud_D1.7_10.tif,1.7,0,,,,,,,,,,,,,0,29,29,39,,,,,,,,,,,3,space,2.8729961,4,2.201,,,,,,,,,,,,,,,,,,2019_Apr_17_1828,60.57676348009513,Cloud_Experiment_FR_REAL,001,41,
images/fcloud80-20_D1_8.tif,1.0,2,,,,,,,,,,,,,0,30,30,105,,,,,,,,,,,None,None,,None,12.226,,,,,,,,,,,,,,,,,,2019_Apr_17_1828,60.57676348009513,Cloud_Experiment_FR_REAL,001,41,
images/fcloud65-35_D1.4_9.tif,1.4,1,,,,,,,,,,,,,0,31,31,74,,,,,,,,,,,2,space,3.1438561,1,2.816,,,,,,,,,,,,,,,,,,2019_Apr_17_1828,60.57676348009513,Cloud_Experiment_FR_REAL,001,41,
images/fcloud_D1.5_10.tif,1.5,0,,,,,,,,,,,,,0,32,32,31,,,,,,,,,,,2,space,4.2416964,3,1.053,,,,,,,,,,,,,,,,,,2019_Apr_17_1828,60.57676348009513,Cloud_Experiment_FR_REAL,001,41,
images/fcloud65-35_D1.2_10.tif,1.2,1,,,,,,,,,,,,,0,33,33,67,,,,,,,,,,,None,None,,None,9.861,,,,,,,,,,,,,,,,,,2019_Apr_17_1828,60.57676348009513,Cloud_Experiment_FR_REAL,001,41,
images/fcloud80-20_D1.7_7.tif,1.7,2,,,,,,,,,,,,,0,34,34,132,,,,,,,,,,,2,space,3.7272338,2,2.666,,,,,,,,,,,,,,,,,,2019_Apr_17_1828,60.57676348009513,Cloud_Experiment_FR_REAL,001,41,
images/fcloud65-35_D0.9_10.tif,0.9,1,,,,,,,,,,,,,0,35,35,55,,,,,,,,,,,1,space,4.2655616,3,2.422,,,,,,,,,,,,,,,,,,2019_Apr_17_1828,60.57676348009513,Cloud_Experiment_FR_REAL,001,41,
images/fcloud_D0.9_7.tif,0.9,0,,,,,,,,,,,,,0,36,36,4,,,,,,,,,,,3,space,2.2241913,4,1.152,,,,,,,,,,,,,,,,,,2019_Apr_17_1828,60.57676348009513,Cloud_Experiment_FR_REAL,001,41,
images/fcloud_D1_7.tif,1.0,0,,,,,,,,,,,,,0,37,37,8,,,,,,,,,,,2,None,,3,4.799,,,,,,,,,,,,,,,,,,2019_Apr_17_1828,60.57676348009513,Cloud_Experiment_FR_REAL,001,41,
images/fcloud65-35_D1.7_8.tif,1.7,1,,,,,,,,,,,,,0,38,38,85,,,,,,,,,,,2,space,3.3735326,5,1.302,,,,,,,,,,,,,,,,,,2019_Apr_17_1828,60.57676348009513,Cloud_Experiment_FR_REAL,001,41,
images/fcloud_D1.4_7.tif,1.4,0,,,,,,,,,,,,,0,39,39,24,,,,,,,,,,,1,space,6.2732214,1,0.588,,,,,,,,,,,,,,,,,,2019_Apr_17_1828,60.57676348009513,Cloud_Experiment_FR_REAL,001,41,
images/fcloud80-20_D1.2_9.tif,1.2,2,,,,,,,,,,,,,0,40,40,114,,,,,,,,,,,1,None,,2,0.886,,,,,,,,,,,,,,,,,,2019_Apr_17_1828,60.57676348009513,Cloud_Experiment_FR_REAL,001,41,
images/fcloud_D1.4_10.tif,1.4,0,,,,,,,,,,,,,0,41,41,27,,,,,,,,,,,5,space,2.8249392,4,1.368,,,,,,,,,,,,,,,,,,2019_Apr_17_1828,60.57676348009513,Cloud_Experiment_FR_REAL,001,41,
images/fcloud_D1.4_8.tif,1.4,0,,,,,,,,,,,,,0,42,42,25,,,,,,,,,,,1,space,5.2241774,1,0.634,,,,,,,,,,,,,,,,,,2019_Apr_17_1828,60.57676348009513,Cloud_Experiment_FR_REAL,001,41,
images/fcloud_D0.8_8.tif,0.8,0,,,,,,,,,,,,,0,43,43,1,,,,,,,,,,,1,space,4.1306193,3,1.417,,,,,,,,,,,,,,,,,,2019_Apr_17_1828,60.57676348009513,Cloud_Experiment_FR_REAL,001,41,
images/fcloud65-35_D0.9_7.tif,0.9,1,,,,,,,,,,,,,0,44,44,52,,,,,,,,,,,1,space,4.7460466,1,2.516,,,,,,,,,,,,,,,,,,2019_Apr_17_1828,60.57676348009513,Cloud_Experiment_FR_REAL,001,41,
images/fcloud65-35_D1.8_9.tif,1.8,1,,,,,,,,,,,,,0,45,45,90,,,,,,,,,,,None,None,,None,11.293,,,,,,,,,,,,,,,,,,2019_Apr_17_1828,60.57676348009513,Cloud_Experiment_FR_REAL,001,41,
images/fcloud65-35_D1.8_7.tif,1.8,1,,,,,,,,,,,,,0,46,46,88,,,,,,,,,,,2,space,3.6978072,2,2.152,,,,,,,,,,,,,,,,,,2019_Apr_17_1828,60.57676348009513,Cloud_Experiment_FR_REAL,001,41,
images/fcloud65-35_D1.9_7.tif,1.9,1,,,,,,,,,,,,,0,47,47,92,,,,,,,,,,,1,space,5.7875579,3,0.853,,,,,,,,,,,,,,,,,,2019_Apr_17_1828,60.57676348009513,Cloud_Experiment_FR_REAL,001,41,
images/fcloud65-35_D1.5_9.tif,1.5,1,,,,,,,,,,,,,0,48,48,78,,,,,,,,,,,3,space,2.9305851,2,1.418,,,,,,,,,,,,,,,,,,2019_Apr_17_1828,60.57676348009513,Cloud_Experiment_FR_REAL,001,41,
images/fcloud_D1.1_8.tif,1.1,0,,,,,,,,,,,,,0,49,49,13,,,,,,,,,,,1,None,,1,0.668,,,,,,,,,,,,,,,,,,2019_Apr_17_1828,60.57676348009513,Cloud_Experiment_FR_REAL,001,41,
images/fcloud65-35_D1.9_10.tif,1.9,1,,,,,,,,,,,,,0,50,50,95,,,,,,,,,,,3,space,3.3737685,2,1.852,,,,,,,,,,,,,,,,,,2019_Apr_17_1828,60.57676348009513,Cloud_Experiment_FR_REAL,001,41,
images/fcloud65-35_D1.1_10.tif,1.1,1,,,,,,,,,,,,,0,51,51,63,,,,,,,,,,,1,space,3.0135107,1,0.702,,,,,,,,,,,,,,,,,,2019_Apr_17_1828,60.57676348009513,Cloud_Experiment_FR_REAL,001,41,
images/fcloud80-20_D1.9_10.tif,1.9,2,,,,,,,,,,,,,0,52,52,143,,,,,,,,,,,1,space,5.3659995,1,0.569,,,,,,,,,,,,,,,,,,2019_Apr_17_1828,60.57676348009513,Cloud_Experiment_FR_REAL,001,41,
images/fcloud65-35_D1.9_8.tif,1.9,1,,,,,,,,,,,,,0,53,53,93,,,,,,,,,,,1,space,3.6285122,1,0.618,,,,,,,,,,,,,,,,,,2019_Apr_17_1828,60.57676348009513,Cloud_Experiment_FR_REAL,001,41,
images/fcloud_D1.1_9.tif,1.1,0,,,,,,,,,,,,,0,54,54,14,,,,,,,,,,,3,space,2.2249173,3,1.902,,,,,,,,,,,,,,,,,,2019_Apr_17_1828,60.57676348009513,Cloud_Experiment_FR_REAL,001,41,
images/fcloud80-20_D0.8_8.tif,0.8,2,,,,,,,,,,,,,0,55,55,97,,,,,,,,,,,3,space,3.5595082,4,1.086,,,,,,,,,,,,,,,,,,2019_Apr_17_1828,60.57676348009513,Cloud_Experiment_FR_REAL,001,41,
images/fcloud_D1.3_9.tif,1.3,0,,,,,,,,,,,,,0,56,56,22,,,,,,,,,,,2,space,3.4868904,1,2.101,,,,,,,,,,,,,,,,,,2019_Apr_17_1828,60.57676348009513,Cloud_Experiment_FR_REAL,001,41,
images/fcloud65-35_D1.6_10.tif,1.6,1,,,,,,,,,,,,,0,57,57,83,,,,,,,,,,,2,space,1.641498,2,1.484,,,,,,,,,,,,,,,,,,2019_Apr_17_1828,60.57676348009513,Cloud_Experiment_FR_REAL,001,41,
images/fcloud_D1.9_8.tif,1.9,0,,,,,,,,,,,,,0,58,58,45,,,,,,,,,,,None,None,,None,10.561,,,,,,,,,,,,,,,,,,2019_Apr_17_1828,60.57676348009513,Cloud_Experiment_FR_REAL,001,41,
images/fcloud80-20_D1.2_8.tif,1.2,2,,,,,,,,,,,,,0,59,59,113,,,,,,,,,,,4,space,2.3595016,4,2.501,,,,,,,,,,,,,,,,,,2019_Apr_17_1828,60.57676348009513,Cloud_Experiment_FR_REAL,001,41,
images/fcloud80-20_D1.8_7.tif,1.8,2,,,,,,,,,,,,,0,60,60,136,,,,,,,,,,,1,space,5.5604711,1,1.502,,,,,,,,,,,,,,,,,,2019_Apr_17_1828,60.57676348009513,Cloud_Experiment_FR_REAL,001,41,
images/fcloud65-35_D1.9_9.tif,1.9,1,,,,,,,,,,,,,0,61,61,94,,,,,,,,,,,1,space,6.2012157,5,1.202,,,,,,,,,,,,,,,,,,2019_Apr_17_1828,60.57676348009513,Cloud_Experiment_FR_REAL,001,41,
images/fcloud65-35_D1_9.tif,1.0,1,,,,,,,,,,,,,0,62,62,58,,,,,,,,,,,2,space,4.1028218,4,1.086,,,,,,,,,,,,,,,,,,2019_Apr_17_1828,60.57676348009513,Cloud_Experiment_FR_REAL,001,41,
images/fcloud65-35_D1.6_8.tif,1.6,1,,,,,,,,,,,,,0,63,63,81,,,,,,,,,,,None,None,,None,10.441,,,,,,,,,,,,,,,,,,2019_Apr_17_1828,60.57676348009513,Cloud_Experiment_FR_REAL,001,41,
images/fcloud80-20_D1.4_8.tif,1.4,2,,,,,,,,,,,,,0,64,64,121,,,,,,,,,,,2,space,4.0234472,2,1.32,,,,,,,,,,,,,,,,,,2019_Apr_17_1828,60.57676348009513,Cloud_Experiment_FR_REAL,001,41,
images/fcloud65-35_D1.7_7.tif,1.7,1,,,,,,,,,,,,,0,65,65,84,,,,,,,,,,,2,space,4.3707932,5,1.118,,,,,,,,,,,,,,,,,,2019_Apr_17_1828,60.57676348009513,Cloud_Experiment_FR_REAL,001,41,
images/fcloud80-20_D1.9_8.tif,1.9,2,,,,,,,,,,,,,0,66,66,141,,,,,,,,,,,2,space,2.9211581,1,0.554,,,,,,,,,,,,,,,,,,2019_Apr_17_1828,60.57676348009513,Cloud_Experiment_FR_REAL,001,41,
images/fcloud80-20_D1.8_8.tif,1.8,2,,,,,,,,,,,,,0,67,67,137,,,,,,,,,,,None,None,,None,9.36,,,,,,,,,,,,,,,,,,2019_Apr_17_1828,60.57676348009513,Cloud_Experiment_FR_REAL,001,41,
images/fcloud_D1.8_7.tif,1.8,0,,,,,,,,,,,,,0,68,68,40,,,,,,,,,,,3,space,2.8154242,2,1.001,,,,,,,,,,,,,,,,,,2019_Apr_17_1828,60.57676348009513,Cloud_Experiment_FR_REAL,001,41,
images/fcloud80-20_D1.1_9.tif,1.1,2,,,,,,,,,,,,,0,69,69,110,,,,,,,,,,,2,space,6.4434801,3,1.335,,,,,,,,,,,,,,,,,,2019_Apr_17_1828,60.57676348009513,Cloud_Experiment_FR_REAL,001,41,
images/fcloud_D1.3_7.tif,1.3,0,,,,,,,,,,,,,0,70,70,20,,,,,,,,,,,4,space,2.685243,4,2.283,,,,,,,,,,,,,,,,,,2019_Apr_17_1828,60.57676348009513,Cloud_Experiment_FR_REAL,001,41,
images/fcloud65-35_D1.7_9.tif,1.7,1,,,,,,,,,,,,,0,71,71,86,,,,,,,,,,,2,space,3.6786107,5,1.368,,,,,,,,,,,,,,,,,,2019_Apr_17_1828,60.57676348009513,Cloud_Experiment_FR_REAL,001,41,
images/fcloud80-20_D1.5_10.tif,1.5,2,,,,,,,,,,,,,0,72,72,127,,,,,,,,,,,1,space,10.8543572,1,0.621,,,,,,,,,,,,,,,,,,2019_Apr_17_1828,60.57676348009513,Cloud_Experiment_FR_REAL,001,41,
images/fcloud80-20_D1.7_10.tif,1.7,2,,,,,,,,,,,,,0,73,73,135,,,,,,,,,,,None,None,,None,9.827,,,,,,,,,,,,,,,,,,2019_Apr_17_1828,60.57676348009513,Cloud_Experiment_FR_REAL,001,41,
images/fcloud80-20_D1.4_9.tif,1.4,2,,,,,,,,,,,,,0,74,74,122,,,,,,,,,,,3,space,3.0201649,2,1.552,,,,,,,,,,,,,,,,,,2019_Apr_17_1828,60.57676348009513,Cloud_Experiment_FR_REAL,001,41,
images/fcloud_D1.3_10.tif,1.3,0,,,,,,,,,,,,,0,75,75,23,,,,,,,,,,,3,space,2.8049928,3,1.19,,,,,,,,,,,,,,,,,,2019_Apr_17_1828,60.57676348009513,Cloud_Experiment_FR_REAL,001,41,
images/fcloud_D1_10.tif,1.0,0,,,,,,,,,,,,,0,76,76,11,,,,,,,,,,,3,space,4.1229942,3,3.084,,,,,,,,,,,,,,,,,,2019_Apr_17_1828,60.57676348009513,Cloud_Experiment_FR_REAL,001,41,
images/fcloud80-20_D1.1_7.tif,1.1,2,,,,,,,,,,,,,0,77,77,108,,,,,,,,,,,3,space,2.254576,2,2.234,,,,,,,,,,,,,,,,,,2019_Apr_17_1828,60.57676348009513,Cloud_Experiment_FR_REAL,001,41,
images/fcloud80-20_D1_9.tif,1.0,2,,,,,,,,,,,,,0,78,78,106,,,,,,,,,,,1,space,4.0778281,1,0.469,,,,,,,,,,,,,,,,,,2019_Apr_17_1828,60.57676348009513,Cloud_Experiment_FR_REAL,001,41,
images/fcloud65-35_D0.9_8.tif,0.9,1,,,,,,,,,,,,,0,79,79,53,,,,,,,,,,,1,None,,1,1.152,,,,,,,,,,,,,,,,,,2019_Apr_17_1828,60.57676348009513,Cloud_Experiment_FR_REAL,001,41,
images/fcloud80-20_D0.9_7.tif,0.9,2,,,,,,,,,,,,,0,80,80,100,,,,,,,,,,,2,space,2.6071713,2,1.252,,,,,,,,,,,,,,,,,,2019_Apr_17_1828,60.57676348009513,Cloud_Experiment_FR_REAL,001,41,
images/fcloud80-20_D1.9_7.tif,1.9,2,,,,,,,,,,,,,0,81,81,140,,,,,,,,,,,3,space,2.6771903,3,1.386,,,,,,,,,,,,,,,,,,2019_Apr_17_1828,60.57676348009513,Cloud_Experiment_FR_REAL,001,41,
images/fcloud_D1.6_9.tif,1.6,0,,,,,,,,,,,,,0,82,82,34,,,,,,,,,,,3,space,5.4545176,4,1.952,,,,,,,,,,,,,,,,,,2019_Apr_17_1828,60.57676348009513,Cloud_Experiment_FR_REAL,001,41,
images/fcloud65-35_D1.2_8.tif,1.2,1,,,,,,,,,,,,,0,83,83,65,,,,,,,,,,,1,space,7.7369909,1,0.469,,,,,,,,,,,,,,,,,,2019_Apr_17_1828,60.57676348009513,Cloud_Experiment_FR_REAL,001,41,
images/fcloud_D1.1_10.tif,1.1,0,,,,,,,,,,,,,0,84,84,15,,,,,,,,,,,3,space,2.9232306,4,2.953,,,,,,,,,,,,,,,,,,2019_Apr_17_1828,60.57676348009513,Cloud_Experiment_FR_REAL,001,41,
images/fcloud_D1.6_10.tif,1.6,0,,,,,,,,,,,,,0,85,85,35,,,,,,,,,,,2,space,5.8580378,3,1.603,,,,,,,,,,,,,,,,,,2019_Apr_17_1828,60.57676348009513,Cloud_Experiment_FR_REAL,001,41,
images/fcloud65-35_D0.8_9.tif,0.8,1,,,,,,,,,,,,,0,86,86,50,,,,,,,,,,,3,space,3.7551581,2,3.401,,,,,,,,,,,,,,,,,,2019_Apr_17_1828,60.57676348009513,Cloud_Experiment_FR_REAL,001,41,
images/fcloud80-20_D1.5_8.tif,1.5,2,,,,,,,,,,,,,0,87,87,125,,,,,,,,,,,4,space,4.8024828,2,5.48,,,,,,,,,,,,,,,,,,2019_Apr_17_1828,60.57676348009513,Cloud_Experiment_FR_REAL,001,41,
images/fcloud_D0.9_8.tif,0.9,0,,,,,,,,,,,,,0,88,88,5,,,,,,,,,,,1,None,,1,0.536,,,,,,,,,,,,,,,,,,2019_Apr_17_1828,60.57676348009513,Cloud_Experiment_FR_REAL,001,41,
images/fcloud_D1.8_8.tif,1.8,0,,,,,,,,,,,,,0,89,89,41,,,,,,,,,,,2,space,5.4886491,2,1.902,,,,,,,,,,,,,,,,,,2019_Apr_17_1828,60.57676348009513,Cloud_Experiment_FR_REAL,001,41,
images/fcloud_D0.8_7.tif,0.8,0,,,,,,,,,,,,,0,90,90,0,,,,,,,,,,,2,space,4.7033024,4,1.102,,,,,,,,,,,,,,,,,,2019_Apr_17_1828,60.57676348009513,Cloud_Experiment_FR_REAL,001,41,
images/fcloud65-35_D0.9_9.tif,0.9,1,,,,,,,,,,,,,0,91,91,54,,,,,,,,,,,2,space,6.5036516,1,0.885,,,,,,,,,,,,,,,,,,2019_Apr_17_1828,60.57676348009513,Cloud_Experiment_FR_REAL,001,41,
images/fcloud65-35_D1.8_8.tif,1.8,1,,,,,,,,,,,,,0,92,92,89,,,,,,,,,,,3,space,3.5897375,4,0.686,,,,,,,,,,,,,,,,,,2019_Apr_17_1828,60.57676348009513,Cloud_Experiment_FR_REAL,001,41,
images/fcloud65-35_D0.8_8.tif,0.8,1,,,,,,,,,,,,,0,93,93,49,,,,,,,,,,,1,space,5.5577606,3,0.868,,,,,,,,,,,,,,,,,,2019_Apr_17_1828,60.57676348009513,Cloud_Experiment_FR_REAL,001,41,
images/fcloud80-20_D1.1_8.tif,1.1,2,,,,,,,,,,,,,0,94,94,109,,,,,,,,,,,2,space,2.3587961,4,0.952,,,,,,,,,,,,,,,,,,2019_Apr_17_1828,60.57676348009513,Cloud_Experiment_FR_REAL,001,41,
images/fcloud80-20_D0.9_8.tif,0.9,2,,,,,,,,,,,,,0,95,95,101,,,,,,,,,,,1,space,2.4747381,5,0.853,,,,,,,,,,,,,,,,,,2019_Apr_17_1828,60.57676348009513,Cloud_Experiment_FR_REAL,001,41,
images/fcloud80-20_D1.4_7.tif,1.4,2,,,,,,,,,,,,,0,96,96,120,,,,,,,,,,,4,space,2.3912949,5,2.884,,,,,,,,,,,,,,,,,,2019_Apr_17_1828,60.57676348009513,Cloud_Experiment_FR_REAL,001,41,
images/fcloud65-35_D1_10.tif,1.0,1,,,,,,,,,,,,,0,97,97,59,,,,,,,,,,,None,None,,None,12.042,,,,,,,,,,,,,,,,,,2019_Apr_17_1828,60.57676348009513,Cloud_Experiment_FR_REAL,001,41,
images/fcloud65-35_D1.1_7.tif,1.1,1,,,,,,,,,,,,,0,98,98,60,,,,,,,,,,,2,space,1.5655418,1,0.802,,,,,,,,,,,,,,,,,,2019_Apr_17_1828,60.57676348009513,Cloud_Experiment_FR_REAL,001,41,
images/fcloud80-20_D1.9_9.tif,1.9,2,,,,,,,,,,,,,0,99,99,142,,,,,,,,,,,2,space,4.349933,1,2.751,,,,,,,,,,,,,,,,,,2019_Apr_17_1828,60.57676348009513,Cloud_Experiment_FR_REAL,001,41,
images/fcloud65-35_D1.2_9.tif,1.2,1,,,,,,,,,,,,,0,100,100,66,,,,,,,,,,,1,space,7.089981,1,0.684,,,,,,,,,,,,,,,,,,2019_Apr_17_1828,60.57676348009513,Cloud_Experiment_FR_REAL,001,41,
images/fcloud65-35_D1.2_7.tif,1.2,1,,,,,,,,,,,,,0,101,101,64,,,,,,,,,,,2,space,2.5012354,2,0.452,,,,,,,,,,,,,,,,,,2019_Apr_17_1828,60.57676348009513,Cloud_Experiment_FR_REAL,001,41,
images/fcloud80-20_D1.6_9.tif,1.6,2,,,,,,,,,,,,,0,102,102,130,,,,,,,,,,,3,space,4.450521,3,2.036,,,,,,,,,,,,,,,,,,2019_Apr_17_1828,60.57676348009513,Cloud_Experiment_FR_REAL,001,41,
images/fcloud80-20_D1.3_10.tif,1.3,2,,,,,,,,,,,,,0,103,103,119,,,,,,,,,,,2,space,2.2402086,3,2.337,,,,,,,,,,,,,,,,,,2019_Apr_17_1828,60.57676348009513,Cloud_Experiment_FR_REAL,001,41,
images/fcloud80-20_D1.7_8.tif,1.7,2,,,,,,,,,,,,,0,104,104,133,,,,,,,,,,,1,space,4.9891277,4,1.585,,,,,,,,,,,,,,,,,,2019_Apr_17_1828,60.57676348009513,Cloud_Experiment_FR_REAL,001,41,
images/fcloud80-20_D0.8_10.tif,0.8,2,,,,,,,,,,,,,0,105,105,99,,,,,,,,,,,2,space,2.1422289,5,1.235,,,,,,,,,,,,,,,,,,2019_Apr_17_1828,60.57676348009513,Cloud_Experiment_FR_REAL,001,41,
images/fcloud80-20_D1.6_10.tif,1.6,2,,,,,,,,,,,,,0,106,106,131,,,,,,,,,,,2,space,3.6662944,4,9.894,,,,,,,,,,,,,,,,,,2019_Apr_17_1828,60.57676348009513,Cloud_Experiment_FR_REAL,001,41,
images/fcloud65-35_D1.1_8.tif,1.1,1,,,,,,,,,,,,,0,107,107,61,,,,,,,,,,,1,space,1.9656935,1,1.135,,,,,,,,,,,,,,,,,,2019_Apr_17_1828,60.57676348009513,Cloud_Experiment_FR_REAL,001,41,
images/fcloud_D1_8.tif,1.0,0,,,,,,,,,,,,,0,108,108,9,,,,,,,,,,,None,None,,None,9.661,,,,,,,,,,,,,,,,,,2019_Apr_17_1828,60.57676348009513,Cloud_Experiment_FR_REAL,001,41,
images/fcloud65-35_D0.8_10.tif,0.8,1,,,,,,,,,,,,,0,109,109,51,,,,,,,,,,,5,space,1.647032,2,4.551,,,,,,,,,,,,,,,,,,2019_Apr_17_1828,60.57676348009513,Cloud_Experiment_FR_REAL,001,41,
images/fcloud80-20_D1.4_10.tif,1.4,2,,,,,,,,,,,,,0,110,110,123,,,,,,,,,,,1,space,3.604788,5,0.819,,,,,,,,,,,,,,,,,,2019_Apr_17_1828,60.57676348009513,Cloud_Experiment_FR_REAL,001,41,
images/fcloud65-35_D1.1_9.tif,1.1,1,,,,,,,,,,,,,0,111,111,62,,,,,,,,,,,1,None,,2,1.103,,,,,,,,,,,,,,,,,,2019_Apr_17_1828,60.57676348009513,Cloud_Experiment_FR_REAL,001,41,
images/fcloud_D1.9_7.tif,1.9,0,,,,,,,,,,,,,0,112,112,44,,,,,,,,,,,1,space,1.4911771,3,1.304,,,,,,,,,,,,,,,,,,2019_Apr_17_1828,60.57676348009513,Cloud_Experiment_FR_REAL,001,41,
images/fcloud65-35_D1.3_9.tif,1.3,1,,,,,,,,,,,,,0,113,113,70,,,,,,,,,,,2,space,4.9059854,1,1.451,,,,,,,,,,,,,,,,,,2019_Apr_17_1828,60.57676348009513,Cloud_Experiment_FR_REAL,001,41,
images/fcloud_D1.8_10.tif,1.8,0,,,,,,,,,,,,,0,114,114,43,,,,,,,,,,,1,space,3.7906948,1,0.854,,,,,,,,,,,,,,,,,,2019_Apr_17_1828,60.57676348009513,Cloud_Experiment_FR_REAL,001,41,
images/fcloud80-20_D1.5_7.tif,1.5,2,,,,,,,,,,,,,0,115,115,124,,,,,,,,,,,1,space,2.4079036,3,0.986,,,,,,,,,,,,,,,,,,2019_Apr_17_1828,60.57676348009513,Cloud_Experiment_FR_REAL,001,41,
images/fcloud65-35_D1.4_8.tif,1.4,1,,,,,,,,,,,,,0,116,116,73,,,,,,,,,,,2,space,2.3701513,4,1.136,,,,,,,,,,,,,,,,,,2019_Apr_17_1828,60.57676348009513,Cloud_Experiment_FR_REAL,001,41,
images/fcloud_D1.1_7.tif,1.1,0,,,,,,,,,,,,,0,117,117,12,,,,,,,,,,,2,space,1.8236536,3,2.283,,,,,,,,,,,,,,,,,,2019_Apr_17_1828,60.57676348009513,Cloud_Experiment_FR_REAL,001,41,
images/fcloud65-35_D1.4_10.tif,1.4,1,,,,,,,,,,,,,0,118,118,75,,,,,,,,,,,4,space,3.2736647,5,1.85,,,,,,,,,,,,,,,,,,2019_Apr_17_1828,60.57676348009513,Cloud_Experiment_FR_REAL,001,41,
images/fcloud80-20_D1.6_7.tif,1.6,2,,,,,,,,,,,,,0,119,119,128,,,,,,,,,,,1,space,4.0202933,3,0.886,,,,,,,,,,,,,,,,,,2019_Apr_17_1828,60.57676348009513,Cloud_Experiment_FR_REAL,001,41,
images/fcloud_D1_9.tif,1.0,0,,,,,,,,,,,,,0,120,120,10,,,,,,,,,,,3,space,1.5873563,2,1.335,,,,,,,,,,,,,,,,,,2019_Apr_17_1828,60.57676348009513,Cloud_Experiment_FR_REAL,001,41,
images/fcloud80-20_D1.3_9.tif,1.3,2,,,,,,,,,,,,,0,121,121,118,,,,,,,,,,,None,None,,None,9.908,,,,,,,,,,,,,,,,,,2019_Apr_17_1828,60.57676348009513,Cloud_Experiment_FR_REAL,001,41,
images/fcloud80-20_D1.5_9.tif,1.5,2,,,,,,,,,,,,,0,122,122,126,,,,,,,,,,,None,None,,None,19.935,,,,,,,,,,,,,,,,,,2019_Apr_17_1828,60.57676348009513,Cloud_Experiment_FR_REAL,001,41,
images/fcloud80-20_D1.6_8.tif,1.6,2,,,,,,,,,,,,,0,123,123,129,,,,,,,,,,,1,space,2.9284935,3,0.952,,,,,,,,,,,,,,,,,,2019_Apr_17_1828,60.57676348009513,Cloud_Experiment_FR_REAL,001,41,
images/fcloud80-20_D1.3_8.tif,1.3,2,,,,,,,,,,,,,0,124,124,117,,,,,,,,,,,3,space,3.4716417,4,2.402,,,,,,,,,,,,,,,,,,2019_Apr_17_1828,60.57676348009513,Cloud_Experiment_FR_REAL,001,41,
images/fcloud65-35_D1.7_10.tif,1.7,1,,,,,,,,,,,,,0,125,125,87,,,,,,,,,,,1,space,3.2797246,2,1.285,,,,,,,,,,,,,,,,,,2019_Apr_17_1828,60.57676348009513,Cloud_Experiment_FR_REAL,001,41,
images/fcloud_D0.8_9.tif,0.8,0,,,,,,,,,,,,,0,126,126,2,,,,,,,,,,,None,None,,None,10.192,,,,,,,,,,,,,,,,,,2019_Apr_17_1828,60.57676348009513,Cloud_Experiment_FR_REAL,001,41,
images/fcloud65-35_D1_8.tif,1.0,1,,,,,,,,,,,,,0,127,127,57,,,,,,,,,,,2,space,3.5101615,3,1.668,,,,,,,,,,,,,,,,,,2019_Apr_17_1828,60.57676348009513,Cloud_Experiment_FR_REAL,001,41,
images/fcloud_D1.9_9.tif,1.9,0,,,,,,,,,,,,,0,128,128,46,,,,,,,,,,,None,None,,None,12.658,,,,,,,,,,,,,,,,,,2019_Apr_17_1828,60.57676348009513,Cloud_Experiment_FR_REAL,001,41,
images/fcloud80-20_D0.8_7.tif,0.8,2,,,,,,,,,,,,,0,129,129,96,,,,,,,,,,,1,space,5.3273725,4,0.969,,,,,,,,,,,,,,,,,,2019_Apr_17_1828,60.57676348009513,Cloud_Experiment_FR_REAL,001,41,
images/fcloud80-20_D0.8_9.tif,0.8,2,,,,,,,,,,,,,0,130,130,98,,,,,,,,,,,2,space,5.3052128,2,2.402,,,,,,,,,,,,,,,,,,2019_Apr_17_1828,60.57676348009513,Cloud_Experiment_FR_REAL,001,41,
images/fcloud_D1.3_8.tif,1.3,0,,,,,,,,,,,,,0,131,131,21,,,,,,,,,,,1,None,,1,0.601,,,,,,,,,,,,,,,,,,2019_Apr_17_1828,60.57676348009513,Cloud_Experiment_FR_REAL,001,41,
images/fcloud80-20_D1.8_10.tif,1.8,2,,,,,,,,,,,,,0,132,132,139,,,,,,,,,,,2,space,3.7606972,4,0.952,,,,,,,,,,,,,,,,,,2019_Apr_17_1828,60.57676348009513,Cloud_Experiment_FR_REAL,001,41,
images/fcloud_D1.2_7.tif,1.2,0,,,,,,,,,,,,,0,133,133,16,,,,,,,,,,,1,space,4.9074276,3,1.118,,,,,,,,,,,,,,,,,,2019_Apr_17_1828,60.57676348009513,Cloud_Experiment_FR_REAL,001,41,
images/fcloud80-20_D1_10.tif,1.0,2,,,,,,,,,,,,,0,134,134,107,,,,,,,,,,,4,space,1.9288092,3,1.135,,,,,,,,,,,,,,,,,,2019_Apr_17_1828,60.57676348009513,Cloud_Experiment_FR_REAL,001,41,
images/fcloud_D1.2_9.tif,1.2,0,,,,,,,,,,,,,0,135,135,18,,,,,,,,,,,5,space,4.5737274,3,3.935,,,,,,,,,,,,,,,,,,2019_Apr_17_1828,60.57676348009513,Cloud_Experiment_FR_REAL,001,41,
images/fcloud65-35_D1.3_8.tif,1.3,1,,,,,,,,,,,,,0,136,136,69,,,,,,,,,,,3,space,4.0236624,2,4.816,,,,,,,,,,,,,,,,,,2019_Apr_17_1828,60.57676348009513,Cloud_Experiment_FR_REAL,001,41,
images/fcloud65-35_D1.3_10.tif,1.3,1,,,,,,,,,,,,,0,137,137,71,,,,,,,,,,,3,space,1.3425945,4,1.253,,,,,,,,,,,,,,,,,,2019_Apr_17_1828,60.57676348009513,Cloud_Experiment_FR_REAL,001,41,
images/fcloud_D0.9_10.tif,0.9,0,,,,,,,,,,,,,0,138,138,7,,,,,,,,,,,None,None,,None,11.345,,,,,,,,,,,,,,,,,,2019_Apr_17_1828,60.57676348009513,Cloud_Experiment_FR_REAL,001,41,
images/fcloud80-20_D1.8_9.tif,1.8,2,,,,,,,,,,,,,0,139,139,138,,,,,,,,,,,2,space,4.5242739,3,1.036,,,,,,,,,,,,,,,,,,2019_Apr_17_1828,60.57676348009513,Cloud_Experiment_FR_REAL,001,41,
images/fcloud_D1.7_7.tif,1.7,0,,,,,,,,,,,,,0,140,140,36,,,,,,,,,,,2,space,4.7192603,4,1.086,,,,,,,,,,,,,,,,,,2019_Apr_17_1828,60.57676348009513,Cloud_Experiment_FR_REAL,001,41,
images/fcloud_D1.9_10.tif,1.9,0,,,,,,,,,,,,,0,141,141,47,,,,,,,,,,,None,None,,None,10.094,,,,,,,,,,,,,,,,,,2019_Apr_17_1828,60.57676348009513,Cloud_Experiment_FR_REAL,001,41,
images/fcloud80-20_D0.9_9.tif,0.9,2,,,,,,,,,,,,,0,142,142,102,,,,,,,,,,,3,space,2.342583,2,4.034,,,,,,,,,,,,,,,,,,2019_Apr_17_1828,60.57676348009513,Cloud_Experiment_FR_REAL,001,41,
images/fcloud_D1.5_8.tif,1.5,0,,,,,,,,,,,,,0,143,143,29,,,,,,,,,,,5,space,1.590097,5,0.736,,,,,,,,,,,,,,,,,,2019_Apr_17_1828,60.57676348009513,Cloud_Experiment_FR_REAL,001,41,
,,,,,,,,,,,,,,,,,,,,,,,,,3,13.116,,,,,,,,,,,,,,,,,,,,,,,,,2019_Apr_17_1828,60.57676348009513,Cloud_Experiment_FR_REAL,001,41,
,,,,,,,,,,,,,,,,,,,,,,,,,,,,,,,,,,4,,,,,,,,,,,,,,,,,2019_Apr_17_1828,60.57676348009513,Cloud_Experiment_FR_REAL,001,41,
,,,,,,,,,,,,,,,,,,,,,,,,,,,,,,,,,,,3,,,,,,,,,,,,,,,,2019_Apr_17_1828,60.57676348009513,Cloud_Experiment_FR_REAL,001,41,
,,,,,,,,,,,,,,,,,,,,,,,,,,,,,,,,,,,,7,,,,,,,,,,,,,,,2019_Apr_17_1828,60.57676348009513,Cloud_Experiment_FR_REAL,001,41,
,,,,,,,,,,,,,,,,,,,,,,,,,,,,,,,,,,,,,4,,,,,,,,,,,,,,2019_Apr_17_1828,60.57676348009513,Cloud_Experiment_FR_REAL,001,41,
,,,,,,,,,,,,,,,,,,,,,,,,,,,,,,,,,,,,,,5,,,,,,,,,,,,,2019_Apr_17_1828,60.57676348009513,Cloud_Experiment_FR_REAL,001,41,
,,,,,,,,,,,,,,,,,,,,,,,,,,,,,,,,,,,,,,,7,,,,,,,,,,,,2019_Apr_17_1828,60.57676348009513,Cloud_Experiment_FR_REAL,001,41,
,,,,,,,,,,,,,,,,,,,,,,,,,,,,,,,,,,,,,,,,7,,,,,,,,,,,2019_Apr_17_1828,60.57676348009513,Cloud_Experiment_FR_REAL,001,41,
,,,,,,,,,,,,,,,,,,,,,,,,,,,,,,,,,,,,,,,,,7,,,,,,,,,,2019_Apr_17_1828,60.57676348009513,Cloud_Experiment_FR_REAL,001,41,
,,,,,,,,,,,,,,,,,,,,,,,,,,,,,,,,,,,,,,,,,,6,,,,,,,,,2019_Apr_17_1828,60.57676348009513,Cloud_Experiment_FR_REAL,001,41,
,,,,,,,,,,,,,,,,,,,,,,,,,,,,,,,,,,,,,,,,,,,4,,,,,,,,2019_Apr_17_1828,60.57676348009513,Cloud_Experiment_FR_REAL,001,41,
,,,,,,,,,,,,,,,,,,,,,,,,,,,,,,,,,,,,,,,,,,,,,,,,,,3,2019_Apr_17_1828,60.57676348009513,Cloud_Experiment_FR_REAL,001,41,
