ImageFile,FD,Contrast,trials_4.thisRepN,trials_4.thisTrialN,trials_4.thisN,trials_4.thisIndex,trials.thisRepN,trials.thisTrialN,trials.thisN,trials.thisIndex,trials_2.thisRepN,trials_2.thisTrialN,trials_2.thisN,trials_2.thisIndex,trials_3.thisRepN,trials_3.thisTrialN,trials_3.thisN,trials_3.thisIndex,end_instructions.keys,end_instructions.rt,key_resp_4.keys,key_resp_4.rt,key_resp_6.keys,key_resp_6.rt,Fatigue.response,Fatigue.rt,key_resp_5.keys,key_resp_5.rt,n_objets.response,reaction_time.keys,reaction_time.rt,vividness.response,vividness.rt,Flow01.response,Flow02.response,Flow03.response,Flow04.response,Flow05.response,Flow06.response,Flow07.response,Flow08.response,Flow09.response,Flow10.response,key_resp_2.keys,key_resp_2.rt,key_resp_8.keys,key_resp_8.rt,key_resp_3.keys,key_resp_3.rt,Redondance_question.response,date,frameRate,expName,session,participant,
,,,,,,,,,,,,,,,,,,,space,10.7097065,,,,,,,,,,,,,,,,,,,,,,,,,,,,,,,2019_Apr_22_1709,59.912491824659405,Cloud_Experiment_FR_REAL,001,42,
,,,,,,,,,,,,,,,,,,,,,space,29.8080724,,,,,,,,,,,,,,,,,,,,,,,,,,,,,2019_Apr_22_1709,59.912491824659405,Cloud_Experiment_FR_REAL,001,42,
,,,,,,,,,,,,,,,,,,,,,,,space,10.8076073,,,,,,,,,,,,,,,,,,,,,,,,,,,2019_Apr_22_1709,59.912491824659405,Cloud_Experiment_FR_REAL,001,42,
,,,,,,,,,,,,,,,,,,,,,,,,,7,177.295,,,,,,,,,,,,,,,,,,,,,,,,,2019_Apr_22_1709,59.912491824659405,Cloud_Experiment_FR_REAL,001,42,
,,,,,,,,,,,,,,,,,,,,,,,,,,,space,5.7445416,,,,,,,,,,,,,,,,,,,,,,,2019_Apr_22_1709,59.912491824659405,Cloud_Experiment_FR_REAL,001,42,
pratique/fcloud65-35_D1.3_30,1.3,1,0,0,0,6,,,,,,,,,,,,,,,,,,,,,,,1,space,30.7738652,3,8.212,,,,,,,,,,,,,,,,,,2019_Apr_22_1709,59.912491824659405,Cloud_Experiment_FR_REAL,001,42,
pratique/fcloud65-35_D1.9_29,1.9,1,0,1,1,7,,,,,,,,,,,,,,,,,,,,,,,2,space,3.70662119996,4,3.649,,,,,,,,,,,,,,,,,,2019_Apr_22_1709,59.912491824659405,Cloud_Experiment_FR_REAL,001,42,
pratique/fcloud80-20_D1.5_30,1.5,2,0,2,2,8,,,,,,,,,,,,,,,,,,,,,,,4,space,2.34786710003,3,3.3,,,,,,,,,,,,,,,,,,2019_Apr_22_1709,59.912491824659405,Cloud_Experiment_FR_REAL,001,42,
pratique/fcloud_D1.4_30,1.4,0,0,3,3,1,,,,,,,,,,,,,,,,,,,,,,,2,space,3.37824809999,3,2.851,,,,,,,,,,,,,,,,,,2019_Apr_22_1709,59.912491824659405,Cloud_Experiment_FR_REAL,001,42,
pratique/fcloud_D0.8_30,0.8,0,0,4,4,0,,,,,,,,,,,,,,,,,,,,,,,2,space,3.07940829999,2,2.667,,,,,,,,,,,,,,,,,,2019_Apr_22_1709,59.912491824659405,Cloud_Experiment_FR_REAL,001,42,
pratique/fcloud80-20_D1_30,1.0,2,0,5,5,9,,,,,,,,,,,,,,,,,,,,,,,1,space,1.97197050002,1,1.168,,,,,,,,,,,,,,,,,,2019_Apr_22_1709,59.912491824659405,Cloud_Experiment_FR_REAL,001,42,
pratique/fcloud_D1.6_28,1.6,0,0,6,6,5,,,,,,,,,,,,,,,,,,,,,,,2,space,1.69134999998,4,5.981,,,,,,,,,,,,,,,,,,2019_Apr_22_1709,59.912491824659405,Cloud_Experiment_FR_REAL,001,42,
pratique/fcloud65-35_D1.2_30,1.2,1,0,7,7,3,,,,,,,,,,,,,,,,,,,,,,,3,space,2.90688170004,2,2.4,,,,,,,,,,,,,,,,,,2019_Apr_22_1709,59.912491824659405,Cloud_Experiment_FR_REAL,001,42,
pratique/fcloud80-20_D1.8_30,1.8,2,0,8,8,4,,,,,,,,,,,,,,,,,,,,,,,1,space,4.36060740001,1,1.035,,,,,,,,,,,,,,,,,,2019_Apr_22_1709,59.912491824659405,Cloud_Experiment_FR_REAL,001,42,
pratique/fcloud65-35_D1.6_30,1.6,1,0,9,9,2,,,,,,,,,,,,,,,,,,,,,,,2,space,2.29598729999,3,1.584,,,,,,,,,,,,,,,,,,2019_Apr_22_1709,59.912491824659405,Cloud_Experiment_FR_REAL,001,42,
,,,,,,,,,,,,,,,,,,,,,,,,,,,,,,,,,,4,,,,,,,,,,,,,,,,,2019_Apr_22_1709,59.912491824659405,Cloud_Experiment_FR_REAL,001,42,
,,,,,,,,,,,,,,,,,,,,,,,,,,,,,,,,,,,6,,,,,,,,,,,,,,,,2019_Apr_22_1709,59.912491824659405,Cloud_Experiment_FR_REAL,001,42,
,,,,,,,,,,,,,,,,,,,,,,,,,,,,,,,,,,,,4,,,,,,,,,,,,,,,2019_Apr_22_1709,59.912491824659405,Cloud_Experiment_FR_REAL,001,42,
,,,,,,,,,,,,,,,,,,,,,,,,,,,,,,,,,,,,,7,,,,,,,,,,,,,,2019_Apr_22_1709,59.912491824659405,Cloud_Experiment_FR_REAL,001,42,
,,,,,,,,,,,,,,,,,,,,,,,,,,,,,,,,,,,,,,6,,,,,,,,,,,,,2019_Apr_22_1709,59.912491824659405,Cloud_Experiment_FR_REAL,001,42,
,,,,,,,,,,,,,,,,,,,,,,,,,,,,,,,,,,,,,,,4,,,,,,,,,,,,2019_Apr_22_1709,59.912491824659405,Cloud_Experiment_FR_REAL,001,42,
,,,,,,,,,,,,,,,,,,,,,,,,,,,,,,,,,,,,,,,,4,,,,,,,,,,,2019_Apr_22_1709,59.912491824659405,Cloud_Experiment_FR_REAL,001,42,
,,,,,,,,,,,,,,,,,,,,,,,,,,,,,,,,,,,,,,,,,6,,,,,,,,,,2019_Apr_22_1709,59.912491824659405,Cloud_Experiment_FR_REAL,001,42,
,,,,,,,,,,,,,,,,,,,,,,,,,,,,,,,,,,,,,,,,,,7,,,,,,,,,2019_Apr_22_1709,59.912491824659405,Cloud_Experiment_FR_REAL,001,42,
,,,,,,,,,,,,,,,,,,,,,,,,,,,,,,,,,,,,,,,,,,,2,,,,,,,,2019_Apr_22_1709,59.912491824659405,Cloud_Experiment_FR_REAL,001,42,
,,,,,,,,,,,,,,,,,,,,,,,,,,,,,,,,,,,,,,,,,,,,space,2.58270619996,,,,,,2019_Apr_22_1709,59.912491824659405,Cloud_Experiment_FR_REAL,001,42,
images/fcloud_D1.8_3.tif,1.8,0,,,,,0,0,0,32,,,,,,,,,,,,,,,,,,,3,space,5.03414959996,2,2.268,,,,,,,,,,,,,,,,,,2019_Apr_22_1709,59.912491824659405,Cloud_Experiment_FR_REAL,001,42,
images/fcloud80-20_D1_2.tif,1.0,2,,,,,0,1,1,79,,,,,,,,,,,,,,,,,,,2,space,3.39290090004,4,2.866,,,,,,,,,,,,,,,,,,2019_Apr_22_1709,59.912491824659405,Cloud_Experiment_FR_REAL,001,42,
images/fcloud_D1.1_3.tif,1.1,0,,,,,0,2,2,11,,,,,,,,,,,,,,,,,,,3,space,1.6073498,4,2.633,,,,,,,,,,,,,,,,,,2019_Apr_22_1709,59.912491824659405,Cloud_Experiment_FR_REAL,001,42,
images/fcloud65-35_D1.1_2.tif,1.1,1,,,,,0,3,3,46,,,,,,,,,,,,,,,,,,,1,space,6.09397240001,1,0.951,,,,,,,,,,,,,,,,,,2019_Apr_22_1709,59.912491824659405,Cloud_Experiment_FR_REAL,001,42,
images/fcloud65-35_D1.2_1.tif,1.2,1,,,,,0,4,4,48,,,,,,,,,,,,,,,,,,,2,space,3.70769729995,4,1.652,,,,,,,,,,,,,,,,,,2019_Apr_22_1709,59.912491824659405,Cloud_Experiment_FR_REAL,001,42,
images/fcloud_D1.2_2.tif,1.2,0,,,,,0,5,5,13,,,,,,,,,,,,,,,,,,,2,space,4.22340449999,3,1.684,,,,,,,,,,,,,,,,,,2019_Apr_22_1709,59.912491824659405,Cloud_Experiment_FR_REAL,001,42,
images/fcloud65-35_D1.3_3.tif,1.3,1,,,,,0,6,6,53,,,,,,,,,,,,,,,,,,,1,space,6.550131,1,0.802,,,,,,,,,,,,,,,,,,2019_Apr_22_1709,59.912491824659405,Cloud_Experiment_FR_REAL,001,42,
images/fcloud80-20_D1.5_1.tif,1.5,2,,,,,0,7,7,93,,,,,,,,,,,,,,,,,,,1,space,4.74629699998,5,2.65,,,,,,,,,,,,,,,,,,2019_Apr_22_1709,59.912491824659405,Cloud_Experiment_FR_REAL,001,42,
images/fcloud_D1.4_2.tif,1.4,0,,,,,0,8,8,19,,,,,,,,,,,,,,,,,,,2,space,1.72231249994,3,1.584,,,,,,,,,,,,,,,,,,2019_Apr_22_1709,59.912491824659405,Cloud_Experiment_FR_REAL,001,42,
images/fcloud65-35_D1.3_2.tif,1.3,1,,,,,0,9,9,52,,,,,,,,,,,,,,,,,,,1,space,4.78017370001,2,1.004,,,,,,,,,,,,,,,,,,2019_Apr_22_1709,59.912491824659405,Cloud_Experiment_FR_REAL,001,42,
images/fcloud_D1_2.tif,1.0,0,,,,,0,10,10,7,,,,,,,,,,,,,,,,,,,2,space,3.7203321,4,1.701,,,,,,,,,,,,,,,,,,2019_Apr_22_1709,59.912491824659405,Cloud_Experiment_FR_REAL,001,42,
images/fcloud_D1.8_2.tif,1.8,0,,,,,0,11,11,31,,,,,,,,,,,,,,,,,,,2,space,5.47445360001,2,1.95,,,,,,,,,,,,,,,,,,2019_Apr_22_1709,59.912491824659405,Cloud_Experiment_FR_REAL,001,42,
images/fcloud_D1.3_2.tif,1.3,0,,,,,0,12,12,16,,,,,,,,,,,,,,,,,,,2,space,1.80007709999,1,1.984,,,,,,,,,,,,,,,,,,2019_Apr_22_1709,59.912491824659405,Cloud_Experiment_FR_REAL,001,42,
images/fcloud65-35_D1.7_2.tif,1.7,1,,,,,0,13,13,64,,,,,,,,,,,,,,,,,,,1,space,7.5330155,1,0.618,,,,,,,,,,,,,,,,,,2019_Apr_22_1709,59.912491824659405,Cloud_Experiment_FR_REAL,001,42,
images/fcloud65-35_D1.8_3.tif,1.8,1,,,,,0,14,14,68,,,,,,,,,,,,,,,,,,,2,space,3.52198630001,1,1.983,,,,,,,,,,,,,,,,,,2019_Apr_22_1709,59.912491824659405,Cloud_Experiment_FR_REAL,001,42,
images/fcloud80-20_D0.9_2.tif,0.9,2,,,,,0,15,15,76,,,,,,,,,,,,,,,,,,,2,space,4.20226769999,3,3.267,,,,,,,,,,,,,,,,,,2019_Apr_22_1709,59.912491824659405,Cloud_Experiment_FR_REAL,001,42,
images/fcloud_D1.9_2.tif,1.9,0,,,,,0,16,16,34,,,,,,,,,,,,,,,,,,,3,space,3.71068309998,2,3.715,,,,,,,,,,,,,,,,,,2019_Apr_22_1709,59.912491824659405,Cloud_Experiment_FR_REAL,001,42,
images/fcloud65-35_D1.6_2.tif,1.6,1,,,,,0,17,17,61,,,,,,,,,,,,,,,,,,,1,None,,1,0.619,,,,,,,,,,,,,,,,,,2019_Apr_22_1709,59.912491824659405,Cloud_Experiment_FR_REAL,001,42,
images/fcloud65-35_D1.2_2.tif,1.2,1,,,,,0,18,18,49,,,,,,,,,,,,,,,,,,,2,space,5.19297259999,4,1.784,,,,,,,,,,,,,,,,,,2019_Apr_22_1709,59.912491824659405,Cloud_Experiment_FR_REAL,001,42,
images/fcloud_D1_3.tif,1.0,0,,,,,0,19,19,8,,,,,,,,,,,,,,,,,,,4,space,4.37521230004,5,2.649,,,,,,,,,,,,,,,,,,2019_Apr_22_1709,59.912491824659405,Cloud_Experiment_FR_REAL,001,42,
images/fcloud80-20_D1_3.tif,1.0,2,,,,,0,20,20,80,,,,,,,,,,,,,,,,,,,2,space,5.12045589997,1,2.134,,,,,,,,,,,,,,,,,,2019_Apr_22_1709,59.912491824659405,Cloud_Experiment_FR_REAL,001,42,
images/fcloud_D1.6_3.tif,1.6,0,,,,,0,21,21,26,,,,,,,,,,,,,,,,,,,1,space,4.00457220001,1,3.198,,,,,,,,,,,,,,,,,,2019_Apr_22_1709,59.912491824659405,Cloud_Experiment_FR_REAL,001,42,
images/fcloud65-35_D1.9_3.tif,1.9,1,,,,,0,22,22,71,,,,,,,,,,,,,,,,,,,None,None,,None,13.122,,,,,,,,,,,,,,,,,,2019_Apr_22_1709,59.912491824659405,Cloud_Experiment_FR_REAL,001,42,
images/fcloud_D1.5_2.tif,1.5,0,,,,,0,23,23,22,,,,,,,,,,,,,,,,,,,1,space,4.42796820001,1,2.0,,,,,,,,,,,,,,,,,,2019_Apr_22_1709,59.912491824659405,Cloud_Experiment_FR_REAL,001,42,
images/fcloud65-35_D1.5_2.tif,1.5,1,,,,,0,24,24,58,,,,,,,,,,,,,,,,,,,1,space,6.21753989998,4,2.567,,,,,,,,,,,,,,,,,,2019_Apr_22_1709,59.912491824659405,Cloud_Experiment_FR_REAL,001,42,
images/fcloud80-20_D1.8_1.tif,1.8,2,,,,,0,25,25,102,,,,,,,,,,,,,,,,,,,2,space,2.45595839998,4,2.234,,,,,,,,,,,,,,,,,,2019_Apr_22_1709,59.912491824659405,Cloud_Experiment_FR_REAL,001,42,
images/fcloud_D1.2_3.tif,1.2,0,,,,,0,26,26,14,,,,,,,,,,,,,,,,,,,1,space,2.22821299999,5,1.368,,,,,,,,,,,,,,,,,,2019_Apr_22_1709,59.912491824659405,Cloud_Experiment_FR_REAL,001,42,
images/fcloud80-20_D1.6_3.tif,1.6,2,,,,,0,27,27,98,,,,,,,,,,,,,,,,,,,1,space,4.27562709997,3,4.482,,,,,,,,,,,,,,,,,,2019_Apr_22_1709,59.912491824659405,Cloud_Experiment_FR_REAL,001,42,
images/fcloud_D1_1.tif,1.0,0,,,,,0,28,28,6,,,,,,,,,,,,,,,,,,,2,space,3.7053272,4,2.749,,,,,,,,,,,,,,,,,,2019_Apr_22_1709,59.912491824659405,Cloud_Experiment_FR_REAL,001,42,
images/fcloud65-35_D1.7_3.tif,1.7,1,,,,,0,29,29,65,,,,,,,,,,,,,,,,,,,2,space,4.94076769997,4,2.55,,,,,,,,,,,,,,,,,,2019_Apr_22_1709,59.912491824659405,Cloud_Experiment_FR_REAL,001,42,
images/fcloud80-20_D1.6_1.tif,1.6,2,,,,,0,30,30,96,,,,,,,,,,,,,,,,,,,1,space,4.21777600003,1,2.067,,,,,,,,,,,,,,,,,,2019_Apr_22_1709,59.912491824659405,Cloud_Experiment_FR_REAL,001,42,
images/fcloud80-20_D1.4_2.tif,1.4,2,,,,,0,31,31,91,,,,,,,,,,,,,,,,,,,1,space,4.07907670003,2,2.036,,,,,,,,,,,,,,,,,,2019_Apr_22_1709,59.912491824659405,Cloud_Experiment_FR_REAL,001,42,
images/fcloud65-35_D1_1.tif,1.0,1,,,,,0,32,32,42,,,,,,,,,,,,,,,,,,,None,None,,None,12.19,,,,,,,,,,,,,,,,,,2019_Apr_22_1709,59.912491824659405,Cloud_Experiment_FR_REAL,001,42,
images/fcloud80-20_D1.2_2.tif,1.2,2,,,,,0,33,33,85,,,,,,,,,,,,,,,,,,,1,space,6.27675109997,3,1.135,,,,,,,,,,,,,,,,,,2019_Apr_22_1709,59.912491824659405,Cloud_Experiment_FR_REAL,001,42,
images/fcloud_D0.9_1.tif,0.9,0,,,,,0,34,34,3,,,,,,,,,,,,,,,,,,,1,space,3.86942100001,5,1.317,,,,,,,,,,,,,,,,,,2019_Apr_22_1709,59.912491824659405,Cloud_Experiment_FR_REAL,001,42,
images/fcloud_D1.6_1.tif,1.6,0,,,,,0,35,35,24,,,,,,,,,,,,,,,,,,,2,space,2.9400691,4,3.449,,,,,,,,,,,,,,,,,,2019_Apr_22_1709,59.912491824659405,Cloud_Experiment_FR_REAL,001,42,
images/fcloud_D1.5_1.tif,1.5,0,,,,,0,36,36,21,,,,,,,,,,,,,,,,,,,3,space,5.17373920005,3,2.284,,,,,,,,,,,,,,,,,,2019_Apr_22_1709,59.912491824659405,Cloud_Experiment_FR_REAL,001,42,
images/fcloud65-35_D1.8_1.tif,1.8,1,,,,,0,37,37,66,,,,,,,,,,,,,,,,,,,3,space,5.3836383,2,2.284,,,,,,,,,,,,,,,,,,2019_Apr_22_1709,59.912491824659405,Cloud_Experiment_FR_REAL,001,42,
images/fcloud80-20_D1.8_3.tif,1.8,2,,,,,0,38,38,104,,,,,,,,,,,,,,,,,,,1,space,3.41823060001,5,1.285,,,,,,,,,,,,,,,,,,2019_Apr_22_1709,59.912491824659405,Cloud_Experiment_FR_REAL,001,42,
images/fcloud80-20_D1.9_2.tif,1.9,2,,,,,0,39,39,106,,,,,,,,,,,,,,,,,,,1,space,4.22948370001,4,3.666,,,,,,,,,,,,,,,,,,2019_Apr_22_1709,59.912491824659405,Cloud_Experiment_FR_REAL,001,42,
images/fcloud_D1.7_3.tif,1.7,0,,,,,0,40,40,29,,,,,,,,,,,,,,,,,,,1,space,5.71375329996,3,2.849,,,,,,,,,,,,,,,,,,2019_Apr_22_1709,59.912491824659405,Cloud_Experiment_FR_REAL,001,42,
images/fcloud80-20_D1.9_1.tif,1.9,2,,,,,0,41,41,105,,,,,,,,,,,,,,,,,,,None,None,,None,12.307,,,,,,,,,,,,,,,,,,2019_Apr_22_1709,59.912491824659405,Cloud_Experiment_FR_REAL,001,42,
images/fcloud_D1.4_3.tif,1.4,0,,,,,0,42,42,20,,,,,,,,,,,,,,,,,,,2,space,3.98180219997,3,2.6,,,,,,,,,,,,,,,,,,2019_Apr_22_1709,59.912491824659405,Cloud_Experiment_FR_REAL,001,42,
images/fcloud80-20_D1_1.tif,1.0,2,,,,,0,43,43,78,,,,,,,,,,,,,,,,,,,1,space,2.49675479997,4,2.401,,,,,,,,,,,,,,,,,,2019_Apr_22_1709,59.912491824659405,Cloud_Experiment_FR_REAL,001,42,
images/fcloud65-35_D1.4_2.tif,1.4,1,,,,,0,44,44,55,,,,,,,,,,,,,,,,,,,2,space,3.36570600001,1,3.0,,,,,,,,,,,,,,,,,,2019_Apr_22_1709,59.912491824659405,Cloud_Experiment_FR_REAL,001,42,
images/fcloud65-35_D1_2.tif,1.0,1,,,,,0,45,45,43,,,,,,,,,,,,,,,,,,,2,space,1.86400200002,4,2.765,,,,,,,,,,,,,,,,,,2019_Apr_22_1709,59.912491824659405,Cloud_Experiment_FR_REAL,001,42,
images/fcloud80-20_D0.8_2.tif,0.8,2,,,,,0,46,46,73,,,,,,,,,,,,,,,,,,,2,space,0.906418800005,4,2.216,,,,,,,,,,,,,,,,,,2019_Apr_22_1709,59.912491824659405,Cloud_Experiment_FR_REAL,001,42,
images/fcloud65-35_D1.9_1.tif,1.9,1,,,,,0,47,47,69,,,,,,,,,,,,,,,,,,,1,space,4.84872210003,5,1.868,,,,,,,,,,,,,,,,,,2019_Apr_22_1709,59.912491824659405,Cloud_Experiment_FR_REAL,001,42,
images/fcloud_D1.3_1.tif,1.3,0,,,,,0,48,48,15,,,,,,,,,,,,,,,,,,,1,space,3.76817400003,2,1.384,,,,,,,,,,,,,,,,,,2019_Apr_22_1709,59.912491824659405,Cloud_Experiment_FR_REAL,001,42,
images/fcloud_D1.1_1.tif,1.1,0,,,,,0,49,49,9,,,,,,,,,,,,,,,,,,,1,space,2.00620210002,5,2.55,,,,,,,,,,,,,,,,,,2019_Apr_22_1709,59.912491824659405,Cloud_Experiment_FR_REAL,001,42,
images/fcloud65-35_D1.3_1.tif,1.3,1,,,,,0,50,50,51,,,,,,,,,,,,,,,,,,,None,None,,None,11.874,,,,,,,,,,,,,,,,,,2019_Apr_22_1709,59.912491824659405,Cloud_Experiment_FR_REAL,001,42,
images/fcloud80-20_D0.9_1.tif,0.9,2,,,,,0,51,51,75,,,,,,,,,,,,,,,,,,,1,space,4.31418629998,1,1.485,,,,,,,,,,,,,,,,,,2019_Apr_22_1709,59.912491824659405,Cloud_Experiment_FR_REAL,001,42,
images/fcloud_D1.9_1.tif,1.9,0,,,,,0,52,52,33,,,,,,,,,,,,,,,,,,,1,space,4.49703670002,3,1.885,,,,,,,,,,,,,,,,,,2019_Apr_22_1709,59.912491824659405,Cloud_Experiment_FR_REAL,001,42,
images/fcloud_D1.4_1.tif,1.4,0,,,,,0,53,53,18,,,,,,,,,,,,,,,,,,,4,space,2.4452737,5,1.835,,,,,,,,,,,,,,,,,,2019_Apr_22_1709,59.912491824659405,Cloud_Experiment_FR_REAL,001,42,
images/fcloud65-35_D0.8_2.tif,0.8,1,,,,,0,54,54,37,,,,,,,,,,,,,,,,,,,1,space,3.43432489998,4,1.151,,,,,,,,,,,,,,,,,,2019_Apr_22_1709,59.912491824659405,Cloud_Experiment_FR_REAL,001,42,
images/fcloud80-20_D1.5_2.tif,1.5,2,,,,,0,55,55,94,,,,,,,,,,,,,,,,,,,3,space,2.39498620003,3,2.217,,,,,,,,,,,,,,,,,,2019_Apr_22_1709,59.912491824659405,Cloud_Experiment_FR_REAL,001,42,
images/fcloud65-35_D0.8_3.tif,0.8,1,,,,,0,56,56,38,,,,,,,,,,,,,,,,,,,2,space,1.52542030002,5,1.418,,,,,,,,,,,,,,,,,,2019_Apr_22_1709,59.912491824659405,Cloud_Experiment_FR_REAL,001,42,
images/fcloud65-35_D0.9_1.tif,0.9,1,,,,,0,57,57,39,,,,,,,,,,,,,,,,,,,2,space,1.9531325,4,1.901,,,,,,,,,,,,,,,,,,2019_Apr_22_1709,59.912491824659405,Cloud_Experiment_FR_REAL,001,42,
images/fcloud65-35_D1.5_3.tif,1.5,1,,,,,0,58,58,59,,,,,,,,,,,,,,,,,,,1,space,6.21115579997,3,3.533,,,,,,,,,,,,,,,,,,2019_Apr_22_1709,59.912491824659405,Cloud_Experiment_FR_REAL,001,42,
images/fcloud_D1.8_1.tif,1.8,0,,,,,0,59,59,30,,,,,,,,,,,,,,,,,,,1,space,6.70314719999,2,3.283,,,,,,,,,,,,,,,,,,2019_Apr_22_1709,59.912491824659405,Cloud_Experiment_FR_REAL,001,42,
images/fcloud65-35_D1.4_1.tif,1.4,1,,,,,0,60,60,54,,,,,,,,,,,,,,,,,,,2,space,7.0623474,1,0.884,,,,,,,,,,,,,,,,,,2019_Apr_22_1709,59.912491824659405,Cloud_Experiment_FR_REAL,001,42,
images/fcloud65-35_D1.9_2.tif,1.9,1,,,,,0,61,61,70,,,,,,,,,,,,,,,,,,,5,space,4.81502800004,4,1.368,,,,,,,,,,,,,,,,,,2019_Apr_22_1709,59.912491824659405,Cloud_Experiment_FR_REAL,001,42,
images/fcloud65-35_D1.6_3.tif,1.6,1,,,,,0,62,62,62,,,,,,,,,,,,,,,,,,,2,space,2.58387609996,4,2.083,,,,,,,,,,,,,,,,,,2019_Apr_22_1709,59.912491824659405,Cloud_Experiment_FR_REAL,001,42,
images/fcloud80-20_D0.8_3.tif,0.8,2,,,,,0,63,63,74,,,,,,,,,,,,,,,,,,,1,space,4.03767990001,3,1.933,,,,,,,,,,,,,,,,,,2019_Apr_22_1709,59.912491824659405,Cloud_Experiment_FR_REAL,001,42,
images/fcloud_D0.9_2.tif,0.9,0,,,,,0,64,64,4,,,,,,,,,,,,,,,,,,,1,space,3.75239059998,5,1.051,,,,,,,,,,,,,,,,,,2019_Apr_22_1709,59.912491824659405,Cloud_Experiment_FR_REAL,001,42,
images/fcloud80-20_D1.9_3.tif,1.9,2,,,,,0,65,65,107,,,,,,,,,,,,,,,,,,,None,None,,None,10.509,,,,,,,,,,,,,,,,,,2019_Apr_22_1709,59.912491824659405,Cloud_Experiment_FR_REAL,001,42,
images/fcloud_D1.3_3.tif,1.3,0,,,,,0,66,66,17,,,,,,,,,,,,,,,,,,,3,space,2.57667700003,3,3.517,,,,,,,,,,,,,,,,,,2019_Apr_22_1709,59.912491824659405,Cloud_Experiment_FR_REAL,001,42,
images/fcloud_D1.6_2.tif,1.6,0,,,,,0,67,67,25,,,,,,,,,,,,,,,,,,,1,space,6.10894140002,1,1.718,,,,,,,,,,,,,,,,,,2019_Apr_22_1709,59.912491824659405,Cloud_Experiment_FR_REAL,001,42,
images/fcloud65-35_D0.9_3.tif,0.9,1,,,,,0,68,68,41,,,,,,,,,,,,,,,,,,,1,space,7.73464420001,1,1.368,,,,,,,,,,,,,,,,,,2019_Apr_22_1709,59.912491824659405,Cloud_Experiment_FR_REAL,001,42,
images/fcloud_D1.9_3.tif,1.9,0,,,,,0,69,69,35,,,,,,,,,,,,,,,,,,,3,space,2.25857780001,3,1.436,,,,,,,,,,,,,,,,,,2019_Apr_22_1709,59.912491824659405,Cloud_Experiment_FR_REAL,001,42,
images/fcloud_D1.1_2.tif,1.1,0,,,,,0,70,70,10,,,,,,,,,,,,,,,,,,,1,space,6.73082609999,1,1.034,,,,,,,,,,,,,,,,,,2019_Apr_22_1709,59.912491824659405,Cloud_Experiment_FR_REAL,001,42,
images/fcloud80-20_D1.7_1.tif,1.7,2,,,,,0,71,71,99,,,,,,,,,,,,,,,,,,,2,space,4.48436920001,3,2.367,,,,,,,,,,,,,,,,,,2019_Apr_22_1709,59.912491824659405,Cloud_Experiment_FR_REAL,001,42,
images/fcloud80-20_D0.9_3.tif,0.9,2,,,,,0,72,72,77,,,,,,,,,,,,,,,,,,,1,space,2.06213899999,4,2.301,,,,,,,,,,,,,,,,,,2019_Apr_22_1709,59.912491824659405,Cloud_Experiment_FR_REAL,001,42,
images/fcloud80-20_D1.1_1.tif,1.1,2,,,,,0,73,73,81,,,,,,,,,,,,,,,,,,,1,space,4.89658870001,1,1.12,,,,,,,,,,,,,,,,,,2019_Apr_22_1709,59.912491824659405,Cloud_Experiment_FR_REAL,001,42,
images/fcloud65-35_D1.1_1.tif,1.1,1,,,,,0,74,74,45,,,,,,,,,,,,,,,,,,,1,space,1.28153709997,2,3.499,,,,,,,,,,,,,,,,,,2019_Apr_22_1709,59.912491824659405,Cloud_Experiment_FR_REAL,001,42,
images/fcloud65-35_D1.7_1.tif,1.7,1,,,,,0,75,75,63,,,,,,,,,,,,,,,,,,,1,space,4.13140469999,2,0.786,,,,,,,,,,,,,,,,,,2019_Apr_22_1709,59.912491824659405,Cloud_Experiment_FR_REAL,001,42,
images/fcloud_D0.8_1.tif,0.8,0,,,,,0,76,76,0,,,,,,,,,,,,,,,,,,,2,space,4.4040559,3,2.367,,,,,,,,,,,,,,,,,,2019_Apr_22_1709,59.912491824659405,Cloud_Experiment_FR_REAL,001,42,
images/fcloud80-20_D1.5_3.tif,1.5,2,,,,,0,77,77,95,,,,,,,,,,,,,,,,,,,1,space,6.34373399999,2,1.567,,,,,,,,,,,,,,,,,,2019_Apr_22_1709,59.912491824659405,Cloud_Experiment_FR_REAL,001,42,
images/fcloud65-35_D1.4_3.tif,1.4,1,,,,,0,78,78,56,,,,,,,,,,,,,,,,,,,1,space,3.21815149998,1,0.569,,,,,,,,,,,,,,,,,,2019_Apr_22_1709,59.912491824659405,Cloud_Experiment_FR_REAL,001,42,
images/fcloud65-35_D0.8_1.tif,0.8,1,,,,,0,79,79,36,,,,,,,,,,,,,,,,,,,1,space,5.50186650001,1,0.469,,,,,,,,,,,,,,,,,,2019_Apr_22_1709,59.912491824659405,Cloud_Experiment_FR_REAL,001,42,
images/fcloud65-35_D1.8_2.tif,1.8,1,,,,,0,80,80,67,,,,,,,,,,,,,,,,,,,None,None,,None,9.509,,,,,,,,,,,,,,,,,,2019_Apr_22_1709,59.912491824659405,Cloud_Experiment_FR_REAL,001,42,
images/fcloud_D1.5_3.tif,1.5,0,,,,,0,81,81,23,,,,,,,,,,,,,,,,,,,1,space,5.6562881,3,0.984,,,,,,,,,,,,,,,,,,2019_Apr_22_1709,59.912491824659405,Cloud_Experiment_FR_REAL,001,42,
images/fcloud80-20_D1.4_3.tif,1.4,2,,,,,0,82,82,92,,,,,,,,,,,,,,,,,,,2,space,2.24134290003,5,1.501,,,,,,,,,,,,,,,,,,2019_Apr_22_1709,59.912491824659405,Cloud_Experiment_FR_REAL,001,42,
images/fcloud65-35_D1_3.tif,1.0,1,,,,,0,83,83,44,,,,,,,,,,,,,,,,,,,1,space,1.5129728,5,0.868,,,,,,,,,,,,,,,,,,2019_Apr_22_1709,59.912491824659405,Cloud_Experiment_FR_REAL,001,42,
images/fcloud80-20_D1.3_1.tif,1.3,2,,,,,0,84,84,87,,,,,,,,,,,,,,,,,,,1,space,4.45361139998,4,1.151,,,,,,,,,,,,,,,,,,2019_Apr_22_1709,59.912491824659405,Cloud_Experiment_FR_REAL,001,42,
images/fcloud80-20_D0.8_1.tif,0.8,2,,,,,0,85,85,72,,,,,,,,,,,,,,,,,,,1,space,5.545621,2,1.036,,,,,,,,,,,,,,,,,,2019_Apr_22_1709,59.912491824659405,Cloud_Experiment_FR_REAL,001,42,
images/fcloud80-20_D1.3_3.tif,1.3,2,,,,,0,86,86,89,,,,,,,,,,,,,,,,,,,1,space,1.41559029999,5,1.119,,,,,,,,,,,,,,,,,,2019_Apr_22_1709,59.912491824659405,Cloud_Experiment_FR_REAL,001,42,
images/fcloud_D1.7_2.tif,1.7,0,,,,,0,87,87,28,,,,,,,,,,,,,,,,,,,None,None,,None,11.308,,,,,,,,,,,,,,,,,,2019_Apr_22_1709,59.912491824659405,Cloud_Experiment_FR_REAL,001,42,
images/fcloud65-35_D1.6_1.tif,1.6,1,,,,,0,88,88,60,,,,,,,,,,,,,,,,,,,2,space,3.64192890003,4,1.735,,,,,,,,,,,,,,,,,,2019_Apr_22_1709,59.912491824659405,Cloud_Experiment_FR_REAL,001,42,
images/fcloud65-35_D1.1_3.tif,1.1,1,,,,,0,89,89,47,,,,,,,,,,,,,,,,,,,2,space,1.3191887,4,1.184,,,,,,,,,,,,,,,,,,2019_Apr_22_1709,59.912491824659405,Cloud_Experiment_FR_REAL,001,42,
images/fcloud_D0.9_3.tif,0.9,0,,,,,0,90,90,5,,,,,,,,,,,,,,,,,,,2,space,2.87675689999,3,3.382,,,,,,,,,,,,,,,,,,2019_Apr_22_1709,59.912491824659405,Cloud_Experiment_FR_REAL,001,42,
images/fcloud_D1.2_1.tif,1.2,0,,,,,0,91,91,12,,,,,,,,,,,,,,,,,,,2,space,3.70532779995,3,1.6,,,,,,,,,,,,,,,,,,2019_Apr_22_1709,59.912491824659405,Cloud_Experiment_FR_REAL,001,42,
images/fcloud_D0.8_3.tif,0.8,0,,,,,0,92,92,2,,,,,,,,,,,,,,,,,,,2,space,1.21724669996,5,1.566,,,,,,,,,,,,,,,,,,2019_Apr_22_1709,59.912491824659405,Cloud_Experiment_FR_REAL,001,42,
images/fcloud65-35_D0.9_2.tif,0.9,1,,,,,0,93,93,40,,,,,,,,,,,,,,,,,,,1,space,4.7842164,1,1.184,,,,,,,,,,,,,,,,,,2019_Apr_22_1709,59.912491824659405,Cloud_Experiment_FR_REAL,001,42,
images/fcloud80-20_D1.2_3.tif,1.2,2,,,,,0,94,94,86,,,,,,,,,,,,,,,,,,,1,space,7.0272596,1,1.385,,,,,,,,,,,,,,,,,,2019_Apr_22_1709,59.912491824659405,Cloud_Experiment_FR_REAL,001,42,
images/fcloud80-20_D1.6_2.tif,1.6,2,,,,,0,95,95,97,,,,,,,,,,,,,,,,,,,4,space,3.3019427,3,1.584,,,,,,,,,,,,,,,,,,2019_Apr_22_1709,59.912491824659405,Cloud_Experiment_FR_REAL,001,42,
images/fcloud80-20_D1.7_3.tif,1.7,2,,,,,0,96,96,101,,,,,,,,,,,,,,,,,,,2,space,4.28866949998,1,1.235,,,,,,,,,,,,,,,,,,2019_Apr_22_1709,59.912491824659405,Cloud_Experiment_FR_REAL,001,42,
images/fcloud80-20_D1.4_1.tif,1.4,2,,,,,0,97,97,90,,,,,,,,,,,,,,,,,,,None,None,,None,10.941,,,,,,,,,,,,,,,,,,2019_Apr_22_1709,59.912491824659405,Cloud_Experiment_FR_REAL,001,42,
images/fcloud80-20_D1.3_2.tif,1.3,2,,,,,0,98,98,88,,,,,,,,,,,,,,,,,,,1,space,6.52642890002,3,1.485,,,,,,,,,,,,,,,,,,2019_Apr_22_1709,59.912491824659405,Cloud_Experiment_FR_REAL,001,42,
images/fcloud80-20_D1.7_2.tif,1.7,2,,,,,0,99,99,100,,,,,,,,,,,,,,,,,,,2,space,3.23661929998,1,2.451,,,,,,,,,,,,,,,,,,2019_Apr_22_1709,59.912491824659405,Cloud_Experiment_FR_REAL,001,42,
images/fcloud80-20_D1.1_2.tif,1.1,2,,,,,0,100,100,82,,,,,,,,,,,,,,,,,,,1,space,5.28065560001,1,0.886,,,,,,,,,,,,,,,,,,2019_Apr_22_1709,59.912491824659405,Cloud_Experiment_FR_REAL,001,42,
images/fcloud_D1.7_1.tif,1.7,0,,,,,0,101,101,27,,,,,,,,,,,,,,,,,,,3,space,3.33851709997,4,2.517,,,,,,,,,,,,,,,,,,2019_Apr_22_1709,59.912491824659405,Cloud_Experiment_FR_REAL,001,42,
images/fcloud65-35_D1.2_3.tif,1.2,1,,,,,0,102,102,50,,,,,,,,,,,,,,,,,,,4,space,1.07420179999,3,2.75,,,,,,,,,,,,,,,,,,2019_Apr_22_1709,59.912491824659405,Cloud_Experiment_FR_REAL,001,42,
images/fcloud80-20_D1.2_1.tif,1.2,2,,,,,0,103,103,84,,,,,,,,,,,,,,,,,,,3,space,4.32905340003,2,1.65,,,,,,,,,,,,,,,,,,2019_Apr_22_1709,59.912491824659405,Cloud_Experiment_FR_REAL,001,42,
images/fcloud65-35_D1.5_1.tif,1.5,1,,,,,0,104,104,57,,,,,,,,,,,,,,,,,,,1,space,5.92507579998,4,1.435,,,,,,,,,,,,,,,,,,2019_Apr_22_1709,59.912491824659405,Cloud_Experiment_FR_REAL,001,42,
images/fcloud80-20_D1.8_2.tif,1.8,2,,,,,0,105,105,103,,,,,,,,,,,,,,,,,,,1,space,6.2806535,1,1.684,,,,,,,,,,,,,,,,,,2019_Apr_22_1709,59.912491824659405,Cloud_Experiment_FR_REAL,001,42,
images/fcloud_D0.8_2.tif,0.8,0,,,,,0,106,106,1,,,,,,,,,,,,,,,,,,,2,space,2.26578999998,3,0.768,,,,,,,,,,,,,,,,,,2019_Apr_22_1709,59.912491824659405,Cloud_Experiment_FR_REAL,001,42,
images/fcloud80-20_D1.1_3.tif,1.1,2,,,,,0,107,107,83,,,,,,,,,,,,,,,,,,,4,space,6.50723270001,3,0.951,,,,,,,,,,,,,,,,,,2019_Apr_22_1709,59.912491824659405,Cloud_Experiment_FR_REAL,001,42,
,,,,,,,,,,,,,,,,,,,,,,,,,,,,,,,,,,,,,,,,,,,,,,space,3.5803036,,,,2019_Apr_22_1709,59.912491824659405,Cloud_Experiment_FR_REAL,001,42,
,,,,,,,,,,,,,,,,,,,,,,,,,5,6.129,,,,,,,,,,,,,,,,,,,,,,,,,2019_Apr_22_1709,59.912491824659405,Cloud_Experiment_FR_REAL,001,42,
,,,,,,,,,,,,,,,,,,,,,,,,,,,,,,,,,,5,,,,,,,,,,,,,,,,,2019_Apr_22_1709,59.912491824659405,Cloud_Experiment_FR_REAL,001,42,
,,,,,,,,,,,,,,,,,,,,,,,,,,,,,,,,,,,5,,,,,,,,,,,,,,,,2019_Apr_22_1709,59.912491824659405,Cloud_Experiment_FR_REAL,001,42,
,,,,,,,,,,,,,,,,,,,,,,,,,,,,,,,,,,,,5,,,,,,,,,,,,,,,2019_Apr_22_1709,59.912491824659405,Cloud_Experiment_FR_REAL,001,42,
,,,,,,,,,,,,,,,,,,,,,,,,,,,,,,,,,,,,,4,,,,,,,,,,,,,,2019_Apr_22_1709,59.912491824659405,Cloud_Experiment_FR_REAL,001,42,
,,,,,,,,,,,,,,,,,,,,,,,,,,,,,,,,,,,,,,4,,,,,,,,,,,,,2019_Apr_22_1709,59.912491824659405,Cloud_Experiment_FR_REAL,001,42,
,,,,,,,,,,,,,,,,,,,,,,,,,,,,,,,,,,,,,,,6,,,,,,,,,,,,2019_Apr_22_1709,59.912491824659405,Cloud_Experiment_FR_REAL,001,42,
,,,,,,,,,,,,,,,,,,,,,,,,,,,,,,,,,,,,,,,,6,,,,,,,,,,,2019_Apr_22_1709,59.912491824659405,Cloud_Experiment_FR_REAL,001,42,
,,,,,,,,,,,,,,,,,,,,,,,,,,,,,,,,,,,,,,,,,7,,,,,,,,,,2019_Apr_22_1709,59.912491824659405,Cloud_Experiment_FR_REAL,001,42,
,,,,,,,,,,,,,,,,,,,,,,,,,,,,,,,,,,,,,,,,,,6,,,,,,,,,2019_Apr_22_1709,59.912491824659405,Cloud_Experiment_FR_REAL,001,42,
,,,,,,,,,,,,,,,,,,,,,,,,,,,,,,,,,,,,,,,,,,,4,,,,,,,,2019_Apr_22_1709,59.912491824659405,Cloud_Experiment_FR_REAL,001,42,
,,,,,,,,,,,,,,,,,,,,,,,,,,,,,,,,,,,,,,,,,,,,,,,,space,64.5607643,,2019_Apr_22_1709,59.912491824659405,Cloud_Experiment_FR_REAL,001,42,
images/fcloud65-35_D1.9_4.tif,1.9,1,,,,,,,,,0,0,0,69,,,,,,,,,,,,,,,3,space,5.20345680002,3,3.499,,,,,,,,,,,,,,,,,,2019_Apr_22_1709,59.912491824659405,Cloud_Experiment_FR_REAL,001,42,
images/fcloud_D1.1_6.tif,1.1,0,,,,,,,,,0,1,1,11,,,,,,,,,,,,,,,4,space,1.09503600001,4,1.635,,,,,,,,,,,,,,,,,,2019_Apr_22_1709,59.912491824659405,Cloud_Experiment_FR_REAL,001,42,
images/fcloud65-35_D1.6_6.tif,1.6,1,,,,,,,,,0,2,2,62,,,,,,,,,,,,,,,3,space,2.30920699995,4,1.202,,,,,,,,,,,,,,,,,,2019_Apr_22_1709,59.912491824659405,Cloud_Experiment_FR_REAL,001,42,
images/fcloud_D1.3_4.tif,1.3,0,,,,,,,,,0,3,3,15,,,,,,,,,,,,,,,2,space,2.7669241,3,1.551,,,,,,,,,,,,,,,,,,2019_Apr_22_1709,59.912491824659405,Cloud_Experiment_FR_REAL,001,42,
images/fcloud65-35_D1.6_5.tif,1.6,1,,,,,,,,,0,4,4,61,,,,,,,,,,,,,,,4,space,2.23304610001,3,1.367,,,,,,,,,,,,,,,,,,2019_Apr_22_1709,59.912491824659405,Cloud_Experiment_FR_REAL,001,42,
images/fcloud80-20_D1.6_6.tif,1.6,2,,,,,,,,,0,5,5,98,,,,,,,,,,,,,,,2,space,4.1570455,1,0.635,,,,,,,,,,,,,,,,,,2019_Apr_22_1709,59.912491824659405,Cloud_Experiment_FR_REAL,001,42,
images/fcloud_D1_6.tif,1.0,0,,,,,,,,,0,6,6,8,,,,,,,,,,,,,,,1,space,1.22333400004,5,1.968,,,,,,,,,,,,,,,,,,2019_Apr_22_1709,59.912491824659405,Cloud_Experiment_FR_REAL,001,42,
images/fcloud_D1.7_5.tif,1.7,0,,,,,,,,,0,7,7,28,,,,,,,,,,,,,,,2,space,3.59701970004,3,0.935,,,,,,,,,,,,,,,,,,2019_Apr_22_1709,59.912491824659405,Cloud_Experiment_FR_REAL,001,42,
images/fcloud_D1.1_4.tif,1.1,0,,,,,,,,,0,8,8,9,,,,,,,,,,,,,,,3,space,1.49608680001,4,3.782,,,,,,,,,,,,,,,,,,2019_Apr_22_1709,59.912491824659405,Cloud_Experiment_FR_REAL,001,42,
images/fcloud65-35_D0.9_5.tif,0.9,1,,,,,,,,,0,9,9,40,,,,,,,,,,,,,,,1,space,7.53609890002,2,1.584,,,,,,,,,,,,,,,,,,2019_Apr_22_1709,59.912491824659405,Cloud_Experiment_FR_REAL,001,42,
images/fcloud65-35_D1_6.tif,1.0,1,,,,,,,,,0,10,10,44,,,,,,,,,,,,,,,1,space,1.26624900004,1,1.102,,,,,,,,,,,,,,,,,,2019_Apr_22_1709,59.912491824659405,Cloud_Experiment_FR_REAL,001,42,
images/fcloud80-20_D0.9_6.tif,0.9,2,,,,,,,,,0,11,11,77,,,,,,,,,,,,,,,None,None,,None,11.108,,,,,,,,,,,,,,,,,,2019_Apr_22_1709,59.912491824659405,Cloud_Experiment_FR_REAL,001,42,
images/fcloud65-35_D1.7_5.tif,1.7,1,,,,,,,,,0,12,12,64,,,,,,,,,,,,,,,2,space,3.65541299997,4,1.368,,,,,,,,,,,,,,,,,,2019_Apr_22_1709,59.912491824659405,Cloud_Experiment_FR_REAL,001,42,
images/fcloud80-20_D1.1_4.tif,1.1,2,,,,,,,,,0,13,13,81,,,,,,,,,,,,,,,1,space,5.0533491,1,0.568,,,,,,,,,,,,,,,,,,2019_Apr_22_1709,59.912491824659405,Cloud_Experiment_FR_REAL,001,42,
images/fcloud_D1.5_5.tif,1.5,0,,,,,,,,,0,14,14,22,,,,,,,,,,,,,,,2,space,6.42472220003,3,1.184,,,,,,,,,,,,,,,,,,2019_Apr_22_1709,59.912491824659405,Cloud_Experiment_FR_REAL,001,42,
images/fcloud80-20_D1.2_5.tif,1.2,2,,,,,,,,,0,15,15,85,,,,,,,,,,,,,,,3,space,1.25292689999,4,1.135,,,,,,,,,,,,,,,,,,2019_Apr_22_1709,59.912491824659405,Cloud_Experiment_FR_REAL,001,42,
images/fcloud65-35_D1.4_6.tif,1.4,1,,,,,,,,,0,16,16,56,,,,,,,,,,,,,,,2,space,2.99610640004,5,1.8,,,,,,,,,,,,,,,,,,2019_Apr_22_1709,59.912491824659405,Cloud_Experiment_FR_REAL,001,42,
images/fcloud65-35_D0.9_6.tif,0.9,1,,,,,,,,,0,17,17,41,,,,,,,,,,,,,,,1,space,6.48043520004,1,0.986,,,,,,,,,,,,,,,,,,2019_Apr_22_1709,59.912491824659405,Cloud_Experiment_FR_REAL,001,42,
images/fcloud65-35_D1.5_5.tif,1.5,1,,,,,,,,,0,18,18,58,,,,,,,,,,,,,,,1,space,4.84956180002,3,1.201,,,,,,,,,,,,,,,,,,2019_Apr_22_1709,59.912491824659405,Cloud_Experiment_FR_REAL,001,42,
images/fcloud80-20_D1.2_4.tif,1.2,2,,,,,,,,,0,19,19,84,,,,,,,,,,,,,,,2,space,1.74715720001,3,2.4,,,,,,,,,,,,,,,,,,2019_Apr_22_1709,59.912491824659405,Cloud_Experiment_FR_REAL,001,42,
images/fcloud65-35_D0.9_4.tif,0.9,1,,,,,,,,,0,20,20,39,,,,,,,,,,,,,,,1,space,4.38791759999,3,1.218,,,,,,,,,,,,,,,,,,2019_Apr_22_1709,59.912491824659405,Cloud_Experiment_FR_REAL,001,42,
images/fcloud80-20_D1.3_4.tif,1.3,2,,,,,,,,,0,21,21,87,,,,,,,,,,,,,,,1,space,3.26520979998,3,1.103,,,,,,,,,,,,,,,,,,2019_Apr_22_1709,59.912491824659405,Cloud_Experiment_FR_REAL,001,42,
images/fcloud65-35_D1.2_4.tif,1.2,1,,,,,,,,,0,22,22,48,,,,,,,,,,,,,,,3,space,1.78746840003,5,1.418,,,,,,,,,,,,,,,,,,2019_Apr_22_1709,59.912491824659405,Cloud_Experiment_FR_REAL,001,42,
images/fcloud80-20_D1.6_5.tif,1.6,2,,,,,,,,,0,23,23,97,,,,,,,,,,,,,,,None,None,,None,10.342,,,,,,,,,,,,,,,,,,2019_Apr_22_1709,59.912491824659405,Cloud_Experiment_FR_REAL,001,42,
images/fcloud65-35_D1.9_5.tif,1.9,1,,,,,,,,,0,24,24,70,,,,,,,,,,,,,,,5,space,3.78130939999,5,1.734,,,,,,,,,,,,,,,,,,2019_Apr_22_1709,59.912491824659405,Cloud_Experiment_FR_REAL,001,42,
images/fcloud65-35_D1.4_4.tif,1.4,1,,,,,,,,,0,25,25,54,,,,,,,,,,,,,,,3,space,5.34246279998,1,3.416,,,,,,,,,,,,,,,,,,2019_Apr_22_1709,59.912491824659405,Cloud_Experiment_FR_REAL,001,42,
images/fcloud80-20_D1.8_5.tif,1.8,2,,,,,,,,,0,26,26,103,,,,,,,,,,,,,,,1,space,3.8780808,2,1.768,,,,,,,,,,,,,,,,,,2019_Apr_22_1709,59.912491824659405,Cloud_Experiment_FR_REAL,001,42,
images/fcloud80-20_D0.9_4.tif,0.9,2,,,,,,,,,0,27,27,75,,,,,,,,,,,,,,,None,None,,None,11.841,,,,,,,,,,,,,,,,,,2019_Apr_22_1709,59.912491824659405,Cloud_Experiment_FR_REAL,001,42,
images/fcloud80-20_D1.4_4.tif,1.4,2,,,,,,,,,0,28,28,90,,,,,,,,,,,,,,,1,space,5.85926359997,1,0.518,,,,,,,,,,,,,,,,,,2019_Apr_22_1709,59.912491824659405,Cloud_Experiment_FR_REAL,001,42,
images/fcloud80-20_D1.4_5.tif,1.4,2,,,,,,,,,0,29,29,91,,,,,,,,,,,,,,,None,None,,None,9.476,,,,,,,,,,,,,,,,,,2019_Apr_22_1709,59.912491824659405,Cloud_Experiment_FR_REAL,001,42,
images/fcloud65-35_D1_4.tif,1.0,1,,,,,,,,,0,30,30,42,,,,,,,,,,,,,,,4,space,2.61734219996,3,1.934,,,,,,,,,,,,,,,,,,2019_Apr_22_1709,59.912491824659405,Cloud_Experiment_FR_REAL,001,42,
images/fcloud_D1.4_5.tif,1.4,0,,,,,,,,,0,31,31,19,,,,,,,,,,,,,,,2,space,5.82056080003,4,1.734,,,,,,,,,,,,,,,,,,2019_Apr_22_1709,59.912491824659405,Cloud_Experiment_FR_REAL,001,42,
images/fcloud_D1.9_4.tif,1.9,0,,,,,,,,,0,32,32,33,,,,,,,,,,,,,,,5,space,2.61018269998,4,1.785,,,,,,,,,,,,,,,,,,2019_Apr_22_1709,59.912491824659405,Cloud_Experiment_FR_REAL,001,42,
images/fcloud65-35_D1.8_4.tif,1.8,1,,,,,,,,,0,33,33,66,,,,,,,,,,,,,,,None,None,,None,11.341,,,,,,,,,,,,,,,,,,2019_Apr_22_1709,59.912491824659405,Cloud_Experiment_FR_REAL,001,42,
images/fcloud80-20_D1.3_6.tif,1.3,2,,,,,,,,,0,34,34,89,,,,,,,,,,,,,,,2,space,2.46042279998,1,1.401,,,,,,,,,,,,,,,,,,2019_Apr_22_1709,59.912491824659405,Cloud_Experiment_FR_REAL,001,42,
images/fcloud_D1.7_6.tif,1.7,0,,,,,,,,,0,35,35,29,,,,,,,,,,,,,,,3,space,6.90449749999,3,1.884,,,,,,,,,,,,,,,,,,2019_Apr_22_1709,59.912491824659405,Cloud_Experiment_FR_REAL,001,42,
images/fcloud_D1.9_5.tif,1.9,0,,,,,,,,,0,36,36,34,,,,,,,,,,,,,,,2,space,5.98971509998,1,0.752,,,,,,,,,,,,,,,,,,2019_Apr_22_1709,59.912491824659405,Cloud_Experiment_FR_REAL,001,42,
images/fcloud65-35_D1.4_5.tif,1.4,1,,,,,,,,,0,37,37,55,,,,,,,,,,,,,,,2,space,2.62022500002,5,1.435,,,,,,,,,,,,,,,,,,2019_Apr_22_1709,59.912491824659405,Cloud_Experiment_FR_REAL,001,42,
images/fcloud80-20_D1.4_6.tif,1.4,2,,,,,,,,,0,38,38,92,,,,,,,,,,,,,,,1,space,1.08821270004,3,2.134,,,,,,,,,,,,,,,,,,2019_Apr_22_1709,59.912491824659405,Cloud_Experiment_FR_REAL,001,42,
images/fcloud_D0.9_6.tif,0.9,0,,,,,,,,,0,39,39,5,,,,,,,,,,,,,,,2,space,0.929060099996,1,0.818,,,,,,,,,,,,,,,,,,2019_Apr_22_1709,59.912491824659405,Cloud_Experiment_FR_REAL,001,42,
images/fcloud65-35_D1.5_6.tif,1.5,1,,,,,,,,,0,40,40,59,,,,,,,,,,,,,,,1,space,6.88409300003,1,0.768,,,,,,,,,,,,,,,,,,2019_Apr_22_1709,59.912491824659405,Cloud_Experiment_FR_REAL,001,42,
images/fcloud_D1.1_5.tif,1.1,0,,,,,,,,,0,41,41,10,,,,,,,,,,,,,,,1,space,6.51855519996,3,1.985,,,,,,,,,,,,,,,,,,2019_Apr_22_1709,59.912491824659405,Cloud_Experiment_FR_REAL,001,42,
images/fcloud80-20_D1.1_6.tif,1.1,2,,,,,,,,,0,42,42,83,,,,,,,,,,,,,,,2,space,2.05113979999,4,1.684,,,,,,,,,,,,,,,,,,2019_Apr_22_1709,59.912491824659405,Cloud_Experiment_FR_REAL,001,42,
images/fcloud80-20_D0.8_4.tif,0.8,2,,,,,,,,,0,43,43,72,,,,,,,,,,,,,,,1,space,4.96073190001,1,3.1,,,,,,,,,,,,,,,,,,2019_Apr_22_1709,59.912491824659405,Cloud_Experiment_FR_REAL,001,42,
images/fcloud_D1.7_4.tif,1.7,0,,,,,,,,,0,44,44,27,,,,,,,,,,,,,,,4,space,1.48000050004,5,2.733,,,,,,,,,,,,,,,,,,2019_Apr_22_1709,59.912491824659405,Cloud_Experiment_FR_REAL,001,42,
images/fcloud65-35_D1.1_4.tif,1.1,1,,,,,,,,,0,45,45,45,,,,,,,,,,,,,,,1,space,1.46419500001,5,1.552,,,,,,,,,,,,,,,,,,2019_Apr_22_1709,59.912491824659405,Cloud_Experiment_FR_REAL,001,42,
images/fcloud65-35_D1.1_5.tif,1.1,1,,,,,,,,,0,46,46,46,,,,,,,,,,,,,,,1,space,7.05851910001,3,1.851,,,,,,,,,,,,,,,,,,2019_Apr_22_1709,59.912491824659405,Cloud_Experiment_FR_REAL,001,42,
images/fcloud80-20_D1.5_5.tif,1.5,2,,,,,,,,,0,47,47,94,,,,,,,,,,,,,,,2,space,5.15882050002,2,3.498,,,,,,,,,,,,,,,,,,2019_Apr_22_1709,59.912491824659405,Cloud_Experiment_FR_REAL,001,42,
images/fcloud80-20_D1.8_6.tif,1.8,2,,,,,,,,,0,48,48,104,,,,,,,,,,,,,,,None,None,,None,12.507,,,,,,,,,,,,,,,,,,2019_Apr_22_1709,59.912491824659405,Cloud_Experiment_FR_REAL,001,42,
images/fcloud65-35_D1_5.tif,1.0,1,,,,,,,,,0,49,49,43,,,,,,,,,,,,,,,1,space,1.60153489996,5,2.068,,,,,,,,,,,,,,,,,,2019_Apr_22_1709,59.912491824659405,Cloud_Experiment_FR_REAL,001,42,
images/fcloud80-20_D0.9_5.tif,0.9,2,,,,,,,,,0,50,50,76,,,,,,,,,,,,,,,None,None,,None,10.742,,,,,,,,,,,,,,,,,,2019_Apr_22_1709,59.912491824659405,Cloud_Experiment_FR_REAL,001,42,
images/fcloud_D1_4.tif,1.0,0,,,,,,,,,0,51,51,6,,,,,,,,,,,,,,,2,space,1.2573687,5,1.918,,,,,,,,,,,,,,,,,,2019_Apr_22_1709,59.912491824659405,Cloud_Experiment_FR_REAL,001,42,
images/fcloud65-35_D1.3_4.tif,1.3,1,,,,,,,,,0,52,52,51,,,,,,,,,,,,,,,5,space,6.06792419998,3,2.767,,,,,,,,,,,,,,,,,,2019_Apr_22_1709,59.912491824659405,Cloud_Experiment_FR_REAL,001,42,
images/fcloud80-20_D1.5_6.tif,1.5,2,,,,,,,,,0,53,53,95,,,,,,,,,,,,,,,None,None,,None,12.291,,,,,,,,,,,,,,,,,,2019_Apr_22_1709,59.912491824659405,Cloud_Experiment_FR_REAL,001,42,
images/fcloud_D0.8_5.tif,0.8,0,,,,,,,,,0,54,54,1,,,,,,,,,,,,,,,4,space,1.60057799995,5,1.402,,,,,,,,,,,,,,,,,,2019_Apr_22_1709,59.912491824659405,Cloud_Experiment_FR_REAL,001,42,
images/fcloud80-20_D1.9_5.tif,1.9,2,,,,,,,,,0,55,55,106,,,,,,,,,,,,,,,1,space,4.65900310001,1,1.117,,,,,,,,,,,,,,,,,,2019_Apr_22_1709,59.912491824659405,Cloud_Experiment_FR_REAL,001,42,
images/fcloud65-35_D1.5_4.tif,1.5,1,,,,,,,,,0,56,56,57,,,,,,,,,,,,,,,None,None,,None,10.641,,,,,,,,,,,,,,,,,,2019_Apr_22_1709,59.912491824659405,Cloud_Experiment_FR_REAL,001,42,
images/fcloud65-35_D1.8_5.tif,1.8,1,,,,,,,,,0,57,57,67,,,,,,,,,,,,,,,4,space,6.2983433,3,2.634,,,,,,,,,,,,,,,,,,2019_Apr_22_1709,59.912491824659405,Cloud_Experiment_FR_REAL,001,42,
images/fcloud80-20_D0.8_5.tif,0.8,2,,,,,,,,,0,58,58,73,,,,,,,,,,,,,,,2,space,5.79446099995,4,1.684,,,,,,,,,,,,,,,,,,2019_Apr_22_1709,59.912491824659405,Cloud_Experiment_FR_REAL,001,42,
images/fcloud_D1.6_6.tif,1.6,0,,,,,,,,,0,59,59,26,,,,,,,,,,,,,,,3,space,3.3357316,2,1.884,,,,,,,,,,,,,,,,,,2019_Apr_22_1709,59.912491824659405,Cloud_Experiment_FR_REAL,001,42,
images/fcloud65-35_D1.3_6.tif,1.3,1,,,,,,,,,0,60,60,53,,,,,,,,,,,,,,,1,space,6.45538519998,1,0.785,,,,,,,,,,,,,,,,,,2019_Apr_22_1709,59.912491824659405,Cloud_Experiment_FR_REAL,001,42,
images/fcloud80-20_D1.9_4.tif,1.9,2,,,,,,,,,0,61,61,105,,,,,,,,,,,,,,,5,space,6.65663749998,1,1.152,,,,,,,,,,,,,,,,,,2019_Apr_22_1709,59.912491824659405,Cloud_Experiment_FR_REAL,001,42,
images/fcloud80-20_D1.7_4.tif,1.7,2,,,,,,,,,0,62,62,99,,,,,,,,,,,,,,,1,space,6.35766849999,1,0.784,,,,,,,,,,,,,,,,,,2019_Apr_22_1709,59.912491824659405,Cloud_Experiment_FR_REAL,001,42,
images/fcloud_D1.4_4.tif,1.4,0,,,,,,,,,0,63,63,18,,,,,,,,,,,,,,,3,space,2.21441929997,2,2.816,,,,,,,,,,,,,,,,,,2019_Apr_22_1709,59.912491824659405,Cloud_Experiment_FR_REAL,001,42,
images/fcloud80-20_D1.7_6.tif,1.7,2,,,,,,,,,0,64,64,101,,,,,,,,,,,,,,,None,None,,None,11.726,,,,,,,,,,,,,,,,,,2019_Apr_22_1709,59.912491824659405,Cloud_Experiment_FR_REAL,001,42,
images/fcloud_D1.5_6.tif,1.5,0,,,,,,,,,0,65,65,23,,,,,,,,,,,,,,,1,space,6.2484789,4,1.118,,,,,,,,,,,,,,,,,,2019_Apr_22_1709,59.912491824659405,Cloud_Experiment_FR_REAL,001,42,
images/fcloud65-35_D1.8_6.tif,1.8,1,,,,,,,,,0,66,66,68,,,,,,,,,,,,,,,None,None,,None,10.408,,,,,,,,,,,,,,,,,,2019_Apr_22_1709,59.912491824659405,Cloud_Experiment_FR_REAL,001,42,
images/fcloud80-20_D0.8_6.tif,0.8,2,,,,,,,,,0,67,67,74,,,,,,,,,,,,,,,3,space,1.4932042,3,1.834,,,,,,,,,,,,,,,,,,2019_Apr_22_1709,59.912491824659405,Cloud_Experiment_FR_REAL,001,42,
images/fcloud80-20_D1.6_4.tif,1.6,2,,,,,,,,,0,68,68,96,,,,,,,,,,,,,,,3,space,3.87681449996,2,1.601,,,,,,,,,,,,,,,,,,2019_Apr_22_1709,59.912491824659405,Cloud_Experiment_FR_REAL,001,42,
images/fcloud80-20_D1.2_6.tif,1.2,2,,,,,,,,,0,69,69,86,,,,,,,,,,,,,,,1,space,6.05212489999,1,0.985,,,,,,,,,,,,,,,,,,2019_Apr_22_1709,59.912491824659405,Cloud_Experiment_FR_REAL,001,42,
images/fcloud65-35_D1.9_6.tif,1.9,1,,,,,,,,,0,70,70,71,,,,,,,,,,,,,,,5,space,2.90715340001,4,1.002,,,,,,,,,,,,,,,,,,2019_Apr_22_1709,59.912491824659405,Cloud_Experiment_FR_REAL,001,42,
images/fcloud_D1.4_6.tif,1.4,0,,,,,,,,,0,71,71,20,,,,,,,,,,,,,,,2,space,2.16087080003,1,1.019,,,,,,,,,,,,,,,,,,2019_Apr_22_1709,59.912491824659405,Cloud_Experiment_FR_REAL,001,42,
images/fcloud65-35_D1.3_5.tif,1.3,1,,,,,,,,,0,72,72,52,,,,,,,,,,,,,,,2,space,2.65279620001,5,1.317,,,,,,,,,,,,,,,,,,2019_Apr_22_1709,59.912491824659405,Cloud_Experiment_FR_REAL,001,42,
images/fcloud65-35_D0.8_5.tif,0.8,1,,,,,,,,,0,73,73,37,,,,,,,,,,,,,,,None,None,,None,10.009,,,,,,,,,,,,,,,,,,2019_Apr_22_1709,59.912491824659405,Cloud_Experiment_FR_REAL,001,42,
images/fcloud65-35_D1.2_5.tif,1.2,1,,,,,,,,,0,74,74,49,,,,,,,,,,,,,,,1,space,2.60820740002,4,0.901,,,,,,,,,,,,,,,,,,2019_Apr_22_1709,59.912491824659405,Cloud_Experiment_FR_REAL,001,42,
images/fcloud_D0.8_6.tif,0.8,0,,,,,,,,,0,75,75,2,,,,,,,,,,,,,,,1,space,3.34995219996,4,1.752,,,,,,,,,,,,,,,,,,2019_Apr_22_1709,59.912491824659405,Cloud_Experiment_FR_REAL,001,42,
images/fcloud_D1.3_6.tif,1.3,0,,,,,,,,,0,76,76,17,,,,,,,,,,,,,,,2,space,3.73357129999,4,1.485,,,,,,,,,,,,,,,,,,2019_Apr_22_1709,59.912491824659405,Cloud_Experiment_FR_REAL,001,42,
images/fcloud_D1.3_5.tif,1.3,0,,,,,,,,,0,77,77,16,,,,,,,,,,,,,,,2,space,6.4728697,3,1.684,,,,,,,,,,,,,,,,,,2019_Apr_22_1709,59.912491824659405,Cloud_Experiment_FR_REAL,001,42,
images/fcloud_D1.8_4.tif,1.8,0,,,,,,,,,0,78,78,30,,,,,,,,,,,,,,,3,space,5.75304650003,4,1.601,,,,,,,,,,,,,,,,,,2019_Apr_22_1709,59.912491824659405,Cloud_Experiment_FR_REAL,001,42,
images/fcloud65-35_D1.7_4.tif,1.7,1,,,,,,,,,0,79,79,63,,,,,,,,,,,,,,,5,space,4.60775639996,3,1.951,,,,,,,,,,,,,,,,,,2019_Apr_22_1709,59.912491824659405,Cloud_Experiment_FR_REAL,001,42,
images/fcloud_D1.8_6.tif,1.8,0,,,,,,,,,0,80,80,32,,,,,,,,,,,,,,,1,space,6.07268360001,3,2.717,,,,,,,,,,,,,,,,,,2019_Apr_22_1709,59.912491824659405,Cloud_Experiment_FR_REAL,001,42,
images/fcloud65-35_D1.6_4.tif,1.6,1,,,,,,,,,0,81,81,60,,,,,,,,,,,,,,,1,space,5.05906260002,1,1.167,,,,,,,,,,,,,,,,,,2019_Apr_22_1709,59.912491824659405,Cloud_Experiment_FR_REAL,001,42,
images/fcloud_D1.5_4.tif,1.5,0,,,,,,,,,0,82,82,21,,,,,,,,,,,,,,,5,space,4.83196099999,4,0.952,,,,,,,,,,,,,,,,,,2019_Apr_22_1709,59.912491824659405,Cloud_Experiment_FR_REAL,001,42,
images/fcloud_D1_5.tif,1.0,0,,,,,,,,,0,83,83,7,,,,,,,,,,,,,,,1,space,6.5275348,3,1.884,,,,,,,,,,,,,,,,,,2019_Apr_22_1709,59.912491824659405,Cloud_Experiment_FR_REAL,001,42,
images/fcloud_D1.2_6.tif,1.2,0,,,,,,,,,0,84,84,14,,,,,,,,,,,,,,,None,None,,None,11.058,,,,,,,,,,,,,,,,,,2019_Apr_22_1709,59.912491824659405,Cloud_Experiment_FR_REAL,001,42,
images/fcloud_D1.2_4.tif,1.2,0,,,,,,,,,0,85,85,12,,,,,,,,,,,,,,,5,space,2.03236690001,5,0.985,,,,,,,,,,,,,,,,,,2019_Apr_22_1709,59.912491824659405,Cloud_Experiment_FR_REAL,001,42,
images/fcloud_D1.6_5.tif,1.6,0,,,,,,,,,0,86,86,25,,,,,,,,,,,,,,,4,space,3.2556183,3,1.784,,,,,,,,,,,,,,,,,,2019_Apr_22_1709,59.912491824659405,Cloud_Experiment_FR_REAL,001,42,
images/fcloud80-20_D1.1_5.tif,1.1,2,,,,,,,,,0,87,87,82,,,,,,,,,,,,,,,None,None,,None,10.642,,,,,,,,,,,,,,,,,,2019_Apr_22_1709,59.912491824659405,Cloud_Experiment_FR_REAL,001,42,
images/fcloud_D0.9_5.tif,0.9,0,,,,,,,,,0,88,88,4,,,,,,,,,,,,,,,3,space,1.69362750003,5,1.152,,,,,,,,,,,,,,,,,,2019_Apr_22_1709,59.912491824659405,Cloud_Experiment_FR_REAL,001,42,
images/fcloud_D0.9_4.tif,0.9,0,,,,,,,,,0,89,89,3,,,,,,,,,,,,,,,2,space,4.20627830003,5,0.985,,,,,,,,,,,,,,,,,,2019_Apr_22_1709,59.912491824659405,Cloud_Experiment_FR_REAL,001,42,
images/fcloud_D0.8_4.tif,0.8,0,,,,,,,,,0,90,90,0,,,,,,,,,,,,,,,3,space,1.507935,4,2.067,,,,,,,,,,,,,,,,,,2019_Apr_22_1709,59.912491824659405,Cloud_Experiment_FR_REAL,001,42,
images/fcloud80-20_D1_6.tif,1.0,2,,,,,,,,,0,91,91,80,,,,,,,,,,,,,,,None,None,,None,11.075,,,,,,,,,,,,,,,,,,2019_Apr_22_1709,59.912491824659405,Cloud_Experiment_FR_REAL,001,42,
images/fcloud80-20_D1.3_5.tif,1.3,2,,,,,,,,,0,92,92,88,,,,,,,,,,,,,,,2,space,3.3053138,3,1.052,,,,,,,,,,,,,,,,,,2019_Apr_22_1709,59.912491824659405,Cloud_Experiment_FR_REAL,001,42,
images/fcloud_D1.8_5.tif,1.8,0,,,,,,,,,0,93,93,31,,,,,,,,,,,,,,,4,space,4.49637959996,4,3.148,,,,,,,,,,,,,,,,,,2019_Apr_22_1709,59.912491824659405,Cloud_Experiment_FR_REAL,001,42,
images/fcloud_D1.9_6.tif,1.9,0,,,,,,,,,0,94,94,35,,,,,,,,,,,,,,,5,space,5.48742660001,4,0.969,,,,,,,,,,,,,,,,,,2019_Apr_22_1709,59.912491824659405,Cloud_Experiment_FR_REAL,001,42,
images/fcloud80-20_D1.9_6.tif,1.9,2,,,,,,,,,0,95,95,107,,,,,,,,,,,,,,,1,space,6.18241540005,1,1.301,,,,,,,,,,,,,,,,,,2019_Apr_22_1709,59.912491824659405,Cloud_Experiment_FR_REAL,001,42,
images/fcloud80-20_D1.5_4.tif,1.5,2,,,,,,,,,0,96,96,93,,,,,,,,,,,,,,,2,space,2.06564629998,4,1.685,,,,,,,,,,,,,,,,,,2019_Apr_22_1709,59.912491824659405,Cloud_Experiment_FR_REAL,001,42,
images/fcloud65-35_D1.7_6.tif,1.7,1,,,,,,,,,0,97,97,65,,,,,,,,,,,,,,,2,space,2.3145722,4,1.517,,,,,,,,,,,,,,,,,,2019_Apr_22_1709,59.912491824659405,Cloud_Experiment_FR_REAL,001,42,
images/fcloud80-20_D1.7_5.tif,1.7,2,,,,,,,,,0,98,98,100,,,,,,,,,,,,,,,1,space,3.59092440002,4,1.451,,,,,,,,,,,,,,,,,,2019_Apr_22_1709,59.912491824659405,Cloud_Experiment_FR_REAL,001,42,
images/fcloud80-20_D1_5.tif,1.0,2,,,,,,,,,0,99,99,79,,,,,,,,,,,,,,,1,space,4.32193889999,3,2.085,,,,,,,,,,,,,,,,,,2019_Apr_22_1709,59.912491824659405,Cloud_Experiment_FR_REAL,001,42,
images/fcloud65-35_D1.2_6.tif,1.2,1,,,,,,,,,0,100,100,50,,,,,,,,,,,,,,,2,space,4.7057696,1,1.701,,,,,,,,,,,,,,,,,,2019_Apr_22_1709,59.912491824659405,Cloud_Experiment_FR_REAL,001,42,
images/fcloud80-20_D1_4.tif,1.0,2,,,,,,,,,0,101,101,78,,,,,,,,,,,,,,,1,space,6.51814870001,4,3.184,,,,,,,,,,,,,,,,,,2019_Apr_22_1709,59.912491824659405,Cloud_Experiment_FR_REAL,001,42,
images/fcloud_D1.2_5.tif,1.2,0,,,,,,,,,0,102,102,13,,,,,,,,,,,,,,,3,space,3.2444507,4,1.817,,,,,,,,,,,,,,,,,,2019_Apr_22_1709,59.912491824659405,Cloud_Experiment_FR_REAL,001,42,
images/fcloud65-35_D0.8_4.tif,0.8,1,,,,,,,,,0,103,103,36,,,,,,,,,,,,,,,3,space,2.38232879998,3,1.601,,,,,,,,,,,,,,,,,,2019_Apr_22_1709,59.912491824659405,Cloud_Experiment_FR_REAL,001,42,
images/fcloud65-35_D1.1_6.tif,1.1,1,,,,,,,,,0,104,104,47,,,,,,,,,,,,,,,2,space,4.91772809997,1,0.985,,,,,,,,,,,,,,,,,,2019_Apr_22_1709,59.912491824659405,Cloud_Experiment_FR_REAL,001,42,
images/fcloud80-20_D1.8_4.tif,1.8,2,,,,,,,,,0,105,105,102,,,,,,,,,,,,,,,None,None,,None,9.842,,,,,,,,,,,,,,,,,,2019_Apr_22_1709,59.912491824659405,Cloud_Experiment_FR_REAL,001,42,
images/fcloud65-35_D0.8_6.tif,0.8,1,,,,,,,,,0,106,106,38,,,,,,,,,,,,,,,1,space,5.2029486,1,0.652,,,,,,,,,,,,,,,,,,2019_Apr_22_1709,59.912491824659405,Cloud_Experiment_FR_REAL,001,42,
images/fcloud_D1.6_4.tif,1.6,0,,,,,,,,,0,107,107,24,,,,,,,,,,,,,,,5,space,4.83270979999,4,3.183,,,,,,,,,,,,,,,,,,2019_Apr_22_1709,59.912491824659405,Cloud_Experiment_FR_REAL,001,42,
,,,,,,,,,,,,,,,,,,,,,,,,,,,,,,,,,,,,,,,,,,,,,,space,2.11577690003,,,,2019_Apr_22_1709,59.912491824659405,Cloud_Experiment_FR_REAL,001,42,
,,,,,,,,,,,,,,,,,,,,,,,,,4,6.697,,,,,,,,,,,,,,,,,,,,,,,,,2019_Apr_22_1709,59.912491824659405,Cloud_Experiment_FR_REAL,001,42,
,,,,,,,,,,,,,,,,,,,,,,,,,,,,,,,,,,6,,,,,,,,,,,,,,,,,2019_Apr_22_1709,59.912491824659405,Cloud_Experiment_FR_REAL,001,42,
,,,,,,,,,,,,,,,,,,,,,,,,,,,,,,,,,,,5,,,,,,,,,,,,,,,,2019_Apr_22_1709,59.912491824659405,Cloud_Experiment_FR_REAL,001,42,
,,,,,,,,,,,,,,,,,,,,,,,,,,,,,,,,,,,,4,,,,,,,,,,,,,,,2019_Apr_22_1709,59.912491824659405,Cloud_Experiment_FR_REAL,001,42,
,,,,,,,,,,,,,,,,,,,,,,,,,,,,,,,,,,,,,4,,,,,,,,,,,,,,2019_Apr_22_1709,59.912491824659405,Cloud_Experiment_FR_REAL,001,42,
,,,,,,,,,,,,,,,,,,,,,,,,,,,,,,,,,,,,,,4,,,,,,,,,,,,,2019_Apr_22_1709,59.912491824659405,Cloud_Experiment_FR_REAL,001,42,
,,,,,,,,,,,,,,,,,,,,,,,,,,,,,,,,,,,,,,,5,,,,,,,,,,,,2019_Apr_22_1709,59.912491824659405,Cloud_Experiment_FR_REAL,001,42,
,,,,,,,,,,,,,,,,,,,,,,,,,,,,,,,,,,,,,,,,6,,,,,,,,,,,2019_Apr_22_1709,59.912491824659405,Cloud_Experiment_FR_REAL,001,42,
,,,,,,,,,,,,,,,,,,,,,,,,,,,,,,,,,,,,,,,,,7,,,,,,,,,,2019_Apr_22_1709,59.912491824659405,Cloud_Experiment_FR_REAL,001,42,
,,,,,,,,,,,,,,,,,,,,,,,,,,,,,,,,,,,,,,,,,,7,,,,,,,,,2019_Apr_22_1709,59.912491824659405,Cloud_Experiment_FR_REAL,001,42,
,,,,,,,,,,,,,,,,,,,,,,,,,,,,,,,,,,,,,,,,,,,7,,,,,,,,2019_Apr_22_1709,59.912491824659405,Cloud_Experiment_FR_REAL,001,42,
,,,,,,,,,,,,,,,,,,,,,,,,,,,,,,,,,,,,,,,,,,,,,,,,space,232.4650149,,2019_Apr_22_1709,59.912491824659405,Cloud_Experiment_FR_REAL,001,42,
images/fcloud_D1.9_9.tif,1.9,0,,,,,,,,,,,,,0,0,0,46,,,,,,,,,,,2,space,6.31607980002,1,1.717,,,,,,,,,,,,,,,,,,2019_Apr_22_1709,59.912491824659405,Cloud_Experiment_FR_REAL,001,42,
images/fcloud65-35_D1.2_7.tif,1.2,1,,,,,,,,,,,,,0,1,1,64,,,,,,,,,,,1,space,2.37742600002,3,1.684,,,,,,,,,,,,,,,,,,2019_Apr_22_1709,59.912491824659405,Cloud_Experiment_FR_REAL,001,42,
images/fcloud65-35_D1.7_8.tif,1.7,1,,,,,,,,,,,,,0,2,2,85,,,,,,,,,,,2,space,4.65305959998,3,1.618,,,,,,,,,,,,,,,,,,2019_Apr_22_1709,59.912491824659405,Cloud_Experiment_FR_REAL,001,42,
images/fcloud65-35_D1.5_10.tif,1.5,1,,,,,,,,,,,,,0,3,3,79,,,,,,,,,,,3,space,3.97342170001,2,1.532,,,,,,,,,,,,,,,,,,2019_Apr_22_1709,59.912491824659405,Cloud_Experiment_FR_REAL,001,42,
images/fcloud_D1.8_7.tif,1.8,0,,,,,,,,,,,,,0,4,4,40,,,,,,,,,,,2,space,5.9380734,2,1.218,,,,,,,,,,,,,,,,,,2019_Apr_22_1709,59.912491824659405,Cloud_Experiment_FR_REAL,001,42,
images/fcloud80-20_D1.5_8.tif,1.5,2,,,,,,,,,,,,,0,5,5,125,,,,,,,,,,,None,None,,None,10.093,,,,,,,,,,,,,,,,,,2019_Apr_22_1709,59.912491824659405,Cloud_Experiment_FR_REAL,001,42,
images/fcloud_D1.7_7.tif,1.7,0,,,,,,,,,,,,,0,6,6,36,,,,,,,,,,,5,space,2.68185759999,5,0.951,,,,,,,,,,,,,,,,,,2019_Apr_22_1709,59.912491824659405,Cloud_Experiment_FR_REAL,001,42,
images/fcloud_D1.4_10.tif,1.4,0,,,,,,,,,,,,,0,7,7,27,,,,,,,,,,,4,None,,3,1.235,,,,,,,,,,,,,,,,,,2019_Apr_22_1709,59.912491824659405,Cloud_Experiment_FR_REAL,001,42,
images/fcloud65-35_D1.4_9.tif,1.4,1,,,,,,,,,,,,,0,8,8,74,,,,,,,,,,,2,space,3.19498589996,1,1.234,,,,,,,,,,,,,,,,,,2019_Apr_22_1709,59.912491824659405,Cloud_Experiment_FR_REAL,001,42,
images/fcloud80-20_D0.9_9.tif,0.9,2,,,,,,,,,,,,,0,9,9,102,,,,,,,,,,,1,space,2.60806340002,3,3.199,,,,,,,,,,,,,,,,,,2019_Apr_22_1709,59.912491824659405,Cloud_Experiment_FR_REAL,001,42,
images/fcloud_D1.3_10.tif,1.3,0,,,,,,,,,,,,,0,10,10,23,,,,,,,,,,,4,space,2.14546309999,5,1.568,,,,,,,,,,,,,,,,,,2019_Apr_22_1709,59.912491824659405,Cloud_Experiment_FR_REAL,001,42,
images/fcloud80-20_D1.9_7.tif,1.9,2,,,,,,,,,,,,,0,11,11,140,,,,,,,,,,,2,space,4.09242880001,1,1.551,,,,,,,,,,,,,,,,,,2019_Apr_22_1709,59.912491824659405,Cloud_Experiment_FR_REAL,001,42,
images/fcloud_D1.5_7.tif,1.5,0,,,,,,,,,,,,,0,12,12,28,,,,,,,,,,,2,space,2.80263049999,4,2.367,,,,,,,,,,,,,,,,,,2019_Apr_22_1709,59.912491824659405,Cloud_Experiment_FR_REAL,001,42,
images/fcloud65-35_D0.8_8.tif,0.8,1,,,,,,,,,,,,,0,13,13,49,,,,,,,,,,,1,space,2.7733308,4,1.906,,,,,,,,,,,,,,,,,,2019_Apr_22_1709,59.912491824659405,Cloud_Experiment_FR_REAL,001,42,
images/fcloud65-35_D1_9.tif,1.0,1,,,,,,,,,,,,,0,14,14,58,,,,,,,,,,,1,space,4.44643190003,3,1.519,,,,,,,,,,,,,,,,,,2019_Apr_22_1709,59.912491824659405,Cloud_Experiment_FR_REAL,001,42,
images/fcloud80-20_D0.9_8.tif,0.9,2,,,,,,,,,,,,,0,15,15,101,,,,,,,,,,,2,space,1.52332200005,2,1.984,,,,,,,,,,,,,,,,,,2019_Apr_22_1709,59.912491824659405,Cloud_Experiment_FR_REAL,001,42,
images/fcloud_D0.8_9.tif,0.8,0,,,,,,,,,,,,,0,16,16,2,,,,,,,,,,,2,space,2.75063319999,3,1.401,,,,,,,,,,,,,,,,,,2019_Apr_22_1709,59.912491824659405,Cloud_Experiment_FR_REAL,001,42,
images/fcloud80-20_D0.8_8.tif,0.8,2,,,,,,,,,,,,,0,17,17,97,,,,,,,,,,,1,space,4.09149259998,3,1.918,,,,,,,,,,,,,,,,,,2019_Apr_22_1709,59.912491824659405,Cloud_Experiment_FR_REAL,001,42,
images/fcloud80-20_D1.3_9.tif,1.3,2,,,,,,,,,,,,,0,18,18,118,,,,,,,,,,,1,space,7.26341419999,2,1.917,,,,,,,,,,,,,,,,,,2019_Apr_22_1709,59.912491824659405,Cloud_Experiment_FR_REAL,001,42,
images/fcloud80-20_D1.1_10.tif,1.1,2,,,,,,,,,,,,,0,19,19,111,,,,,,,,,,,2,space,2.8331783,2,1.335,,,,,,,,,,,,,,,,,,2019_Apr_22_1709,59.912491824659405,Cloud_Experiment_FR_REAL,001,42,
images/fcloud_D0.9_9.tif,0.9,0,,,,,,,,,,,,,0,20,20,6,,,,,,,,,,,3,space,1.57517999999,4,1.767,,,,,,,,,,,,,,,,,,2019_Apr_22_1709,59.912491824659405,Cloud_Experiment_FR_REAL,001,42,
images/fcloud80-20_D1.1_9.tif,1.1,2,,,,,,,,,,,,,0,21,21,110,,,,,,,,,,,2,space,4.42368519999,1,1.0,,,,,,,,,,,,,,,,,,2019_Apr_22_1709,59.912491824659405,Cloud_Experiment_FR_REAL,001,42,
images/fcloud65-35_D0.9_10.tif,0.9,1,,,,,,,,,,,,,0,22,22,55,,,,,,,,,,,3,space,1.54526530002,3,1.717,,,,,,,,,,,,,,,,,,2019_Apr_22_1709,59.912491824659405,Cloud_Experiment_FR_REAL,001,42,
images/fcloud65-35_D1.1_10.tif,1.1,1,,,,,,,,,,,,,0,23,23,63,,,,,,,,,,,1,space,2.44380010001,1,1.818,,,,,,,,,,,,,,,,,,2019_Apr_22_1709,59.912491824659405,Cloud_Experiment_FR_REAL,001,42,
images/fcloud80-20_D1.3_8.tif,1.3,2,,,,,,,,,,,,,0,24,24,117,,,,,,,,,,,2,space,4.26217289997,1,1.234,,,,,,,,,,,,,,,,,,2019_Apr_22_1709,59.912491824659405,Cloud_Experiment_FR_REAL,001,42,
images/fcloud65-35_D1_8.tif,1.0,1,,,,,,,,,,,,,0,25,25,57,,,,,,,,,,,1,space,6.4426371,3,1.217,,,,,,,,,,,,,,,,,,2019_Apr_22_1709,59.912491824659405,Cloud_Experiment_FR_REAL,001,42,
images/fcloud65-35_D1.7_10.tif,1.7,1,,,,,,,,,,,,,0,26,26,87,,,,,,,,,,,5,space,2.41781359998,4,1.135,,,,,,,,,,,,,,,,,,2019_Apr_22_1709,59.912491824659405,Cloud_Experiment_FR_REAL,001,42,
images/fcloud80-20_D1.5_9.tif,1.5,2,,,,,,,,,,,,,0,27,27,126,,,,,,,,,,,2,space,7.08924120001,3,1.701,,,,,,,,,,,,,,,,,,2019_Apr_22_1709,59.912491824659405,Cloud_Experiment_FR_REAL,001,42,
images/fcloud80-20_D1.8_7.tif,1.8,2,,,,,,,,,,,,,0,28,28,136,,,,,,,,,,,5,space,2.44394309999,2,2.217,,,,,,,,,,,,,,,,,,2019_Apr_22_1709,59.912491824659405,Cloud_Experiment_FR_REAL,001,42,
images/fcloud80-20_D1_9.tif,1.0,2,,,,,,,,,,,,,0,29,29,106,,,,,,,,,,,4,space,1.19621740002,2,1.502,,,,,,,,,,,,,,,,,,2019_Apr_22_1709,59.912491824659405,Cloud_Experiment_FR_REAL,001,42,
images/fcloud65-35_D1.4_10.tif,1.4,1,,,,,,,,,,,,,0,30,30,75,,,,,,,,,,,4,space,2.78822719998,5,0.785,,,,,,,,,,,,,,,,,,2019_Apr_22_1709,59.912491824659405,Cloud_Experiment_FR_REAL,001,42,
images/fcloud_D1_7.tif,1.0,0,,,,,,,,,,,,,0,31,31,8,,,,,,,,,,,1,space,4.29677469999,5,2.801,,,,,,,,,,,,,,,,,,2019_Apr_22_1709,59.912491824659405,Cloud_Experiment_FR_REAL,001,42,
images/fcloud65-35_D1.8_9.tif,1.8,1,,,,,,,,,,,,,0,32,32,90,,,,,,,,,,,5,space,3.68510349997,5,0.469,,,,,,,,,,,,,,,,,,2019_Apr_22_1709,59.912491824659405,Cloud_Experiment_FR_REAL,001,42,
images/fcloud65-35_D1.3_9.tif,1.3,1,,,,,,,,,,,,,0,33,33,70,,,,,,,,,,,1,space,4.42647260003,1,1.069,,,,,,,,,,,,,,,,,,2019_Apr_22_1709,59.912491824659405,Cloud_Experiment_FR_REAL,001,42,
images/fcloud_D1.8_9.tif,1.8,0,,,,,,,,,,,,,0,34,34,42,,,,,,,,,,,4,space,3.83611730003,3,1.65,,,,,,,,,,,,,,,,,,2019_Apr_22_1709,59.912491824659405,Cloud_Experiment_FR_REAL,001,42,
images/fcloud65-35_D1.6_8.tif,1.6,1,,,,,,,,,,,,,0,35,35,81,,,,,,,,,,,3,space,2.73875679995,2,0.968,,,,,,,,,,,,,,,,,,2019_Apr_22_1709,59.912491824659405,Cloud_Experiment_FR_REAL,001,42,
images/fcloud_D1.5_8.tif,1.5,0,,,,,,,,,,,,,0,36,36,29,,,,,,,,,,,2,space,2.90113810002,4,2.517,,,,,,,,,,,,,,,,,,2019_Apr_22_1709,59.912491824659405,Cloud_Experiment_FR_REAL,001,42,
images/fcloud_D1.6_8.tif,1.6,0,,,,,,,,,,,,,0,37,37,33,,,,,,,,,,,1,space,6.90773889999,2,3.466,,,,,,,,,,,,,,,,,,2019_Apr_22_1709,59.912491824659405,Cloud_Experiment_FR_REAL,001,42,
images/fcloud_D1.1_8.tif,1.1,0,,,,,,,,,,,,,0,38,38,13,,,,,,,,,,,3,space,2.59388659999,5,4.749,,,,,,,,,,,,,,,,,,2019_Apr_22_1709,59.912491824659405,Cloud_Experiment_FR_REAL,001,42,
images/fcloud_D1.1_9.tif,1.1,0,,,,,,,,,,,,,0,39,39,14,,,,,,,,,,,4,space,3.76555169997,4,2.369,,,,,,,,,,,,,,,,,,2019_Apr_22_1709,59.912491824659405,Cloud_Experiment_FR_REAL,001,42,
images/fcloud80-20_D1.6_8.tif,1.6,2,,,,,,,,,,,,,0,40,40,129,,,,,,,,,,,None,None,,None,11.473,,,,,,,,,,,,,,,,,,2019_Apr_22_1709,59.912491824659405,Cloud_Experiment_FR_REAL,001,42,
images/fcloud_D1.2_10.tif,1.2,0,,,,,,,,,,,,,0,41,41,19,,,,,,,,,,,2,space,2.82820330001,4,1.551,,,,,,,,,,,,,,,,,,2019_Apr_22_1709,59.912491824659405,Cloud_Experiment_FR_REAL,001,42,
images/fcloud_D1.2_9.tif,1.2,0,,,,,,,,,,,,,0,42,42,18,,,,,,,,,,,1,space,1.82232550002,3,2.883,,,,,,,,,,,,,,,,,,2019_Apr_22_1709,59.912491824659405,Cloud_Experiment_FR_REAL,001,42,
images/fcloud80-20_D0.8_10.tif,0.8,2,,,,,,,,,,,,,0,43,43,99,,,,,,,,,,,1,space,5.3739378,1,1.051,,,,,,,,,,,,,,,,,,2019_Apr_22_1709,59.912491824659405,Cloud_Experiment_FR_REAL,001,42,
images/fcloud80-20_D1.2_8.tif,1.2,2,,,,,,,,,,,,,0,44,44,113,,,,,,,,,,,1,space,2.94812099996,3,1.335,,,,,,,,,,,,,,,,,,2019_Apr_22_1709,59.912491824659405,Cloud_Experiment_FR_REAL,001,42,
images/fcloud_D1.7_10.tif,1.7,0,,,,,,,,,,,,,0,45,45,39,,,,,,,,,,,None,None,,None,10.109,,,,,,,,,,,,,,,,,,2019_Apr_22_1709,59.912491824659405,Cloud_Experiment_FR_REAL,001,42,
images/fcloud65-35_D1.6_10.tif,1.6,1,,,,,,,,,,,,,0,46,46,83,,,,,,,,,,,None,None,,None,19.551,,,,,,,,,,,,,,,,,,2019_Apr_22_1709,59.912491824659405,Cloud_Experiment_FR_REAL,001,42,
images/fcloud65-35_D1.6_7.tif,1.6,1,,,,,,,,,,,,,0,47,47,80,,,,,,,,,,,1,space,3.70179760002,4,1.884,,,,,,,,,,,,,,,,,,2019_Apr_22_1709,59.912491824659405,Cloud_Experiment_FR_REAL,001,42,
images/fcloud65-35_D1.6_9.tif,1.6,1,,,,,,,,,,,,,0,48,48,82,,,,,,,,,,,1,space,4.55463259999,1,1.784,,,,,,,,,,,,,,,,,,2019_Apr_22_1709,59.912491824659405,Cloud_Experiment_FR_REAL,001,42,
images/fcloud_D1.9_10.tif,1.9,0,,,,,,,,,,,,,0,49,49,47,,,,,,,,,,,2,space,4.920659,2,1.352,,,,,,,,,,,,,,,,,,2019_Apr_22_1709,59.912491824659405,Cloud_Experiment_FR_REAL,001,42,
images/fcloud65-35_D1_10.tif,1.0,1,,,,,,,,,,,,,0,50,50,59,,,,,,,,,,,2,space,4.5580898,3,1.718,,,,,,,,,,,,,,,,,,2019_Apr_22_1709,59.912491824659405,Cloud_Experiment_FR_REAL,001,42,
images/fcloud80-20_D1.2_9.tif,1.2,2,,,,,,,,,,,,,0,51,51,114,,,,,,,,,,,1,space,5.38757040002,2,0.669,,,,,,,,,,,,,,,,,,2019_Apr_22_1709,59.912491824659405,Cloud_Experiment_FR_REAL,001,42,
images/fcloud65-35_D1.9_8.tif,1.9,1,,,,,,,,,,,,,0,52,52,93,,,,,,,,,,,5,space,2.24687629996,4,1.102,,,,,,,,,,,,,,,,,,2019_Apr_22_1709,59.912491824659405,Cloud_Experiment_FR_REAL,001,42,
images/fcloud65-35_D1.3_7.tif,1.3,1,,,,,,,,,,,,,0,53,53,68,,,,,,,,,,,1,space,6.12147760001,3,2.401,,,,,,,,,,,,,,,,,,2019_Apr_22_1709,59.912491824659405,Cloud_Experiment_FR_REAL,001,42,
images/fcloud_D1.4_9.tif,1.4,0,,,,,,,,,,,,,0,54,54,26,,,,,,,,,,,2,space,4.00398789998,5,1.601,,,,,,,,,,,,,,,,,,2019_Apr_22_1709,59.912491824659405,Cloud_Experiment_FR_REAL,001,42,
images/fcloud80-20_D1.9_9.tif,1.9,2,,,,,,,,,,,,,0,55,55,142,,,,,,,,,,,1,space,5.69469709997,2,1.501,,,,,,,,,,,,,,,,,,2019_Apr_22_1709,59.912491824659405,Cloud_Experiment_FR_REAL,001,42,
images/fcloud65-35_D1.8_7.tif,1.8,1,,,,,,,,,,,,,0,56,56,88,,,,,,,,,,,5,space,3.21833339997,5,1.418,,,,,,,,,,,,,,,,,,2019_Apr_22_1709,59.912491824659405,Cloud_Experiment_FR_REAL,001,42,
images/fcloud65-35_D1.1_9.tif,1.1,1,,,,,,,,,,,,,0,57,57,62,,,,,,,,,,,2,space,5.4265988,1,1.884,,,,,,,,,,,,,,,,,,2019_Apr_22_1709,59.912491824659405,Cloud_Experiment_FR_REAL,001,42,
images/fcloud_D1.3_8.tif,1.3,0,,,,,,,,,,,,,0,58,58,21,,,,,,,,,,,5,space,4.13009379996,4,1.933,,,,,,,,,,,,,,,,,,2019_Apr_22_1709,59.912491824659405,Cloud_Experiment_FR_REAL,001,42,
images/fcloud80-20_D1.9_10.tif,1.9,2,,,,,,,,,,,,,0,59,59,143,,,,,,,,,,,2,space,4.93421040004,3,2.268,,,,,,,,,,,,,,,,,,2019_Apr_22_1709,59.912491824659405,Cloud_Experiment_FR_REAL,001,42,
images/fcloud80-20_D1.2_7.tif,1.2,2,,,,,,,,,,,,,0,60,60,112,,,,,,,,,,,2,space,5.01368829998,1,0.768,,,,,,,,,,,,,,,,,,2019_Apr_22_1709,59.912491824659405,Cloud_Experiment_FR_REAL,001,42,
images/fcloud80-20_D1.8_9.tif,1.8,2,,,,,,,,,,,,,0,61,61,138,,,,,,,,,,,3,space,3.25376549998,1,1.55,,,,,,,,,,,,,,,,,,2019_Apr_22_1709,59.912491824659405,Cloud_Experiment_FR_REAL,001,42,
images/fcloud80-20_D1_10.tif,1.0,2,,,,,,,,,,,,,0,62,62,107,,,,,,,,,,,None,None,,None,10.242,,,,,,,,,,,,,,,,,,2019_Apr_22_1709,59.912491824659405,Cloud_Experiment_FR_REAL,001,42,
images/fcloud_D1_9.tif,1.0,0,,,,,,,,,,,,,0,63,63,10,,,,,,,,,,,3,space,2.05774680001,4,1.284,,,,,,,,,,,,,,,,,,2019_Apr_22_1709,59.912491824659405,Cloud_Experiment_FR_REAL,001,42,
images/fcloud_D1.7_8.tif,1.7,0,,,,,,,,,,,,,0,64,64,37,,,,,,,,,,,2,space,1.45863449998,3,1.767,,,,,,,,,,,,,,,,,,2019_Apr_22_1709,59.912491824659405,Cloud_Experiment_FR_REAL,001,42,
images/fcloud_D1.3_7.tif,1.3,0,,,,,,,,,,,,,0,65,65,20,,,,,,,,,,,5,space,2.24879570003,4,1.786,,,,,,,,,,,,,,,,,,2019_Apr_22_1709,59.912491824659405,Cloud_Experiment_FR_REAL,001,42,
images/fcloud65-35_D1.9_10.tif,1.9,1,,,,,,,,,,,,,0,66,66,95,,,,,,,,,,,5,space,3.2023681,5,0.752,,,,,,,,,,,,,,,,,,2019_Apr_22_1709,59.912491824659405,Cloud_Experiment_FR_REAL,001,42,
images/fcloud_D1.4_8.tif,1.4,0,,,,,,,,,,,,,0,67,67,25,,,,,,,,,,,2,space,1.94318240002,5,1.967,,,,,,,,,,,,,,,,,,2019_Apr_22_1709,59.912491824659405,Cloud_Experiment_FR_REAL,001,42,
images/fcloud_D1.5_10.tif,1.5,0,,,,,,,,,,,,,0,68,68,31,,,,,,,,,,,4,space,1.94678270002,3,2.101,,,,,,,,,,,,,,,,,,2019_Apr_22_1709,59.912491824659405,Cloud_Experiment_FR_REAL,001,42,
images/fcloud_D0.9_7.tif,0.9,0,,,,,,,,,,,,,0,69,69,4,,,,,,,,,,,2,space,6.1302282,3,1.617,,,,,,,,,,,,,,,,,,2019_Apr_22_1709,59.912491824659405,Cloud_Experiment_FR_REAL,001,42,
images/fcloud80-20_D1.8_8.tif,1.8,2,,,,,,,,,,,,,0,70,70,137,,,,,,,,,,,1,space,7.59851909999,1,1.118,,,,,,,,,,,,,,,,,,2019_Apr_22_1709,59.912491824659405,Cloud_Experiment_FR_REAL,001,42,
images/fcloud65-35_D1.8_8.tif,1.8,1,,,,,,,,,,,,,0,71,71,89,,,,,,,,,,,2,space,5.9959639,2,1.517,,,,,,,,,,,,,,,,,,2019_Apr_22_1709,59.912491824659405,Cloud_Experiment_FR_REAL,001,42,
images/fcloud65-35_D0.9_9.tif,0.9,1,,,,,,,,,,,,,0,72,72,54,,,,,,,,,,,None,None,,None,10.059,,,,,,,,,,,,,,,,,,2019_Apr_22_1709,59.912491824659405,Cloud_Experiment_FR_REAL,001,42,
images/fcloud80-20_D1.7_8.tif,1.7,2,,,,,,,,,,,,,0,73,73,133,,,,,,,,,,,1,space,3.89173750003,1,0.735,,,,,,,,,,,,,,,,,,2019_Apr_22_1709,59.912491824659405,Cloud_Experiment_FR_REAL,001,42,
images/fcloud65-35_D1.7_9.tif,1.7,1,,,,,,,,,,,,,0,74,74,86,,,,,,,,,,,5,space,1.86019010004,3,1.934,,,,,,,,,,,,,,,,,,2019_Apr_22_1709,59.912491824659405,Cloud_Experiment_FR_REAL,001,42,
images/fcloud_D0.8_7.tif,0.8,0,,,,,,,,,,,,,0,75,75,0,,,,,,,,,,,2,space,1.1580232,5,0.919,,,,,,,,,,,,,,,,,,2019_Apr_22_1709,59.912491824659405,Cloud_Experiment_FR_REAL,001,42,
images/fcloud_D1_10.tif,1.0,0,,,,,,,,,,,,,0,76,76,11,,,,,,,,,,,1,space,2.42866139999,5,1.067,,,,,,,,,,,,,,,,,,2019_Apr_22_1709,59.912491824659405,Cloud_Experiment_FR_REAL,001,42,
images/fcloud65-35_D0.9_7.tif,0.9,1,,,,,,,,,,,,,0,77,77,52,,,,,,,,,,,1,space,2.81184589997,5,1.352,,,,,,,,,,,,,,,,,,2019_Apr_22_1709,59.912491824659405,Cloud_Experiment_FR_REAL,001,42,
images/fcloud80-20_D1_8.tif,1.0,2,,,,,,,,,,,,,0,78,78,105,,,,,,,,,,,1,space,7.28612120001,2,1.004,,,,,,,,,,,,,,,,,,2019_Apr_22_1709,59.912491824659405,Cloud_Experiment_FR_REAL,001,42,
images/fcloud65-35_D1.9_7.tif,1.9,1,,,,,,,,,,,,,0,79,79,92,,,,,,,,,,,5,space,1.51084179996,5,0.885,,,,,,,,,,,,,,,,,,2019_Apr_22_1709,59.912491824659405,Cloud_Experiment_FR_REAL,001,42,
images/fcloud80-20_D1.6_9.tif,1.6,2,,,,,,,,,,,,,0,80,80,130,,,,,,,,,,,None,None,,None,10.225,,,,,,,,,,,,,,,,,,2019_Apr_22_1709,59.912491824659405,Cloud_Experiment_FR_REAL,001,42,
images/fcloud_D1.6_7.tif,1.6,0,,,,,,,,,,,,,0,81,81,32,,,,,,,,,,,5,space,4.2605571,5,1.433,,,,,,,,,,,,,,,,,,2019_Apr_22_1709,59.912491824659405,Cloud_Experiment_FR_REAL,001,42,
images/fcloud80-20_D0.8_7.tif,0.8,2,,,,,,,,,,,,,0,82,82,96,,,,,,,,,,,1,space,3.046317,1,0.435,,,,,,,,,,,,,,,,,,2019_Apr_22_1709,59.912491824659405,Cloud_Experiment_FR_REAL,001,42,
images/fcloud_D1.2_8.tif,1.2,0,,,,,,,,,,,,,0,83,83,17,,,,,,,,,,,5,space,2.59747450001,5,0.652,,,,,,,,,,,,,,,,,,2019_Apr_22_1709,59.912491824659405,Cloud_Experiment_FR_REAL,001,42,
images/fcloud80-20_D1.6_10.tif,1.6,2,,,,,,,,,,,,,0,84,84,131,,,,,,,,,,,2,space,5.77481430001,1,0.685,,,,,,,,,,,,,,,,,,2019_Apr_22_1709,59.912491824659405,Cloud_Experiment_FR_REAL,001,42,
images/fcloud80-20_D0.9_7.tif,0.9,2,,,,,,,,,,,,,0,85,85,100,,,,,,,,,,,None,None,,None,9.56,,,,,,,,,,,,,,,,,,2019_Apr_22_1709,59.912491824659405,Cloud_Experiment_FR_REAL,001,42,
images/fcloud80-20_D1_7.tif,1.0,2,,,,,,,,,,,,,0,86,86,104,,,,,,,,,,,1,space,4.05015850003,1,0.602,,,,,,,,,,,,,,,,,,2019_Apr_22_1709,59.912491824659405,Cloud_Experiment_FR_REAL,001,42,
images/fcloud_D0.8_8.tif,0.8,0,,,,,,,,,,,,,0,87,87,1,,,,,,,,,,,1,space,1.19509719999,5,0.734,,,,,,,,,,,,,,,,,,2019_Apr_22_1709,59.912491824659405,Cloud_Experiment_FR_REAL,001,42,
images/fcloud65-35_D1.3_8.tif,1.3,1,,,,,,,,,,,,,0,88,88,69,,,,,,,,,,,1,space,7.17214869999,1,0.452,,,,,,,,,,,,,,,,,,2019_Apr_22_1709,59.912491824659405,Cloud_Experiment_FR_REAL,001,42,
images/fcloud80-20_D1.7_7.tif,1.7,2,,,,,,,,,,,,,0,89,89,132,,,,,,,,,,,1,space,5.73894309998,2,0.784,,,,,,,,,,,,,,,,,,2019_Apr_22_1709,59.912491824659405,Cloud_Experiment_FR_REAL,001,42,
images/fcloud65-35_D1.3_10.tif,1.3,1,,,,,,,,,,,,,0,90,90,71,,,,,,,,,,,2,space,4.06743960001,3,1.601,,,,,,,,,,,,,,,,,,2019_Apr_22_1709,59.912491824659405,Cloud_Experiment_FR_REAL,001,42,
images/fcloud80-20_D1.1_7.tif,1.1,2,,,,,,,,,,,,,0,91,91,108,,,,,,,,,,,1,space,7.6882876,1,0.935,,,,,,,,,,,,,,,,,,2019_Apr_22_1709,59.912491824659405,Cloud_Experiment_FR_REAL,001,42,
images/fcloud_D1.4_7.tif,1.4,0,,,,,,,,,,,,,0,92,92,24,,,,,,,,,,,4,space,5.55737610004,5,1.351,,,,,,,,,,,,,,,,,,2019_Apr_22_1709,59.912491824659405,Cloud_Experiment_FR_REAL,001,42,
images/fcloud80-20_D1.1_8.tif,1.1,2,,,,,,,,,,,,,0,93,93,109,,,,,,,,,,,1,space,3.2174052,2,1.301,,,,,,,,,,,,,,,,,,2019_Apr_22_1709,59.912491824659405,Cloud_Experiment_FR_REAL,001,42,
images/fcloud80-20_D1.4_8.tif,1.4,2,,,,,,,,,,,,,0,94,94,121,,,,,,,,,,,None,None,,None,10.525,,,,,,,,,,,,,,,,,,2019_Apr_22_1709,59.912491824659405,Cloud_Experiment_FR_REAL,001,42,
images/fcloud_D1.8_8.tif,1.8,0,,,,,,,,,,,,,0,95,95,41,,,,,,,,,,,5,space,3.19301529997,5,0.585,,,,,,,,,,,,,,,,,,2019_Apr_22_1709,59.912491824659405,Cloud_Experiment_FR_REAL,001,42,
images/fcloud_D1_8.tif,1.0,0,,,,,,,,,,,,,0,96,96,9,,,,,,,,,,,5,space,3.6240211,5,1.684,,,,,,,,,,,,,,,,,,2019_Apr_22_1709,59.912491824659405,Cloud_Experiment_FR_REAL,001,42,
images/fcloud80-20_D0.9_10.tif,0.9,2,,,,,,,,,,,,,0,97,97,103,,,,,,,,,,,1,space,7.03010579996,2,0.853,,,,,,,,,,,,,,,,,,2019_Apr_22_1709,59.912491824659405,Cloud_Experiment_FR_REAL,001,42,
images/fcloud_D1.6_10.tif,1.6,0,,,,,,,,,,,,,0,98,98,35,,,,,,,,,,,5,space,5.0975872,4,0.568,,,,,,,,,,,,,,,,,,2019_Apr_22_1709,59.912491824659405,Cloud_Experiment_FR_REAL,001,42,
images/fcloud65-35_D1.5_8.tif,1.5,1,,,,,,,,,,,,,0,99,99,77,,,,,,,,,,,5,space,5.64062980004,3,2.551,,,,,,,,,,,,,,,,,,2019_Apr_22_1709,59.912491824659405,Cloud_Experiment_FR_REAL,001,42,
images/fcloud80-20_D1.4_10.tif,1.4,2,,,,,,,,,,,,,0,100,100,123,,,,,,,,,,,None,None,,None,11.159,,,,,,,,,,,,,,,,,,2019_Apr_22_1709,59.912491824659405,Cloud_Experiment_FR_REAL,001,42,
images/fcloud80-20_D1.6_7.tif,1.6,2,,,,,,,,,,,,,0,101,101,128,,,,,,,,,,,2,space,3.30757840001,1,0.934,,,,,,,,,,,,,,,,,,2019_Apr_22_1709,59.912491824659405,Cloud_Experiment_FR_REAL,001,42,
images/fcloud80-20_D1.2_10.tif,1.2,2,,,,,,,,,,,,,0,102,102,115,,,,,,,,,,,1,space,4.9553266,1,0.868,,,,,,,,,,,,,,,,,,2019_Apr_22_1709,59.912491824659405,Cloud_Experiment_FR_REAL,001,42,
images/fcloud_D0.9_10.tif,0.9,0,,,,,,,,,,,,,0,103,103,7,,,,,,,,,,,4,space,2.15874259995,2,1.101,,,,,,,,,,,,,,,,,,2019_Apr_22_1709,59.912491824659405,Cloud_Experiment_FR_REAL,001,42,
images/fcloud65-35_D1.1_7.tif,1.1,1,,,,,,,,,,,,,0,104,104,60,,,,,,,,,,,3,space,4.20396059996,2,1.951,,,,,,,,,,,,,,,,,,2019_Apr_22_1709,59.912491824659405,Cloud_Experiment_FR_REAL,001,42,
images/fcloud80-20_D1.5_7.tif,1.5,2,,,,,,,,,,,,,0,105,105,124,,,,,,,,,,,1,space,5.54216159997,2,1.019,,,,,,,,,,,,,,,,,,2019_Apr_22_1709,59.912491824659405,Cloud_Experiment_FR_REAL,001,42,
images/fcloud80-20_D1.4_9.tif,1.4,2,,,,,,,,,,,,,0,106,106,122,,,,,,,,,,,None,None,,None,9.692,,,,,,,,,,,,,,,,,,2019_Apr_22_1709,59.912491824659405,Cloud_Experiment_FR_REAL,001,42,
images/fcloud_D1.9_8.tif,1.9,0,,,,,,,,,,,,,0,107,107,45,,,,,,,,,,,5,space,5.03229960002,4,1.651,,,,,,,,,,,,,,,,,,2019_Apr_22_1709,59.912491824659405,Cloud_Experiment_FR_REAL,001,42,
images/fcloud65-35_D0.8_9.tif,0.8,1,,,,,,,,,,,,,0,108,108,50,,,,,,,,,,,2,space,2.12574559997,3,4.015,,,,,,,,,,,,,,,,,,2019_Apr_22_1709,59.912491824659405,Cloud_Experiment_FR_REAL,001,42,
images/fcloud_D1.8_10.tif,1.8,0,,,,,,,,,,,,,0,109,109,43,,,,,,,,,,,3,space,4.17326729995,4,1.252,,,,,,,,,,,,,,,,,,2019_Apr_22_1709,59.912491824659405,Cloud_Experiment_FR_REAL,001,42,
images/fcloud65-35_D1.1_8.tif,1.1,1,,,,,,,,,,,,,0,110,110,61,,,,,,,,,,,2,space,2.56085780001,1,1.084,,,,,,,,,,,,,,,,,,2019_Apr_22_1709,59.912491824659405,Cloud_Experiment_FR_REAL,001,42,
images/fcloud65-35_D0.9_8.tif,0.9,1,,,,,,,,,,,,,0,111,111,53,,,,,,,,,,,None,None,,None,9.809,,,,,,,,,,,,,,,,,,2019_Apr_22_1709,59.912491824659405,Cloud_Experiment_FR_REAL,001,42,
images/fcloud_D1.2_7.tif,1.2,0,,,,,,,,,,,,,0,112,112,16,,,,,,,,,,,2,space,2.04068369995,4,1.517,,,,,,,,,,,,,,,,,,2019_Apr_22_1709,59.912491824659405,Cloud_Experiment_FR_REAL,001,42,
images/fcloud65-35_D1.2_9.tif,1.2,1,,,,,,,,,,,,,0,113,113,66,,,,,,,,,,,None,None,,None,10.242,,,,,,,,,,,,,,,,,,2019_Apr_22_1709,59.912491824659405,Cloud_Experiment_FR_REAL,001,42,
images/fcloud_D1.3_9.tif,1.3,0,,,,,,,,,,,,,0,114,114,22,,,,,,,,,,,5,space,1.42229690001,5,1.002,,,,,,,,,,,,,,,,,,2019_Apr_22_1709,59.912491824659405,Cloud_Experiment_FR_REAL,001,42,
images/fcloud65-35_D1.8_10.tif,1.8,1,,,,,,,,,,,,,0,115,115,91,,,,,,,,,,,5,space,5.47872139997,5,0.853,,,,,,,,,,,,,,,,,,2019_Apr_22_1709,59.912491824659405,Cloud_Experiment_FR_REAL,001,42,
images/fcloud80-20_D1.3_7.tif,1.3,2,,,,,,,,,,,,,0,116,116,116,,,,,,,,,,,1,None,,1,0.885,,,,,,,,,,,,,,,,,,2019_Apr_22_1709,59.912491824659405,Cloud_Experiment_FR_REAL,001,42,
images/fcloud65-35_D1.7_7.tif,1.7,1,,,,,,,,,,,,,0,117,117,84,,,,,,,,,,,2,space,3.51563799998,2,0.885,,,,,,,,,,,,,,,,,,2019_Apr_22_1709,59.912491824659405,Cloud_Experiment_FR_REAL,001,42,
images/fcloud80-20_D1.8_10.tif,1.8,2,,,,,,,,,,,,,0,118,118,139,,,,,,,,,,,1,space,6.20706519997,2,1.018,,,,,,,,,,,,,,,,,,2019_Apr_22_1709,59.912491824659405,Cloud_Experiment_FR_REAL,001,42,
images/fcloud80-20_D1.4_7.tif,1.4,2,,,,,,,,,,,,,0,119,119,120,,,,,,,,,,,None,None,,None,9.543,,,,,,,,,,,,,,,,,,2019_Apr_22_1709,59.912491824659405,Cloud_Experiment_FR_REAL,001,42,
images/fcloud_D1.7_9.tif,1.7,0,,,,,,,,,,,,,0,120,120,38,,,,,,,,,,,5,space,2.15232380002,4,1.584,,,,,,,,,,,,,,,,,,2019_Apr_22_1709,59.912491824659405,Cloud_Experiment_FR_REAL,001,42,
images/fcloud65-35_D1.5_9.tif,1.5,1,,,,,,,,,,,,,0,121,121,78,,,,,,,,,,,3,space,5.7921964,3,2.916,,,,,,,,,,,,,,,,,,2019_Apr_22_1709,59.912491824659405,Cloud_Experiment_FR_REAL,001,42,
images/fcloud65-35_D1_7.tif,1.0,1,,,,,,,,,,,,,0,122,122,56,,,,,,,,,,,2,space,2.42993300001,3,1.052,,,,,,,,,,,,,,,,,,2019_Apr_22_1709,59.912491824659405,Cloud_Experiment_FR_REAL,001,42,
images/fcloud80-20_D1.7_10.tif,1.7,2,,,,,,,,,,,,,0,123,123,135,,,,,,,,,,,2,space,2.06238010002,1,1.468,,,,,,,,,,,,,,,,,,2019_Apr_22_1709,59.912491824659405,Cloud_Experiment_FR_REAL,001,42,
images/fcloud_D1.1_7.tif,1.1,0,,,,,,,,,,,,,0,124,124,12,,,,,,,,,,,3,space,3.22073179996,4,1.801,,,,,,,,,,,,,,,,,,2019_Apr_22_1709,59.912491824659405,Cloud_Experiment_FR_REAL,001,42,
images/fcloud_D1.5_9.tif,1.5,0,,,,,,,,,,,,,0,125,125,30,,,,,,,,,,,1,space,6.29595180001,2,1.951,,,,,,,,,,,,,,,,,,2019_Apr_22_1709,59.912491824659405,Cloud_Experiment_FR_REAL,001,42,
images/fcloud65-35_D1.4_8.tif,1.4,1,,,,,,,,,,,,,0,126,126,73,,,,,,,,,,,None,None,,None,11.207,,,,,,,,,,,,,,,,,,2019_Apr_22_1709,59.912491824659405,Cloud_Experiment_FR_REAL,001,42,
images/fcloud65-35_D1.2_8.tif,1.2,1,,,,,,,,,,,,,0,127,127,65,,,,,,,,,,,2,space,5.68026579998,3,1.803,,,,,,,,,,,,,,,,,,2019_Apr_22_1709,59.912491824659405,Cloud_Experiment_FR_REAL,001,42,
images/fcloud80-20_D1.3_10.tif,1.3,2,,,,,,,,,,,,,0,128,128,119,,,,,,,,,,,3,space,4.76029769995,4,1.102,,,,,,,,,,,,,,,,,,2019_Apr_22_1709,59.912491824659405,Cloud_Experiment_FR_REAL,001,42,
images/fcloud80-20_D1.9_8.tif,1.9,2,,,,,,,,,,,,,0,129,129,141,,,,,,,,,,,5,space,5.61613460002,4,1.984,,,,,,,,,,,,,,,,,,2019_Apr_22_1709,59.912491824659405,Cloud_Experiment_FR_REAL,001,42,
images/fcloud65-35_D1.9_9.tif,1.9,1,,,,,,,,,,,,,0,130,130,94,,,,,,,,,,,5,space,4.00661440002,3,0.835,,,,,,,,,,,,,,,,,,2019_Apr_22_1709,59.912491824659405,Cloud_Experiment_FR_REAL,001,42,
images/fcloud65-35_D1.2_10.tif,1.2,1,,,,,,,,,,,,,0,131,131,67,,,,,,,,,,,2,space,5.79769339995,1,0.517,,,,,,,,,,,,,,,,,,2019_Apr_22_1709,59.912491824659405,Cloud_Experiment_FR_REAL,001,42,
images/fcloud80-20_D0.8_9.tif,0.8,2,,,,,,,,,,,,,0,132,132,98,,,,,,,,,,,3,space,2.6203904,2,1.251,,,,,,,,,,,,,,,,,,2019_Apr_22_1709,59.912491824659405,Cloud_Experiment_FR_REAL,001,42,
images/fcloud_D0.8_10.tif,0.8,0,,,,,,,,,,,,,0,133,133,3,,,,,,,,,,,1,space,1.69835139997,1,0.703,,,,,,,,,,,,,,,,,,2019_Apr_22_1709,59.912491824659405,Cloud_Experiment_FR_REAL,001,42,
images/fcloud65-35_D0.8_7.tif,0.8,1,,,,,,,,,,,,,0,134,134,48,,,,,,,,,,,3,space,1.09571150003,2,1.451,,,,,,,,,,,,,,,,,,2019_Apr_22_1709,59.912491824659405,Cloud_Experiment_FR_REAL,001,42,
images/fcloud80-20_D1.5_10.tif,1.5,2,,,,,,,,,,,,,0,135,135,127,,,,,,,,,,,2,space,4.75100650004,4,1.517,,,,,,,,,,,,,,,,,,2019_Apr_22_1709,59.912491824659405,Cloud_Experiment_FR_REAL,001,42,
images/fcloud_D1.1_10.tif,1.1,0,,,,,,,,,,,,,0,136,136,15,,,,,,,,,,,1,space,1.67992860003,4,1.418,,,,,,,,,,,,,,,,,,2019_Apr_22_1709,59.912491824659405,Cloud_Experiment_FR_REAL,001,42,
images/fcloud_D1.9_7.tif,1.9,0,,,,,,,,,,,,,0,137,137,44,,,,,,,,,,,2,space,1.53568019997,1,0.952,,,,,,,,,,,,,,,,,,2019_Apr_22_1709,59.912491824659405,Cloud_Experiment_FR_REAL,001,42,
images/fcloud65-35_D0.8_10.tif,0.8,1,,,,,,,,,,,,,0,138,138,51,,,,,,,,,,,2,space,1.35524189996,1,1.102,,,,,,,,,,,,,,,,,,2019_Apr_22_1709,59.912491824659405,Cloud_Experiment_FR_REAL,001,42,
images/fcloud_D1.6_9.tif,1.6,0,,,,,,,,,,,,,0,139,139,34,,,,,,,,,,,5,space,2.48196339997,4,0.751,,,,,,,,,,,,,,,,,,2019_Apr_22_1709,59.912491824659405,Cloud_Experiment_FR_REAL,001,42,
images/fcloud65-35_D1.4_7.tif,1.4,1,,,,,,,,,,,,,0,140,140,72,,,,,,,,,,,3,space,2.9013343,4,1.435,,,,,,,,,,,,,,,,,,2019_Apr_22_1709,59.912491824659405,Cloud_Experiment_FR_REAL,001,42,
images/fcloud_D0.9_8.tif,0.9,0,,,,,,,,,,,,,0,141,141,5,,,,,,,,,,,3,space,4.64343679999,4,1.934,,,,,,,,,,,,,,,,,,2019_Apr_22_1709,59.912491824659405,Cloud_Experiment_FR_REAL,001,42,
images/fcloud80-20_D1.7_9.tif,1.7,2,,,,,,,,,,,,,0,142,142,134,,,,,,,,,,,None,None,,None,11.109,,,,,,,,,,,,,,,,,,2019_Apr_22_1709,59.912491824659405,Cloud_Experiment_FR_REAL,001,42,
images/fcloud65-35_D1.5_7.tif,1.5,1,,,,,,,,,,,,,0,143,143,76,,,,,,,,,,,2,space,1.79535959999,2,1.269,,,,,,,,,,,,,,,,,,2019_Apr_22_1709,59.912491824659405,Cloud_Experiment_FR_REAL,001,42,
,,,,,,,,,,,,,,,,,,,,,,,,,4,8.714,,,,,,,,,,,,,,,,,,,,,,,,,2019_Apr_22_1709,59.912491824659405,Cloud_Experiment_FR_REAL,001,42,
,,,,,,,,,,,,,,,,,,,,,,,,,,,,,,,,,,4,,,,,,,,,,,,,,,,,2019_Apr_22_1709,59.912491824659405,Cloud_Experiment_FR_REAL,001,42,
,,,,,,,,,,,,,,,,,,,,,,,,,,,,,,,,,,,3,,,,,,,,,,,,,,,,2019_Apr_22_1709,59.912491824659405,Cloud_Experiment_FR_REAL,001,42,
,,,,,,,,,,,,,,,,,,,,,,,,,,,,,,,,,,,,4,,,,,,,,,,,,,,,2019_Apr_22_1709,59.912491824659405,Cloud_Experiment_FR_REAL,001,42,
,,,,,,,,,,,,,,,,,,,,,,,,,,,,,,,,,,,,,3,,,,,,,,,,,,,,2019_Apr_22_1709,59.912491824659405,Cloud_Experiment_FR_REAL,001,42,
,,,,,,,,,,,,,,,,,,,,,,,,,,,,,,,,,,,,,,4,,,,,,,,,,,,,2019_Apr_22_1709,59.912491824659405,Cloud_Experiment_FR_REAL,001,42,
,,,,,,,,,,,,,,,,,,,,,,,,,,,,,,,,,,,,,,,3,,,,,,,,,,,,2019_Apr_22_1709,59.912491824659405,Cloud_Experiment_FR_REAL,001,42,
,,,,,,,,,,,,,,,,,,,,,,,,,,,,,,,,,,,,,,,,6,,,,,,,,,,,2019_Apr_22_1709,59.912491824659405,Cloud_Experiment_FR_REAL,001,42,
,,,,,,,,,,,,,,,,,,,,,,,,,,,,,,,,,,,,,,,,,7,,,,,,,,,,2019_Apr_22_1709,59.912491824659405,Cloud_Experiment_FR_REAL,001,42,
,,,,,,,,,,,,,,,,,,,,,,,,,,,,,,,,,,,,,,,,,,6,,,,,,,,,2019_Apr_22_1709,59.912491824659405,Cloud_Experiment_FR_REAL,001,42,
,,,,,,,,,,,,,,,,,,,,,,,,,,,,,,,,,,,,,,,,,,,5,,,,,,,,2019_Apr_22_1709,59.912491824659405,Cloud_Experiment_FR_REAL,001,42,
,,,,,,,,,,,,,,,,,,,,,,,,,,,,,,,,,,,,,,,,,,,,,,,,,,7,2019_Apr_22_1709,59.912491824659405,Cloud_Experiment_FR_REAL,001,42,
