ImageFile,FD,Contrast,trials_4.thisRepN,trials_4.thisTrialN,trials_4.thisN,trials_4.thisIndex,trials.thisRepN,trials.thisTrialN,trials.thisN,trials.thisIndex,trials_2.thisRepN,trials_2.thisTrialN,trials_2.thisN,trials_2.thisIndex,trials_3.thisRepN,trials_3.thisTrialN,trials_3.thisN,trials_3.thisIndex,end_instructions.keys,end_instructions.rt,key_resp_4.keys,key_resp_4.rt,key_resp_6.keys,key_resp_6.rt,Fatigue.response,Fatigue.rt,key_resp_5.keys,key_resp_5.rt,n_objets.response,reaction_time.keys,reaction_time.rt,vividness.response,vividness.rt,Flow01.response,Flow02.response,Flow03.response,Flow04.response,Flow05.response,Flow06.response,Flow07.response,Flow08.response,Flow09.response,Flow10.response,key_resp_2.keys,key_resp_2.rt,key_resp_8.keys,key_resp_8.rt,key_resp_3.keys,key_resp_3.rt,Redondance_question.response,date,frameRate,expName,session,participant,
,,,,,,,,,,,,,,,,,,,space,9.97671469999,,,,,,,,,,,,,,,,,,,,,,,,,,,,,,,2019_Apr_24_1607,60.18234044227288,Cloud_Experiment_FR_REAL,001,43,
,,,,,,,,,,,,,,,,,,,,,space,81.2813654001,,,,,,,,,,,,,,,,,,,,,,,,,,,,,2019_Apr_24_1607,60.18234044227288,Cloud_Experiment_FR_REAL,001,43,
,,,,,,,,,,,,,,,,,,,,,,,space,9.64347500005,,,,,,,,,,,,,,,,,,,,,,,,,,,2019_Apr_24_1607,60.18234044227288,Cloud_Experiment_FR_REAL,001,43,
,,,,,,,,,,,,,,,,,,,,,,,,,9,107.588,,,,,,,,,,,,,,,,,,,,,,,,,2019_Apr_24_1607,60.18234044227288,Cloud_Experiment_FR_REAL,001,43,
,,,,,,,,,,,,,,,,,,,,,,,,,,,space,6.57766800001,,,,,,,,,,,,,,,,,,,,,,,2019_Apr_24_1607,60.18234044227288,Cloud_Experiment_FR_REAL,001,43,
pratique/fcloud_D1.6_28,1.6,0,0,0,0,5,,,,,,,,,,,,,,,,,,,,,,,1,space,5.15796629991,4,11.741,,,,,,,,,,,,,,,,,,2019_Apr_24_1607,60.18234044227288,Cloud_Experiment_FR_REAL,001,43,
pratique/fcloud65-35_D1.9_29,1.9,1,0,1,1,7,,,,,,,,,,,,,,,,,,,,,,,1,space,3.77792730008,3,4.014,,,,,,,,,,,,,,,,,,2019_Apr_24_1607,60.18234044227288,Cloud_Experiment_FR_REAL,001,43,
pratique/fcloud80-20_D1.8_30,1.8,2,0,2,2,4,,,,,,,,,,,,,,,,,,,,,,,1,space,7.30751389998,2,6.714,,,,,,,,,,,,,,,,,,2019_Apr_24_1607,60.18234044227288,Cloud_Experiment_FR_REAL,001,43,
pratique/fcloud80-20_D1.5_30,1.5,2,0,3,3,8,,,,,,,,,,,,,,,,,,,,,,,1,space,6.40411730006,1,2.383,,,,,,,,,,,,,,,,,,2019_Apr_24_1607,60.18234044227288,Cloud_Experiment_FR_REAL,001,43,
pratique/fcloud80-20_D1_30,1.0,2,0,4,4,9,,,,,,,,,,,,,,,,,,,,,,,1,space,2.28557099996,2,1.25,,,,,,,,,,,,,,,,,,2019_Apr_24_1607,60.18234044227288,Cloud_Experiment_FR_REAL,001,43,
pratique/fcloud65-35_D1.2_30,1.2,1,0,5,5,3,,,,,,,,,,,,,,,,,,,,,,,None,None,,None,16.369,,,,,,,,,,,,,,,,,,2019_Apr_24_1607,60.18234044227288,Cloud_Experiment_FR_REAL,001,43,
pratique/fcloud_D1.4_30,1.4,0,0,6,6,1,,,,,,,,,,,,,,,,,,,,,,,None,None,,None,26.127,,,,,,,,,,,,,,,,,,2019_Apr_24_1607,60.18234044227288,Cloud_Experiment_FR_REAL,001,43,
pratique/fcloud65-35_D1.3_30,1.3,1,0,7,7,6,,,,,,,,,,,,,,,,,,,,,,,None,None,,None,35.452,,,,,,,,,,,,,,,,,,2019_Apr_24_1607,60.18234044227288,Cloud_Experiment_FR_REAL,001,43,
pratique/fcloud_D0.8_30,0.8,0,0,8,8,0,,,,,,,,,,,,,,,,,,,,,,,None,None,,None,44.094,,,,,,,,,,,,,,,,,,2019_Apr_24_1607,60.18234044227288,Cloud_Experiment_FR_REAL,001,43,
pratique/fcloud65-35_D1.6_30,1.6,1,0,9,9,2,,,,,,,,,,,,,,,,,,,,,,,1,space,1.92009379994,3,3.466,,,,,,,,,,,,,,,,,,2019_Apr_24_1607,60.18234044227288,Cloud_Experiment_FR_REAL,001,43,
,,,,,,,,,,,,,,,,,,,,,,,,,,,,,,,,,,5,,,,,,,,,,,,,,,,,2019_Apr_24_1607,60.18234044227288,Cloud_Experiment_FR_REAL,001,43,
,,,,,,,,,,,,,,,,,,,,,,,,,,,,,,,,,,,4,,,,,,,,,,,,,,,,2019_Apr_24_1607,60.18234044227288,Cloud_Experiment_FR_REAL,001,43,
,,,,,,,,,,,,,,,,,,,,,,,,,,,,,,,,,,,,3,,,,,,,,,,,,,,,2019_Apr_24_1607,60.18234044227288,Cloud_Experiment_FR_REAL,001,43,
,,,,,,,,,,,,,,,,,,,,,,,,,,,,,,,,,,,,,6,,,,,,,,,,,,,,2019_Apr_24_1607,60.18234044227288,Cloud_Experiment_FR_REAL,001,43,
,,,,,,,,,,,,,,,,,,,,,,,,,,,,,,,,,,,,,,6,,,,,,,,,,,,,2019_Apr_24_1607,60.18234044227288,Cloud_Experiment_FR_REAL,001,43,
,,,,,,,,,,,,,,,,,,,,,,,,,,,,,,,,,,,,,,,5,,,,,,,,,,,,2019_Apr_24_1607,60.18234044227288,Cloud_Experiment_FR_REAL,001,43,
,,,,,,,,,,,,,,,,,,,,,,,,,,,,,,,,,,,,,,,,3,,,,,,,,,,,2019_Apr_24_1607,60.18234044227288,Cloud_Experiment_FR_REAL,001,43,
,,,,,,,,,,,,,,,,,,,,,,,,,,,,,,,,,,,,,,,,,5,,,,,,,,,,2019_Apr_24_1607,60.18234044227288,Cloud_Experiment_FR_REAL,001,43,
,,,,,,,,,,,,,,,,,,,,,,,,,,,,,,,,,,,,,,,,,,4,,,,,,,,,2019_Apr_24_1607,60.18234044227288,Cloud_Experiment_FR_REAL,001,43,
,,,,,,,,,,,,,,,,,,,,,,,,,,,,,,,,,,,,,,,,,,,2,,,,,,,,2019_Apr_24_1607,60.18234044227288,Cloud_Experiment_FR_REAL,001,43,
,,,,,,,,,,,,,,,,,,,,,,,,,,,,,,,,,,,,,,,,,,,,space,10.0419348001,,,,,,2019_Apr_24_1607,60.18234044227288,Cloud_Experiment_FR_REAL,001,43,
images/fcloud_D1.1_2.tif,1.1,0,,,,,0,0,0,10,,,,,,,,,,,,,,,,,,,1,space,2.99097639997,2,3.448,,,,,,,,,,,,,,,,,,2019_Apr_24_1607,60.18234044227288,Cloud_Experiment_FR_REAL,001,43,
images/fcloud65-35_D1.5_1.tif,1.5,1,,,,,0,1,1,57,,,,,,,,,,,,,,,,,,,None,None,,None,13.656,,,,,,,,,,,,,,,,,,2019_Apr_24_1607,60.18234044227288,Cloud_Experiment_FR_REAL,001,43,
images/fcloud80-20_D1_1.tif,1.0,2,,,,,0,2,2,78,,,,,,,,,,,,,,,,,,,None,None,,None,24.829,,,,,,,,,,,,,,,,,,2019_Apr_24_1607,60.18234044227288,Cloud_Experiment_FR_REAL,001,43,
images/fcloud_D1.7_1.tif,1.7,0,,,,,0,3,3,27,,,,,,,,,,,,,,,,,,,1,None,,1,0.951,,,,,,,,,,,,,,,,,,2019_Apr_24_1607,60.18234044227288,Cloud_Experiment_FR_REAL,001,43,
images/fcloud_D0.9_3.tif,0.9,0,,,,,0,4,4,5,,,,,,,,,,,,,,,,,,,1,space,4.89366129995,2,1.816,,,,,,,,,,,,,,,,,,2019_Apr_24_1607,60.18234044227288,Cloud_Experiment_FR_REAL,001,43,
images/fcloud65-35_D0.8_1.tif,0.8,1,,,,,0,5,5,36,,,,,,,,,,,,,,,,,,,None,None,,None,14.021,,,,,,,,,,,,,,,,,,2019_Apr_24_1607,60.18234044227288,Cloud_Experiment_FR_REAL,001,43,
images/fcloud_D1.8_2.tif,1.8,0,,,,,0,6,6,31,,,,,,,,,,,,,,,,,,,2,space,3.36079219996,3,4.115,,,,,,,,,,,,,,,,,,2019_Apr_24_1607,60.18234044227288,Cloud_Experiment_FR_REAL,001,43,
images/fcloud80-20_D1.2_3.tif,1.2,2,,,,,0,7,7,86,,,,,,,,,,,,,,,,,,,None,None,,None,13.371,,,,,,,,,,,,,,,,,,2019_Apr_24_1607,60.18234044227288,Cloud_Experiment_FR_REAL,001,43,
images/fcloud_D1_3.tif,1.0,0,,,,,0,8,8,8,,,,,,,,,,,,,,,,,,,1,space,7.74187230004,1,2.268,,,,,,,,,,,,,,,,,,2019_Apr_24_1607,60.18234044227288,Cloud_Experiment_FR_REAL,001,43,
images/fcloud80-20_D1.5_3.tif,1.5,2,,,,,0,9,9,95,,,,,,,,,,,,,,,,,,,None,None,,None,13.173,,,,,,,,,,,,,,,,,,2019_Apr_24_1607,60.18234044227288,Cloud_Experiment_FR_REAL,001,43,
images/fcloud80-20_D1.7_1.tif,1.7,2,,,,,0,10,10,99,,,,,,,,,,,,,,,,,,,2,space,3.15217320004,1,5.581,,,,,,,,,,,,,,,,,,2019_Apr_24_1607,60.18234044227288,Cloud_Experiment_FR_REAL,001,43,
images/fcloud65-35_D0.8_2.tif,0.8,1,,,,,0,11,11,37,,,,,,,,,,,,,,,,,,,None,None,,None,16.886,,,,,,,,,,,,,,,,,,2019_Apr_24_1607,60.18234044227288,Cloud_Experiment_FR_REAL,001,43,
images/fcloud65-35_D1.7_3.tif,1.7,1,,,,,0,12,12,65,,,,,,,,,,,,,,,,,,,None,None,,None,26.728,,,,,,,,,,,,,,,,,,2019_Apr_24_1607,60.18234044227288,Cloud_Experiment_FR_REAL,001,43,
images/fcloud80-20_D1.3_3.tif,1.3,2,,,,,0,13,13,89,,,,,,,,,,,,,,,,,,,None,None,,None,38.217,,,,,,,,,,,,,,,,,,2019_Apr_24_1607,60.18234044227288,Cloud_Experiment_FR_REAL,001,43,
images/fcloud80-20_D1.5_1.tif,1.5,2,,,,,0,14,14,93,,,,,,,,,,,,,,,,,,,1,space,2.86915599997,2,1.334,,,,,,,,,,,,,,,,,,2019_Apr_24_1607,60.18234044227288,Cloud_Experiment_FR_REAL,001,43,
images/fcloud80-20_D1.9_3.tif,1.9,2,,,,,0,15,15,107,,,,,,,,,,,,,,,,,,,1,space,6.46099240007,2,1.734,,,,,,,,,,,,,,,,,,2019_Apr_24_1607,60.18234044227288,Cloud_Experiment_FR_REAL,001,43,
images/fcloud_D1.9_1.tif,1.9,0,,,,,0,16,16,33,,,,,,,,,,,,,,,,,,,None,None,,None,11.674,,,,,,,,,,,,,,,,,,2019_Apr_24_1607,60.18234044227288,Cloud_Experiment_FR_REAL,001,43,
images/fcloud_D1.4_3.tif,1.4,0,,,,,0,17,17,20,,,,,,,,,,,,,,,,,,,1,space,4.90640530002,1,1.301,,,,,,,,,,,,,,,,,,2019_Apr_24_1607,60.18234044227288,Cloud_Experiment_FR_REAL,001,43,
images/fcloud65-35_D1.5_2.tif,1.5,1,,,,,0,18,18,58,,,,,,,,,,,,,,,,,,,None,None,,None,10.492,,,,,,,,,,,,,,,,,,2019_Apr_24_1607,60.18234044227288,Cloud_Experiment_FR_REAL,001,43,
images/fcloud65-35_D1.6_2.tif,1.6,1,,,,,0,19,19,61,,,,,,,,,,,,,,,,,,,2,space,1.97830960003,2,1.5,,,,,,,,,,,,,,,,,,2019_Apr_24_1607,60.18234044227288,Cloud_Experiment_FR_REAL,001,43,
images/fcloud_D1.5_3.tif,1.5,0,,,,,0,20,20,23,,,,,,,,,,,,,,,,,,,2,space,5.64102640003,1,4.348,,,,,,,,,,,,,,,,,,2019_Apr_24_1607,60.18234044227288,Cloud_Experiment_FR_REAL,001,43,
images/fcloud65-35_D1_2.tif,1.0,1,,,,,0,21,21,43,,,,,,,,,,,,,,,,,,,1,space,5.79785500001,1,1.018,,,,,,,,,,,,,,,,,,2019_Apr_24_1607,60.18234044227288,Cloud_Experiment_FR_REAL,001,43,
images/fcloud65-35_D1.4_2.tif,1.4,1,,,,,0,22,22,55,,,,,,,,,,,,,,,,,,,1,space,7.27520409995,1,0.619,,,,,,,,,,,,,,,,,,2019_Apr_24_1607,60.18234044227288,Cloud_Experiment_FR_REAL,001,43,
images/fcloud80-20_D0.9_2.tif,0.9,2,,,,,0,23,23,76,,,,,,,,,,,,,,,,,,,1,space,3.24080239993,1,0.601,,,,,,,,,,,,,,,,,,2019_Apr_24_1607,60.18234044227288,Cloud_Experiment_FR_REAL,001,43,
images/fcloud_D0.9_1.tif,0.9,0,,,,,0,24,24,3,,,,,,,,,,,,,,,,,,,1,space,7.14100910001,1,0.885,,,,,,,,,,,,,,,,,,2019_Apr_24_1607,60.18234044227288,Cloud_Experiment_FR_REAL,001,43,
images/fcloud_D1.1_3.tif,1.1,0,,,,,0,25,25,11,,,,,,,,,,,,,,,,,,,2,space,4.97627339989,1,0.667,,,,,,,,,,,,,,,,,,2019_Apr_24_1607,60.18234044227288,Cloud_Experiment_FR_REAL,001,43,
images/fcloud_D1.2_2.tif,1.2,0,,,,,0,26,26,13,,,,,,,,,,,,,,,,,,,1,space,6.78753470001,1,3.215,,,,,,,,,,,,,,,,,,2019_Apr_24_1607,60.18234044227288,Cloud_Experiment_FR_REAL,001,43,
images/fcloud65-35_D1.6_3.tif,1.6,1,,,,,0,27,27,62,,,,,,,,,,,,,,,,,,,None,None,,None,14.538,,,,,,,,,,,,,,,,,,2019_Apr_24_1607,60.18234044227288,Cloud_Experiment_FR_REAL,001,43,
images/fcloud65-35_D0.9_2.tif,0.9,1,,,,,0,28,28,40,,,,,,,,,,,,,,,,,,,1,space,3.23337260005,1,0.702,,,,,,,,,,,,,,,,,,2019_Apr_24_1607,60.18234044227288,Cloud_Experiment_FR_REAL,001,43,
images/fcloud80-20_D1.8_1.tif,1.8,2,,,,,0,29,29,102,,,,,,,,,,,,,,,,,,,None,None,,None,9.875,,,,,,,,,,,,,,,,,,2019_Apr_24_1607,60.18234044227288,Cloud_Experiment_FR_REAL,001,43,
images/fcloud80-20_D1.6_1.tif,1.6,2,,,,,0,30,30,96,,,,,,,,,,,,,,,,,,,1,space,2.86691929994,1,5.497,,,,,,,,,,,,,,,,,,2019_Apr_24_1607,60.18234044227288,Cloud_Experiment_FR_REAL,001,43,
images/fcloud_D0.9_2.tif,0.9,0,,,,,0,31,31,4,,,,,,,,,,,,,,,,,,,None,None,,None,14.472,,,,,,,,,,,,,,,,,,2019_Apr_24_1607,60.18234044227288,Cloud_Experiment_FR_REAL,001,43,
images/fcloud65-35_D1.3_2.tif,1.3,1,,,,,0,32,32,52,,,,,,,,,,,,,,,,,,,1,space,5.76152020006,1,0.669,,,,,,,,,,,,,,,,,,2019_Apr_24_1607,60.18234044227288,Cloud_Experiment_FR_REAL,001,43,
images/fcloud80-20_D1.5_2.tif,1.5,2,,,,,0,33,33,94,,,,,,,,,,,,,,,,,,,1,space,4.37003570003,2,0.651,,,,,,,,,,,,,,,,,,2019_Apr_24_1607,60.18234044227288,Cloud_Experiment_FR_REAL,001,43,
images/fcloud80-20_D1.3_1.tif,1.3,2,,,,,0,34,34,87,,,,,,,,,,,,,,,,,,,None,None,,None,13.239,,,,,,,,,,,,,,,,,,2019_Apr_24_1607,60.18234044227288,Cloud_Experiment_FR_REAL,001,43,
images/fcloud_D1.5_2.tif,1.5,0,,,,,0,35,35,22,,,,,,,,,,,,,,,,,,,1,space,6.55172290001,2,0.834,,,,,,,,,,,,,,,,,,2019_Apr_24_1607,60.18234044227288,Cloud_Experiment_FR_REAL,001,43,
images/fcloud65-35_D1.2_1.tif,1.2,1,,,,,0,36,36,48,,,,,,,,,,,,,,,,,,,2,space,2.21879009996,2,1.516,,,,,,,,,,,,,,,,,,2019_Apr_24_1607,60.18234044227288,Cloud_Experiment_FR_REAL,001,43,
images/fcloud_D1.5_1.tif,1.5,0,,,,,0,37,37,21,,,,,,,,,,,,,,,,,,,2,space,4.35559339996,2,0.603,,,,,,,,,,,,,,,,,,2019_Apr_24_1607,60.18234044227288,Cloud_Experiment_FR_REAL,001,43,
images/fcloud_D1.9_2.tif,1.9,0,,,,,0,38,38,34,,,,,,,,,,,,,,,,,,,2,space,4.22502599994,2,4.85,,,,,,,,,,,,,,,,,,2019_Apr_24_1607,60.18234044227288,Cloud_Experiment_FR_REAL,001,43,
images/fcloud80-20_D1.8_3.tif,1.8,2,,,,,0,39,39,104,,,,,,,,,,,,,,,,,,,1,space,7.38666299998,1,0.85,,,,,,,,,,,,,,,,,,2019_Apr_24_1607,60.18234044227288,Cloud_Experiment_FR_REAL,001,43,
images/fcloud65-35_D1.2_3.tif,1.2,1,,,,,0,40,40,50,,,,,,,,,,,,,,,,,,,1,space,6.35651229997,1,4.216,,,,,,,,,,,,,,,,,,2019_Apr_24_1607,60.18234044227288,Cloud_Experiment_FR_REAL,001,43,
images/fcloud80-20_D1.1_2.tif,1.1,2,,,,,0,41,41,82,,,,,,,,,,,,,,,,,,,1,space,2.81937069993,1,2.133,,,,,,,,,,,,,,,,,,2019_Apr_24_1607,60.18234044227288,Cloud_Experiment_FR_REAL,001,43,
images/fcloud65-35_D1.9_1.tif,1.9,1,,,,,0,42,42,69,,,,,,,,,,,,,,,,,,,None,None,,None,12.375,,,,,,,,,,,,,,,,,,2019_Apr_24_1607,60.18234044227288,Cloud_Experiment_FR_REAL,001,43,
images/fcloud65-35_D1.4_1.tif,1.4,1,,,,,0,43,43,54,,,,,,,,,,,,,,,,,,,1,space,2.42479319999,3,0.768,,,,,,,,,,,,,,,,,,2019_Apr_24_1607,60.18234044227288,Cloud_Experiment_FR_REAL,001,43,
images/fcloud_D1.7_3.tif,1.7,0,,,,,0,44,44,29,,,,,,,,,,,,,,,,,,,1,space,4.38196530007,1,0.952,,,,,,,,,,,,,,,,,,2019_Apr_24_1607,60.18234044227288,Cloud_Experiment_FR_REAL,001,43,
images/fcloud80-20_D1.8_2.tif,1.8,2,,,,,0,45,45,103,,,,,,,,,,,,,,,,,,,1,None,,1,0.834,,,,,,,,,,,,,,,,,,2019_Apr_24_1607,60.18234044227288,Cloud_Experiment_FR_REAL,001,43,
images/fcloud_D1.9_3.tif,1.9,0,,,,,0,46,46,35,,,,,,,,,,,,,,,,,,,2,space,4.83334480005,2,1.317,,,,,,,,,,,,,,,,,,2019_Apr_24_1607,60.18234044227288,Cloud_Experiment_FR_REAL,001,43,
images/fcloud80-20_D0.8_1.tif,0.8,2,,,,,0,47,47,72,,,,,,,,,,,,,,,,,,,None,None,,None,10.941,,,,,,,,,,,,,,,,,,2019_Apr_24_1607,60.18234044227288,Cloud_Experiment_FR_REAL,001,43,
images/fcloud_D1.4_2.tif,1.4,0,,,,,0,48,48,19,,,,,,,,,,,,,,,,,,,None,None,,None,20.6,,,,,,,,,,,,,,,,,,2019_Apr_24_1607,60.18234044227288,Cloud_Experiment_FR_REAL,001,43,
images/fcloud65-35_D1.1_3.tif,1.1,1,,,,,0,49,49,47,,,,,,,,,,,,,,,,,,,None,None,,None,29.692,,,,,,,,,,,,,,,,,,2019_Apr_24_1607,60.18234044227288,Cloud_Experiment_FR_REAL,001,43,
images/fcloud80-20_D1.4_3.tif,1.4,2,,,,,0,50,50,92,,,,,,,,,,,,,,,,,,,1,space,4.68005060009,1,0.701,,,,,,,,,,,,,,,,,,2019_Apr_24_1607,60.18234044227288,Cloud_Experiment_FR_REAL,001,43,
images/fcloud_D0.8_1.tif,0.8,0,,,,,0,51,51,0,,,,,,,,,,,,,,,,,,,2,space,7.17209570005,1,1.434,,,,,,,,,,,,,,,,,,2019_Apr_24_1607,60.18234044227288,Cloud_Experiment_FR_REAL,001,43,
images/fcloud80-20_D1_3.tif,1.0,2,,,,,0,52,52,80,,,,,,,,,,,,,,,,,,,None,None,,None,10.877,,,,,,,,,,,,,,,,,,2019_Apr_24_1607,60.18234044227288,Cloud_Experiment_FR_REAL,001,43,
images/fcloud65-35_D1.9_2.tif,1.9,1,,,,,0,53,53,70,,,,,,,,,,,,,,,,,,,None,None,,None,20.732,,,,,,,,,,,,,,,,,,2019_Apr_24_1607,60.18234044227288,Cloud_Experiment_FR_REAL,001,43,
images/fcloud_D1.3_1.tif,1.3,0,,,,,0,54,54,15,,,,,,,,,,,,,,,,,,,None,space,3.89078170003,None,29.741,,,,,,,,,,,,,,,,,,2019_Apr_24_1607,60.18234044227288,Cloud_Experiment_FR_REAL,001,43,
images/fcloud80-20_D1.1_1.tif,1.1,2,,,,,0,55,55,81,,,,,,,,,,,,,,,,,,,None,None,,None,40.017,,,,,,,,,,,,,,,,,,2019_Apr_24_1607,60.18234044227288,Cloud_Experiment_FR_REAL,001,43,
images/fcloud_D1.2_3.tif,1.2,0,,,,,0,56,56,14,,,,,,,,,,,,,,,,,,,1,space,4.07286349998,3,0.836,,,,,,,,,,,,,,,,,,2019_Apr_24_1607,60.18234044227288,Cloud_Experiment_FR_REAL,001,43,
images/fcloud80-20_D1.3_2.tif,1.3,2,,,,,0,57,57,88,,,,,,,,,,,,,,,,,,,1,space,6.75319240009,2,0.699,,,,,,,,,,,,,,,,,,2019_Apr_24_1607,60.18234044227288,Cloud_Experiment_FR_REAL,001,43,
images/fcloud_D0.8_3.tif,0.8,0,,,,,0,58,58,2,,,,,,,,,,,,,,,,,,,1,space,1.97355520003,1,1.751,,,,,,,,,,,,,,,,,,2019_Apr_24_1607,60.18234044227288,Cloud_Experiment_FR_REAL,001,43,
images/fcloud65-35_D0.9_1.tif,0.9,1,,,,,0,59,59,39,,,,,,,,,,,,,,,,,,,None,None,,None,12.606,,,,,,,,,,,,,,,,,,2019_Apr_24_1607,60.18234044227288,Cloud_Experiment_FR_REAL,001,43,
images/fcloud80-20_D0.8_2.tif,0.8,2,,,,,0,60,60,73,,,,,,,,,,,,,,,,,,,1,space,1.87939509994,2,0.618,,,,,,,,,,,,,,,,,,2019_Apr_24_1607,60.18234044227288,Cloud_Experiment_FR_REAL,001,43,
images/fcloud80-20_D1.6_2.tif,1.6,2,,,,,0,61,61,97,,,,,,,,,,,,,,,,,,,1,space,6.52017149993,2,0.567,,,,,,,,,,,,,,,,,,2019_Apr_24_1607,60.18234044227288,Cloud_Experiment_FR_REAL,001,43,
images/fcloud_D1.6_1.tif,1.6,0,,,,,0,62,62,24,,,,,,,,,,,,,,,,,,,4,space,2.77748009993,2,0.885,,,,,,,,,,,,,,,,,,2019_Apr_24_1607,60.18234044227288,Cloud_Experiment_FR_REAL,001,43,
images/fcloud65-35_D1.4_3.tif,1.4,1,,,,,0,63,63,56,,,,,,,,,,,,,,,,,,,1,space,3.7140285999,2,0.635,,,,,,,,,,,,,,,,,,2019_Apr_24_1607,60.18234044227288,Cloud_Experiment_FR_REAL,001,43,
images/fcloud_D1.6_2.tif,1.6,0,,,,,0,64,64,25,,,,,,,,,,,,,,,,,,,1,space,4.67756099999,1,0.654,,,,,,,,,,,,,,,,,,2019_Apr_24_1607,60.18234044227288,Cloud_Experiment_FR_REAL,001,43,
images/fcloud80-20_D1.4_1.tif,1.4,2,,,,,0,65,65,90,,,,,,,,,,,,,,,,,,,1,space,4.60331899999,1,0.617,,,,,,,,,,,,,,,,,,2019_Apr_24_1607,60.18234044227288,Cloud_Experiment_FR_REAL,001,43,
images/fcloud80-20_D1.2_1.tif,1.2,2,,,,,0,66,66,84,,,,,,,,,,,,,,,,,,,1,space,6.69132069999,1,0.569,,,,,,,,,,,,,,,,,,2019_Apr_24_1607,60.18234044227288,Cloud_Experiment_FR_REAL,001,43,
images/fcloud65-35_D1.1_2.tif,1.1,1,,,,,0,67,67,46,,,,,,,,,,,,,,,,,,,None,None,,None,12.726,,,,,,,,,,,,,,,,,,2019_Apr_24_1607,60.18234044227288,Cloud_Experiment_FR_REAL,001,43,
images/fcloud_D1.2_1.tif,1.2,0,,,,,0,68,68,12,,,,,,,,,,,,,,,,,,,1,space,2.5329016,1,0.634,,,,,,,,,,,,,,,,,,2019_Apr_24_1607,60.18234044227288,Cloud_Experiment_FR_REAL,001,43,
images/fcloud_D1_2.tif,1.0,0,,,,,0,69,69,7,,,,,,,,,,,,,,,,,,,None,None,,None,10.991,,,,,,,,,,,,,,,,,,2019_Apr_24_1607,60.18234044227288,Cloud_Experiment_FR_REAL,001,43,
images/fcloud_D1.1_1.tif,1.1,0,,,,,0,70,70,9,,,,,,,,,,,,,,,,,,,1,space,7.28272020002,1,1.018,,,,,,,,,,,,,,,,,,2019_Apr_24_1607,60.18234044227288,Cloud_Experiment_FR_REAL,001,43,
images/fcloud80-20_D1.9_1.tif,1.9,2,,,,,0,71,71,105,,,,,,,,,,,,,,,,,,,None,None,,None,10.26,,,,,,,,,,,,,,,,,,2019_Apr_24_1607,60.18234044227288,Cloud_Experiment_FR_REAL,001,43,
images/fcloud_D1.3_3.tif,1.3,0,,,,,0,72,72,17,,,,,,,,,,,,,,,,,,,1,space,1.43682639999,4,1.7,,,,,,,,,,,,,,,,,,2019_Apr_24_1607,60.18234044227288,Cloud_Experiment_FR_REAL,001,43,
images/fcloud65-35_D1_1.tif,1.0,1,,,,,0,73,73,42,,,,,,,,,,,,,,,,,,,1,space,2.38530740002,2,0.786,,,,,,,,,,,,,,,,,,2019_Apr_24_1607,60.18234044227288,Cloud_Experiment_FR_REAL,001,43,
images/fcloud80-20_D1.1_3.tif,1.1,2,,,,,0,74,74,83,,,,,,,,,,,,,,,,,,,None,None,,None,10.924,,,,,,,,,,,,,,,,,,2019_Apr_24_1607,60.18234044227288,Cloud_Experiment_FR_REAL,001,43,
images/fcloud65-35_D1.1_1.tif,1.1,1,,,,,0,75,75,45,,,,,,,,,,,,,,,,,,,1,space,6.53679369995,2,0.634,,,,,,,,,,,,,,,,,,2019_Apr_24_1607,60.18234044227288,Cloud_Experiment_FR_REAL,001,43,
images/fcloud65-35_D0.8_3.tif,0.8,1,,,,,0,76,76,38,,,,,,,,,,,,,,,,,,,None,None,,None,12.206,,,,,,,,,,,,,,,,,,2019_Apr_24_1607,60.18234044227288,Cloud_Experiment_FR_REAL,001,43,
images/fcloud_D1_1.tif,1.0,0,,,,,0,77,77,6,,,,,,,,,,,,,,,,,,,1,space,7.0971262001,1,0.635,,,,,,,,,,,,,,,,,,2019_Apr_24_1607,60.18234044227288,Cloud_Experiment_FR_REAL,001,43,
images/fcloud80-20_D1.9_2.tif,1.9,2,,,,,0,78,78,106,,,,,,,,,,,,,,,,,,,1,space,2.91238719993,2,1.467,,,,,,,,,,,,,,,,,,2019_Apr_24_1607,60.18234044227288,Cloud_Experiment_FR_REAL,001,43,
images/fcloud65-35_D1.7_1.tif,1.7,1,,,,,0,79,79,63,,,,,,,,,,,,,,,,,,,None,None,,None,10.792,,,,,,,,,,,,,,,,,,2019_Apr_24_1607,60.18234044227288,Cloud_Experiment_FR_REAL,001,43,
images/fcloud80-20_D1.4_2.tif,1.4,2,,,,,0,80,80,91,,,,,,,,,,,,,,,,,,,2,space,2.65529120003,2,2.385,,,,,,,,,,,,,,,,,,2019_Apr_24_1607,60.18234044227288,Cloud_Experiment_FR_REAL,001,43,
images/fcloud80-20_D1.7_2.tif,1.7,2,,,,,0,81,81,100,,,,,,,,,,,,,,,,,,,2,space,3.47329949995,2,0.668,,,,,,,,,,,,,,,,,,2019_Apr_24_1607,60.18234044227288,Cloud_Experiment_FR_REAL,001,43,
images/fcloud65-35_D1.8_1.tif,1.8,1,,,,,0,82,82,66,,,,,,,,,,,,,,,,,,,1,space,4.36990190006,1,0.818,,,,,,,,,,,,,,,,,,2019_Apr_24_1607,60.18234044227288,Cloud_Experiment_FR_REAL,001,43,
images/fcloud80-20_D0.9_3.tif,0.9,2,,,,,0,83,83,77,,,,,,,,,,,,,,,,,,,1,space,4.43223109993,1,0.505,,,,,,,,,,,,,,,,,,2019_Apr_24_1607,60.18234044227288,Cloud_Experiment_FR_REAL,001,43,
images/fcloud80-20_D1.7_3.tif,1.7,2,,,,,0,84,84,101,,,,,,,,,,,,,,,,,,,1,space,1.53128200001,2,0.619,,,,,,,,,,,,,,,,,,2019_Apr_24_1607,60.18234044227288,Cloud_Experiment_FR_REAL,001,43,
images/fcloud65-35_D1.8_2.tif,1.8,1,,,,,0,85,85,67,,,,,,,,,,,,,,,,,,,2,space,1.81701690005,1,0.569,,,,,,,,,,,,,,,,,,2019_Apr_24_1607,60.18234044227288,Cloud_Experiment_FR_REAL,001,43,
images/fcloud_D1.7_2.tif,1.7,0,,,,,0,86,86,28,,,,,,,,,,,,,,,,,,,1,space,6.43774159998,1,0.634,,,,,,,,,,,,,,,,,,2019_Apr_24_1607,60.18234044227288,Cloud_Experiment_FR_REAL,001,43,
images/fcloud65-35_D1.2_2.tif,1.2,1,,,,,0,87,87,49,,,,,,,,,,,,,,,,,,,None,None,,None,9.692,,,,,,,,,,,,,,,,,,2019_Apr_24_1607,60.18234044227288,Cloud_Experiment_FR_REAL,001,43,
images/fcloud65-35_D1.8_3.tif,1.8,1,,,,,0,88,88,68,,,,,,,,,,,,,,,,,,,1,space,4.30220989999,1,1.017,,,,,,,,,,,,,,,,,,2019_Apr_24_1607,60.18234044227288,Cloud_Experiment_FR_REAL,001,43,
images/fcloud_D1.8_3.tif,1.8,0,,,,,0,89,89,32,,,,,,,,,,,,,,,,,,,1,space,3.9140008,2,0.902,,,,,,,,,,,,,,,,,,2019_Apr_24_1607,60.18234044227288,Cloud_Experiment_FR_REAL,001,43,
images/fcloud65-35_D1.7_2.tif,1.7,1,,,,,0,90,90,64,,,,,,,,,,,,,,,,,,,None,None,,None,10.174,,,,,,,,,,,,,,,,,,2019_Apr_24_1607,60.18234044227288,Cloud_Experiment_FR_REAL,001,43,
images/fcloud65-35_D1.9_3.tif,1.9,1,,,,,0,91,91,71,,,,,,,,,,,,,,,,,,,1,space,2.46475109993,1,0.586,,,,,,,,,,,,,,,,,,2019_Apr_24_1607,60.18234044227288,Cloud_Experiment_FR_REAL,001,43,
images/fcloud65-35_D1.6_1.tif,1.6,1,,,,,0,92,92,60,,,,,,,,,,,,,,,,,,,1,space,6.15700299991,1,0.502,,,,,,,,,,,,,,,,,,2019_Apr_24_1607,60.18234044227288,Cloud_Experiment_FR_REAL,001,43,
images/fcloud80-20_D1.6_3.tif,1.6,2,,,,,0,93,93,98,,,,,,,,,,,,,,,,,,,1,space,6.38871560001,1,0.485,,,,,,,,,,,,,,,,,,2019_Apr_24_1607,60.18234044227288,Cloud_Experiment_FR_REAL,001,43,
images/fcloud_D1.3_2.tif,1.3,0,,,,,0,94,94,16,,,,,,,,,,,,,,,,,,,2,space,2.83590219996,1,0.701,,,,,,,,,,,,,,,,,,2019_Apr_24_1607,60.18234044227288,Cloud_Experiment_FR_REAL,001,43,
images/fcloud_D0.8_2.tif,0.8,0,,,,,0,95,95,1,,,,,,,,,,,,,,,,,,,None,None,,None,14.237,,,,,,,,,,,,,,,,,,2019_Apr_24_1607,60.18234044227288,Cloud_Experiment_FR_REAL,001,43,
images/fcloud80-20_D1_2.tif,1.0,2,,,,,0,96,96,79,,,,,,,,,,,,,,,,,,,None,None,,None,23.445,,,,,,,,,,,,,,,,,,2019_Apr_24_1607,60.18234044227288,Cloud_Experiment_FR_REAL,001,43,
images/fcloud80-20_D0.8_3.tif,0.8,2,,,,,0,97,97,74,,,,,,,,,,,,,,,,,,,None,None,,None,33.053,,,,,,,,,,,,,,,,,,2019_Apr_24_1607,60.18234044227288,Cloud_Experiment_FR_REAL,001,43,
images/fcloud_D1.6_3.tif,1.6,0,,,,,0,98,98,26,,,,,,,,,,,,,,,,,,,1,space,3.01443610003,1,0.918,,,,,,,,,,,,,,,,,,2019_Apr_24_1607,60.18234044227288,Cloud_Experiment_FR_REAL,001,43,
images/fcloud80-20_D1.2_2.tif,1.2,2,,,,,0,99,99,85,,,,,,,,,,,,,,,,,,,1,space,4.81585829996,1,0.484,,,,,,,,,,,,,,,,,,2019_Apr_24_1607,60.18234044227288,Cloud_Experiment_FR_REAL,001,43,
images/fcloud65-35_D0.9_3.tif,0.9,1,,,,,0,100,100,41,,,,,,,,,,,,,,,,,,,None,None,,None,11.524,,,,,,,,,,,,,,,,,,2019_Apr_24_1607,60.18234044227288,Cloud_Experiment_FR_REAL,001,43,
images/fcloud65-35_D1.3_1.tif,1.3,1,,,,,0,101,101,51,,,,,,,,,,,,,,,,,,,1,space,2.21209330007,1,0.485,,,,,,,,,,,,,,,,,,2019_Apr_24_1607,60.18234044227288,Cloud_Experiment_FR_REAL,001,43,
images/fcloud65-35_D1.3_3.tif,1.3,1,,,,,0,102,102,53,,,,,,,,,,,,,,,,,,,2,space,2.40925859998,1,0.518,,,,,,,,,,,,,,,,,,2019_Apr_24_1607,60.18234044227288,Cloud_Experiment_FR_REAL,001,43,
images/fcloud80-20_D0.9_1.tif,0.9,2,,,,,0,103,103,75,,,,,,,,,,,,,,,,,,,2,space,2.03645550006,1,5.314,,,,,,,,,,,,,,,,,,2019_Apr_24_1607,60.18234044227288,Cloud_Experiment_FR_REAL,001,43,
images/fcloud65-35_D1_3.tif,1.0,1,,,,,0,104,104,44,,,,,,,,,,,,,,,,,,,None,None,,None,14.756,,,,,,,,,,,,,,,,,,2019_Apr_24_1607,60.18234044227288,Cloud_Experiment_FR_REAL,001,43,
images/fcloud65-35_D1.5_3.tif,1.5,1,,,,,0,105,105,59,,,,,,,,,,,,,,,,,,,None,None,,None,23.98,,,,,,,,,,,,,,,,,,2019_Apr_24_1607,60.18234044227288,Cloud_Experiment_FR_REAL,001,43,
images/fcloud_D1.4_1.tif,1.4,0,,,,,0,106,106,18,,,,,,,,,,,,,,,,,,,2,space,1.87656549993,3,0.719,,,,,,,,,,,,,,,,,,2019_Apr_24_1607,60.18234044227288,Cloud_Experiment_FR_REAL,001,43,
images/fcloud_D1.8_1.tif,1.8,0,,,,,0,107,107,30,,,,,,,,,,,,,,,,,,,2,None,,1,0.685,,,,,,,,,,,,,,,,,,2019_Apr_24_1607,60.18234044227288,Cloud_Experiment_FR_REAL,001,43,
,,,,,,,,,,,,,,,,,,,,,,,,,,,,,,,,,,,,,,,,,,,,,,space,4.7305852999,,,,2019_Apr_24_1607,60.18234044227288,Cloud_Experiment_FR_REAL,001,43,
,,,,,,,,,,,,,,,,,,,,,,,,,4,15.629,,,,,,,,,,,,,,,,,,,,,,,,,2019_Apr_24_1607,60.18234044227288,Cloud_Experiment_FR_REAL,001,43,
,,,,,,,,,,,,,,,,,,,,,,,,,,,,,,,,,,4,,,,,,,,,,,,,,,,,2019_Apr_24_1607,60.18234044227288,Cloud_Experiment_FR_REAL,001,43,
,,,,,,,,,,,,,,,,,,,,,,,,,,,,,,,,,,,5,,,,,,,,,,,,,,,,2019_Apr_24_1607,60.18234044227288,Cloud_Experiment_FR_REAL,001,43,
,,,,,,,,,,,,,,,,,,,,,,,,,,,,,,,,,,,,2,,,,,,,,,,,,,,,2019_Apr_24_1607,60.18234044227288,Cloud_Experiment_FR_REAL,001,43,
,,,,,,,,,,,,,,,,,,,,,,,,,,,,,,,,,,,,,2,,,,,,,,,,,,,,2019_Apr_24_1607,60.18234044227288,Cloud_Experiment_FR_REAL,001,43,
,,,,,,,,,,,,,,,,,,,,,,,,,,,,,,,,,,,,,,3,,,,,,,,,,,,,2019_Apr_24_1607,60.18234044227288,Cloud_Experiment_FR_REAL,001,43,
,,,,,,,,,,,,,,,,,,,,,,,,,,,,,,,,,,,,,,,3,,,,,,,,,,,,2019_Apr_24_1607,60.18234044227288,Cloud_Experiment_FR_REAL,001,43,
,,,,,,,,,,,,,,,,,,,,,,,,,,,,,,,,,,,,,,,,4,,,,,,,,,,,2019_Apr_24_1607,60.18234044227288,Cloud_Experiment_FR_REAL,001,43,
,,,,,,,,,,,,,,,,,,,,,,,,,,,,,,,,,,,,,,,,,6,,,,,,,,,,2019_Apr_24_1607,60.18234044227288,Cloud_Experiment_FR_REAL,001,43,
,,,,,,,,,,,,,,,,,,,,,,,,,,,,,,,,,,,,,,,,,,4,,,,,,,,,2019_Apr_24_1607,60.18234044227288,Cloud_Experiment_FR_REAL,001,43,
,,,,,,,,,,,,,,,,,,,,,,,,,,,,,,,,,,,,,,,,,,,1,,,,,,,,2019_Apr_24_1607,60.18234044227288,Cloud_Experiment_FR_REAL,001,43,
,,,,,,,,,,,,,,,,,,,,,,,,,,,,,,,,,,,,,,,,,,,,,,,,space,69.0896669,,2019_Apr_24_1607,60.18234044227288,Cloud_Experiment_FR_REAL,001,43,
images/fcloud_D0.9_4.tif,0.9,0,,,,,,,,,0,0,0,3,,,,,,,,,,,,,,,1,space,2.12445190002,1,1.417,,,,,,,,,,,,,,,,,,2019_Apr_24_1607,60.18234044227288,Cloud_Experiment_FR_REAL,001,43,
images/fcloud_D1.1_5.tif,1.1,0,,,,,,,,,0,1,1,10,,,,,,,,,,,,,,,1,space,4.06346239999,2,1.168,,,,,,,,,,,,,,,,,,2019_Apr_24_1607,60.18234044227288,Cloud_Experiment_FR_REAL,001,43,
images/fcloud80-20_D0.8_6.tif,0.8,2,,,,,,,,,0,2,2,74,,,,,,,,,,,,,,,None,None,,None,13.889,,,,,,,,,,,,,,,,,,2019_Apr_24_1607,60.18234044227288,Cloud_Experiment_FR_REAL,001,43,
images/fcloud_D1.2_5.tif,1.2,0,,,,,,,,,0,3,3,13,,,,,,,,,,,,,,,None,None,,None,23.081,,,,,,,,,,,,,,,,,,2019_Apr_24_1607,60.18234044227288,Cloud_Experiment_FR_REAL,001,43,
images/fcloud65-35_D1.1_5.tif,1.1,1,,,,,,,,,0,4,4,46,,,,,,,,,,,,,,,None,None,,None,32.773,,,,,,,,,,,,,,,,,,2019_Apr_24_1607,60.18234044227288,Cloud_Experiment_FR_REAL,001,43,
images/fcloud65-35_D1.7_4.tif,1.7,1,,,,,,,,,0,5,5,63,,,,,,,,,,,,,,,2,space,4.63762339996,1,0.536,,,,,,,,,,,,,,,,,,2019_Apr_24_1607,60.18234044227288,Cloud_Experiment_FR_REAL,001,43,
images/fcloud_D1.4_5.tif,1.4,0,,,,,,,,,0,6,6,19,,,,,,,,,,,,,,,None,None,,None,10.076,,,,,,,,,,,,,,,,,,2019_Apr_24_1607,60.18234044227288,Cloud_Experiment_FR_REAL,001,43,
images/fcloud_D1.1_6.tif,1.1,0,,,,,,,,,0,7,7,11,,,,,,,,,,,,,,,2,space,1.81120849994,1,0.75,,,,,,,,,,,,,,,,,,2019_Apr_24_1607,60.18234044227288,Cloud_Experiment_FR_REAL,001,43,
images/fcloud_D1.5_5.tif,1.5,0,,,,,,,,,0,8,8,22,,,,,,,,,,,,,,,2,space,2.09111080004,2,0.651,,,,,,,,,,,,,,,,,,2019_Apr_24_1607,60.18234044227288,Cloud_Experiment_FR_REAL,001,43,
images/fcloud80-20_D0.9_5.tif,0.9,2,,,,,,,,,0,9,9,76,,,,,,,,,,,,,,,None,None,,None,9.908,,,,,,,,,,,,,,,,,,2019_Apr_24_1607,60.18234044227288,Cloud_Experiment_FR_REAL,001,43,
images/fcloud_D0.9_6.tif,0.9,0,,,,,,,,,0,10,10,5,,,,,,,,,,,,,,,None,None,,None,19.065,,,,,,,,,,,,,,,,,,2019_Apr_24_1607,60.18234044227288,Cloud_Experiment_FR_REAL,001,43,
images/fcloud80-20_D1_4.tif,1.0,2,,,,,,,,,0,11,11,78,,,,,,,,,,,,,,,None,None,,None,28.84,,,,,,,,,,,,,,,,,,2019_Apr_24_1607,60.18234044227288,Cloud_Experiment_FR_REAL,001,43,
images/fcloud80-20_D1.6_4.tif,1.6,2,,,,,,,,,0,12,12,96,,,,,,,,,,,,,,,None,None,,None,37.533,,,,,,,,,,,,,,,,,,2019_Apr_24_1607,60.18234044227288,Cloud_Experiment_FR_REAL,001,43,
images/fcloud65-35_D1.2_4.tif,1.2,1,,,,,,,,,0,13,13,48,,,,,,,,,,,,,,,2,space,3.2741404,1,0.652,,,,,,,,,,,,,,,,,,2019_Apr_24_1607,60.18234044227288,Cloud_Experiment_FR_REAL,001,43,
images/fcloud80-20_D1.6_6.tif,1.6,2,,,,,,,,,0,14,14,98,,,,,,,,,,,,,,,2,space,4.06274109997,2,1.734,,,,,,,,,,,,,,,,,,2019_Apr_24_1607,60.18234044227288,Cloud_Experiment_FR_REAL,001,43,
images/fcloud_D1.8_6.tif,1.8,0,,,,,,,,,0,15,15,32,,,,,,,,,,,,,,,2,space,1.93764580006,1,0.8,,,,,,,,,,,,,,,,,,2019_Apr_24_1607,60.18234044227288,Cloud_Experiment_FR_REAL,001,43,
images/fcloud80-20_D1.2_6.tif,1.2,2,,,,,,,,,0,16,16,86,,,,,,,,,,,,,,,2,space,2.90804419992,1,0.503,,,,,,,,,,,,,,,,,,2019_Apr_24_1607,60.18234044227288,Cloud_Experiment_FR_REAL,001,43,
images/fcloud65-35_D1.5_6.tif,1.5,1,,,,,,,,,0,17,17,59,,,,,,,,,,,,,,,1,None,,1,0.585,,,,,,,,,,,,,,,,,,2019_Apr_24_1607,60.18234044227288,Cloud_Experiment_FR_REAL,001,43,
images/fcloud65-35_D1.6_4.tif,1.6,1,,,,,,,,,0,18,18,60,,,,,,,,,,,,,,,3,space,2.06077390001,2,0.685,,,,,,,,,,,,,,,,,,2019_Apr_24_1607,60.18234044227288,Cloud_Experiment_FR_REAL,001,43,
images/fcloud80-20_D1.7_6.tif,1.7,2,,,,,,,,,0,19,19,101,,,,,,,,,,,,,,,2,space,1.53336230002,2,3.032,,,,,,,,,,,,,,,,,,2019_Apr_24_1607,60.18234044227288,Cloud_Experiment_FR_REAL,001,43,
images/fcloud80-20_D1_5.tif,1.0,2,,,,,,,,,0,20,20,79,,,,,,,,,,,,,,,None,None,,None,12.772,,,,,,,,,,,,,,,,,,2019_Apr_24_1607,60.18234044227288,Cloud_Experiment_FR_REAL,001,43,
images/fcloud65-35_D1.9_4.tif,1.9,1,,,,,,,,,0,21,21,69,,,,,,,,,,,,,,,2,space,2.06311579992,2,0.601,,,,,,,,,,,,,,,,,,2019_Apr_24_1607,60.18234044227288,Cloud_Experiment_FR_REAL,001,43,
images/fcloud_D1.5_6.tif,1.5,0,,,,,,,,,0,22,22,23,,,,,,,,,,,,,,,2,space,5.91289589996,1,0.585,,,,,,,,,,,,,,,,,,2019_Apr_24_1607,60.18234044227288,Cloud_Experiment_FR_REAL,001,43,
images/fcloud_D1.9_6.tif,1.9,0,,,,,,,,,0,23,23,35,,,,,,,,,,,,,,,1,space,2.90621679998,1,0.585,,,,,,,,,,,,,,,,,,2019_Apr_24_1607,60.18234044227288,Cloud_Experiment_FR_REAL,001,43,
images/fcloud65-35_D0.9_5.tif,0.9,1,,,,,,,,,0,24,24,40,,,,,,,,,,,,,,,None,None,,None,10.709,,,,,,,,,,,,,,,,,,2019_Apr_24_1607,60.18234044227288,Cloud_Experiment_FR_REAL,001,43,
images/fcloud80-20_D1.4_5.tif,1.4,2,,,,,,,,,0,25,25,91,,,,,,,,,,,,,,,None,None,,None,19.934,,,,,,,,,,,,,,,,,,2019_Apr_24_1607,60.18234044227288,Cloud_Experiment_FR_REAL,001,43,
images/fcloud65-35_D1.1_6.tif,1.1,1,,,,,,,,,0,26,26,47,,,,,,,,,,,,,,,1,space,3.32193970005,1,0.984,,,,,,,,,,,,,,,,,,2019_Apr_24_1607,60.18234044227288,Cloud_Experiment_FR_REAL,001,43,
images/fcloud65-35_D1.4_6.tif,1.4,1,,,,,,,,,0,27,27,56,,,,,,,,,,,,,,,2,space,2.10101700004,1,0.635,,,,,,,,,,,,,,,,,,2019_Apr_24_1607,60.18234044227288,Cloud_Experiment_FR_REAL,001,43,
images/fcloud_D1.8_4.tif,1.8,0,,,,,,,,,0,28,28,30,,,,,,,,,,,,,,,2,space,2.00376580004,2,0.601,,,,,,,,,,,,,,,,,,2019_Apr_24_1607,60.18234044227288,Cloud_Experiment_FR_REAL,001,43,
images/fcloud65-35_D1.3_4.tif,1.3,1,,,,,,,,,0,29,29,51,,,,,,,,,,,,,,,None,None,,None,10.044,,,,,,,,,,,,,,,,,,2019_Apr_24_1607,60.18234044227288,Cloud_Experiment_FR_REAL,001,43,
images/fcloud80-20_D1.3_6.tif,1.3,2,,,,,,,,,0,30,30,89,,,,,,,,,,,,,,,1,space,7.54478899995,2,1.416,,,,,,,,,,,,,,,,,,2019_Apr_24_1607,60.18234044227288,Cloud_Experiment_FR_REAL,001,43,
images/fcloud65-35_D1.2_5.tif,1.2,1,,,,,,,,,0,31,31,49,,,,,,,,,,,,,,,2,space,1.56267699995,2,0.552,,,,,,,,,,,,,,,,,,2019_Apr_24_1607,60.18234044227288,Cloud_Experiment_FR_REAL,001,43,
images/fcloud80-20_D1.3_4.tif,1.3,2,,,,,,,,,0,32,32,87,,,,,,,,,,,,,,,2,space,1.57979450002,1,0.617,,,,,,,,,,,,,,,,,,2019_Apr_24_1607,60.18234044227288,Cloud_Experiment_FR_REAL,001,43,
images/fcloud80-20_D1.7_4.tif,1.7,2,,,,,,,,,0,33,33,99,,,,,,,,,,,,,,,2,space,3.80843390001,1,0.602,,,,,,,,,,,,,,,,,,2019_Apr_24_1607,60.18234044227288,Cloud_Experiment_FR_REAL,001,43,
images/fcloud80-20_D1.1_6.tif,1.1,2,,,,,,,,,0,34,34,83,,,,,,,,,,,,,,,2,space,3.99170259992,1,0.551,,,,,,,,,,,,,,,,,,2019_Apr_24_1607,60.18234044227288,Cloud_Experiment_FR_REAL,001,43,
images/fcloud_D1.3_4.tif,1.3,0,,,,,,,,,0,35,35,15,,,,,,,,,,,,,,,3,space,3.13410309993,2,0.719,,,,,,,,,,,,,,,,,,2019_Apr_24_1607,60.18234044227288,Cloud_Experiment_FR_REAL,001,43,
images/fcloud_D1_4.tif,1.0,0,,,,,,,,,0,36,36,6,,,,,,,,,,,,,,,1,space,2.67555889999,2,0.552,,,,,,,,,,,,,,,,,,2019_Apr_24_1607,60.18234044227288,Cloud_Experiment_FR_REAL,001,43,
images/fcloud80-20_D1.3_5.tif,1.3,2,,,,,,,,,0,37,37,88,,,,,,,,,,,,,,,None,None,,None,11.224,,,,,,,,,,,,,,,,,,2019_Apr_24_1607,60.18234044227288,Cloud_Experiment_FR_REAL,001,43,
images/fcloud_D1.2_4.tif,1.2,0,,,,,,,,,0,38,38,12,,,,,,,,,,,,,,,1,space,6.68838810001,1,0.568,,,,,,,,,,,,,,,,,,2019_Apr_24_1607,60.18234044227288,Cloud_Experiment_FR_REAL,001,43,
images/fcloud_D1.7_5.tif,1.7,0,,,,,,,,,0,39,39,28,,,,,,,,,,,,,,,1,space,4.1760201999,2,1.084,,,,,,,,,,,,,,,,,,2019_Apr_24_1607,60.18234044227288,Cloud_Experiment_FR_REAL,001,43,
images/fcloud80-20_D1.4_6.tif,1.4,2,,,,,,,,,0,40,40,92,,,,,,,,,,,,,,,2,space,5.91137009999,1,0.469,,,,,,,,,,,,,,,,,,2019_Apr_24_1607,60.18234044227288,Cloud_Experiment_FR_REAL,001,43,
images/fcloud_D1.5_4.tif,1.5,0,,,,,,,,,0,41,41,21,,,,,,,,,,,,,,,2,space,1.97620759998,1,0.836,,,,,,,,,,,,,,,,,,2019_Apr_24_1607,60.18234044227288,Cloud_Experiment_FR_REAL,001,43,
images/fcloud65-35_D1.8_4.tif,1.8,1,,,,,,,,,0,42,42,66,,,,,,,,,,,,,,,None,None,,None,12.939,,,,,,,,,,,,,,,,,,2019_Apr_24_1607,60.18234044227288,Cloud_Experiment_FR_REAL,001,43,
images/fcloud_D1.6_6.tif,1.6,0,,,,,,,,,0,43,43,26,,,,,,,,,,,,,,,2,space,4.4984084001,1,0.585,,,,,,,,,,,,,,,,,,2019_Apr_24_1607,60.18234044227288,Cloud_Experiment_FR_REAL,001,43,
images/fcloud65-35_D0.8_6.tif,0.8,1,,,,,,,,,0,44,44,38,,,,,,,,,,,,,,,None,None,,None,10.109,,,,,,,,,,,,,,,,,,2019_Apr_24_1607,60.18234044227288,Cloud_Experiment_FR_REAL,001,43,
images/fcloud80-20_D1.8_4.tif,1.8,2,,,,,,,,,0,45,45,102,,,,,,,,,,,,,,,None,None,,None,19.384,,,,,,,,,,,,,,,,,,2019_Apr_24_1607,60.18234044227288,Cloud_Experiment_FR_REAL,001,43,
images/fcloud_D1.7_6.tif,1.7,0,,,,,,,,,0,46,46,29,,,,,,,,,,,,,,,2,None,,1,1.183,,,,,,,,,,,,,,,,,,2019_Apr_24_1607,60.18234044227288,Cloud_Experiment_FR_REAL,001,43,
images/fcloud_D1.4_6.tif,1.4,0,,,,,,,,,0,47,47,20,,,,,,,,,,,,,,,3,space,1.66021370003,2,0.617,,,,,,,,,,,,,,,,,,2019_Apr_24_1607,60.18234044227288,Cloud_Experiment_FR_REAL,001,43,
images/fcloud_D1.6_4.tif,1.6,0,,,,,,,,,0,48,48,24,,,,,,,,,,,,,,,3,space,1.81062450004,2,0.601,,,,,,,,,,,,,,,,,,2019_Apr_24_1607,60.18234044227288,Cloud_Experiment_FR_REAL,001,43,
images/fcloud_D1.6_5.tif,1.6,0,,,,,,,,,0,49,49,25,,,,,,,,,,,,,,,3,space,1.63263310003,2,0.67,,,,,,,,,,,,,,,,,,2019_Apr_24_1607,60.18234044227288,Cloud_Experiment_FR_REAL,001,43,
images/fcloud80-20_D1.8_5.tif,1.8,2,,,,,,,,,0,50,50,103,,,,,,,,,,,,,,,1,space,3.07779869996,1,0.501,,,,,,,,,,,,,,,,,,2019_Apr_24_1607,60.18234044227288,Cloud_Experiment_FR_REAL,001,43,
images/fcloud_D1_5.tif,1.0,0,,,,,,,,,0,51,51,7,,,,,,,,,,,,,,,2,space,4.99275619991,1,0.668,,,,,,,,,,,,,,,,,,2019_Apr_24_1607,60.18234044227288,Cloud_Experiment_FR_REAL,001,43,
images/fcloud80-20_D1.4_4.tif,1.4,2,,,,,,,,,0,52,52,90,,,,,,,,,,,,,,,None,None,,None,10.324,,,,,,,,,,,,,,,,,,2019_Apr_24_1607,60.18234044227288,Cloud_Experiment_FR_REAL,001,43,
images/fcloud65-35_D1.4_5.tif,1.4,1,,,,,,,,,0,53,53,55,,,,,,,,,,,,,,,1,space,3.99729760003,1,0.769,,,,,,,,,,,,,,,,,,2019_Apr_24_1607,60.18234044227288,Cloud_Experiment_FR_REAL,001,43,
images/fcloud80-20_D1.8_6.tif,1.8,2,,,,,,,,,0,54,54,104,,,,,,,,,,,,,,,1,None,,1,0.502,,,,,,,,,,,,,,,,,,2019_Apr_24_1607,60.18234044227288,Cloud_Experiment_FR_REAL,001,43,
images/fcloud_D0.8_6.tif,0.8,0,,,,,,,,,0,55,55,2,,,,,,,,,,,,,,,1,None,,1,0.618,,,,,,,,,,,,,,,,,,2019_Apr_24_1607,60.18234044227288,Cloud_Experiment_FR_REAL,001,43,
images/fcloud65-35_D1.2_6.tif,1.2,1,,,,,,,,,0,56,56,50,,,,,,,,,,,,,,,1,space,6.15759660001,1,0.634,,,,,,,,,,,,,,,,,,2019_Apr_24_1607,60.18234044227288,Cloud_Experiment_FR_REAL,001,43,
images/fcloud_D0.9_5.tif,0.9,0,,,,,,,,,0,57,57,4,,,,,,,,,,,,,,,None,None,,None,10.01,,,,,,,,,,,,,,,,,,2019_Apr_24_1607,60.18234044227288,Cloud_Experiment_FR_REAL,001,43,
images/fcloud80-20_D1.2_5.tif,1.2,2,,,,,,,,,0,58,58,85,,,,,,,,,,,,,,,1,space,4.72997859993,1,0.586,,,,,,,,,,,,,,,,,,2019_Apr_24_1607,60.18234044227288,Cloud_Experiment_FR_REAL,001,43,
images/fcloud65-35_D1_4.tif,1.0,1,,,,,,,,,0,59,59,42,,,,,,,,,,,,,,,None,None,,None,11.757,,,,,,,,,,,,,,,,,,2019_Apr_24_1607,60.18234044227288,Cloud_Experiment_FR_REAL,001,43,
images/fcloud65-35_D1.3_5.tif,1.3,1,,,,,,,,,0,60,60,52,,,,,,,,,,,,,,,2,space,5.24158059992,1,0.617,,,,,,,,,,,,,,,,,,2019_Apr_24_1607,60.18234044227288,Cloud_Experiment_FR_REAL,001,43,
images/fcloud_D1.9_5.tif,1.9,0,,,,,,,,,0,61,61,34,,,,,,,,,,,,,,,None,None,,None,13.372,,,,,,,,,,,,,,,,,,2019_Apr_24_1607,60.18234044227288,Cloud_Experiment_FR_REAL,001,43,
images/fcloud65-35_D1.6_5.tif,1.6,1,,,,,,,,,0,62,62,61,,,,,,,,,,,,,,,None,None,,None,33.438,,,,,,,,,,,,,,,,,,2019_Apr_24_1607,60.18234044227288,Cloud_Experiment_FR_REAL,001,43,
images/fcloud65-35_D1.6_6.tif,1.6,1,,,,,,,,,0,63,63,62,,,,,,,,,,,,,,,1,space,7.45447899995,1,0.453,,,,,,,,,,,,,,,,,,2019_Apr_24_1607,60.18234044227288,Cloud_Experiment_FR_REAL,001,43,
images/fcloud_D0.8_4.tif,0.8,0,,,,,,,,,0,64,64,0,,,,,,,,,,,,,,,None,None,,None,10.042,,,,,,,,,,,,,,,,,,2019_Apr_24_1607,60.18234044227288,Cloud_Experiment_FR_REAL,001,43,
images/fcloud80-20_D1.5_5.tif,1.5,2,,,,,,,,,0,65,65,94,,,,,,,,,,,,,,,None,space,3.62534400006,None,19.567,,,,,,,,,,,,,,,,,,2019_Apr_24_1607,60.18234044227288,Cloud_Experiment_FR_REAL,001,43,
images/fcloud65-35_D1.7_5.tif,1.7,1,,,,,,,,,0,66,66,64,,,,,,,,,,,,,,,2,space,4.92865290004,1,0.586,,,,,,,,,,,,,,,,,,2019_Apr_24_1607,60.18234044227288,Cloud_Experiment_FR_REAL,001,43,
images/fcloud65-35_D1.7_6.tif,1.7,1,,,,,,,,,0,67,67,65,,,,,,,,,,,,,,,3,space,4.42578530009,1,0.602,,,,,,,,,,,,,,,,,,2019_Apr_24_1607,60.18234044227288,Cloud_Experiment_FR_REAL,001,43,
images/fcloud80-20_D0.9_4.tif,0.9,2,,,,,,,,,0,68,68,75,,,,,,,,,,,,,,,1,space,3.74153310002,1,0.52,,,,,,,,,,,,,,,,,,2019_Apr_24_1607,60.18234044227288,Cloud_Experiment_FR_REAL,001,43,
images/fcloud65-35_D0.8_5.tif,0.8,1,,,,,,,,,0,69,69,37,,,,,,,,,,,,,,,1,space,3.88725889998,1,0.535,,,,,,,,,,,,,,,,,,2019_Apr_24_1607,60.18234044227288,Cloud_Experiment_FR_REAL,001,43,
images/fcloud65-35_D1.9_5.tif,1.9,1,,,,,,,,,0,70,70,70,,,,,,,,,,,,,,,None,None,,None,10.209,,,,,,,,,,,,,,,,,,2019_Apr_24_1607,60.18234044227288,Cloud_Experiment_FR_REAL,001,43,
images/fcloud80-20_D1.5_6.tif,1.5,2,,,,,,,,,0,71,71,95,,,,,,,,,,,,,,,None,None,,None,19.567,,,,,,,,,,,,,,,,,,2019_Apr_24_1607,60.18234044227288,Cloud_Experiment_FR_REAL,001,43,
images/fcloud_D1.8_5.tif,1.8,0,,,,,,,,,0,72,72,31,,,,,,,,,,,,,,,1,space,1.90251269995,2,0.684,,,,,,,,,,,,,,,,,,2019_Apr_24_1607,60.18234044227288,Cloud_Experiment_FR_REAL,001,43,
images/fcloud65-35_D1_5.tif,1.0,1,,,,,,,,,0,73,73,43,,,,,,,,,,,,,,,1,space,1.9882895,2,0.653,,,,,,,,,,,,,,,,,,2019_Apr_24_1607,60.18234044227288,Cloud_Experiment_FR_REAL,001,43,
images/fcloud_D1.3_6.tif,1.3,0,,,,,,,,,0,74,74,17,,,,,,,,,,,,,,,3,space,1.68681849993,3,1.036,,,,,,,,,,,,,,,,,,2019_Apr_24_1607,60.18234044227288,Cloud_Experiment_FR_REAL,001,43,
images/fcloud_D1.2_6.tif,1.2,0,,,,,,,,,0,75,75,14,,,,,,,,,,,,,,,3,space,4.48728910007,1,0.703,,,,,,,,,,,,,,,,,,2019_Apr_24_1607,60.18234044227288,Cloud_Experiment_FR_REAL,001,43,
images/fcloud65-35_D1_6.tif,1.0,1,,,,,,,,,0,76,76,44,,,,,,,,,,,,,,,None,None,,None,10.21,,,,,,,,,,,,,,,,,,2019_Apr_24_1607,60.18234044227288,Cloud_Experiment_FR_REAL,001,43,
images/fcloud65-35_D1.1_4.tif,1.1,1,,,,,,,,,0,77,77,45,,,,,,,,,,,,,,,2,space,1.76055020001,1,0.634,,,,,,,,,,,,,,,,,,2019_Apr_24_1607,60.18234044227288,Cloud_Experiment_FR_REAL,001,43,
images/fcloud65-35_D1.8_5.tif,1.8,1,,,,,,,,,0,78,78,67,,,,,,,,,,,,,,,None,None,,None,10.259,,,,,,,,,,,,,,,,,,2019_Apr_24_1607,60.18234044227288,Cloud_Experiment_FR_REAL,001,43,
images/fcloud65-35_D0.9_4.tif,0.9,1,,,,,,,,,0,79,79,39,,,,,,,,,,,,,,,None,None,,None,20.416,,,,,,,,,,,,,,,,,,2019_Apr_24_1607,60.18234044227288,Cloud_Experiment_FR_REAL,001,43,
images/fcloud80-20_D1.6_5.tif,1.6,2,,,,,,,,,0,80,80,97,,,,,,,,,,,,,,,1,space,2.01261540002,2,0.702,,,,,,,,,,,,,,,,,,2019_Apr_24_1607,60.18234044227288,Cloud_Experiment_FR_REAL,001,43,
images/fcloud80-20_D0.8_5.tif,0.8,2,,,,,,,,,0,81,81,73,,,,,,,,,,,,,,,None,None,,None,9.643,,,,,,,,,,,,,,,,,,2019_Apr_24_1607,60.18234044227288,Cloud_Experiment_FR_REAL,001,43,
images/fcloud65-35_D0.8_4.tif,0.8,1,,,,,,,,,0,82,82,36,,,,,,,,,,,,,,,2,space,3.12634710001,1,0.718,,,,,,,,,,,,,,,,,,2019_Apr_24_1607,60.18234044227288,Cloud_Experiment_FR_REAL,001,43,
images/fcloud80-20_D1.9_4.tif,1.9,2,,,,,,,,,0,83,83,105,,,,,,,,,,,,,,,None,None,,None,9.958,,,,,,,,,,,,,,,,,,2019_Apr_24_1607,60.18234044227288,Cloud_Experiment_FR_REAL,001,43,
images/fcloud_D1.1_4.tif,1.1,0,,,,,,,,,0,84,84,9,,,,,,,,,,,,,,,3,space,2.70308909996,2,0.734,,,,,,,,,,,,,,,,,,2019_Apr_24_1607,60.18234044227288,Cloud_Experiment_FR_REAL,001,43,
images/fcloud65-35_D1.8_6.tif,1.8,1,,,,,,,,,0,85,85,68,,,,,,,,,,,,,,,3,space,3.1732669,1,0.702,,,,,,,,,,,,,,,,,,2019_Apr_24_1607,60.18234044227288,Cloud_Experiment_FR_REAL,001,43,
images/fcloud65-35_D1.5_5.tif,1.5,1,,,,,,,,,0,86,86,58,,,,,,,,,,,,,,,2,space,3.62637729989,1,0.7,,,,,,,,,,,,,,,,,,2019_Apr_24_1607,60.18234044227288,Cloud_Experiment_FR_REAL,001,43,
images/fcloud80-20_D1.9_6.tif,1.9,2,,,,,,,,,0,87,87,107,,,,,,,,,,,,,,,None,None,,None,10.341,,,,,,,,,,,,,,,,,,2019_Apr_24_1607,60.18234044227288,Cloud_Experiment_FR_REAL,001,43,
images/fcloud80-20_D1_6.tif,1.0,2,,,,,,,,,0,88,88,80,,,,,,,,,,,,,,,1,space,1.83110730001,2,0.701,,,,,,,,,,,,,,,,,,2019_Apr_24_1607,60.18234044227288,Cloud_Experiment_FR_REAL,001,43,
images/fcloud_D1.7_4.tif,1.7,0,,,,,,,,,0,89,89,27,,,,,,,,,,,,,,,3,space,2.47481349995,2,3.082,,,,,,,,,,,,,,,,,,2019_Apr_24_1607,60.18234044227288,Cloud_Experiment_FR_REAL,001,43,
images/fcloud65-35_D1.9_6.tif,1.9,1,,,,,,,,,0,90,90,71,,,,,,,,,,,,,,,None,None,,None,13.174,,,,,,,,,,,,,,,,,,2019_Apr_24_1607,60.18234044227288,Cloud_Experiment_FR_REAL,001,43,
images/fcloud80-20_D1.9_5.tif,1.9,2,,,,,,,,,0,91,91,106,,,,,,,,,,,,,,,None,None,,None,32.039,,,,,,,,,,,,,,,,,,2019_Apr_24_1607,60.18234044227288,Cloud_Experiment_FR_REAL,001,43,
images/fcloud80-20_D1.1_4.tif,1.1,2,,,,,,,,,0,92,92,81,,,,,,,,,,,,,,,2,space,2.54043419997,1,0.635,,,,,,,,,,,,,,,,,,2019_Apr_24_1607,60.18234044227288,Cloud_Experiment_FR_REAL,001,43,
images/fcloud80-20_D0.8_4.tif,0.8,2,,,,,,,,,0,93,93,72,,,,,,,,,,,,,,,1,space,6.26117790001,1,0.601,,,,,,,,,,,,,,,,,,2019_Apr_24_1607,60.18234044227288,Cloud_Experiment_FR_REAL,001,43,
images/fcloud65-35_D0.9_6.tif,0.9,1,,,,,,,,,0,94,94,41,,,,,,,,,,,,,,,1,space,4.38933439995,1,0.551,,,,,,,,,,,,,,,,,,2019_Apr_24_1607,60.18234044227288,Cloud_Experiment_FR_REAL,001,43,
images/fcloud65-35_D1.5_4.tif,1.5,1,,,,,,,,,0,95,95,57,,,,,,,,,,,,,,,None,None,,None,10.857,,,,,,,,,,,,,,,,,,2019_Apr_24_1607,60.18234044227288,Cloud_Experiment_FR_REAL,001,43,
images/fcloud65-35_D1.4_4.tif,1.4,1,,,,,,,,,0,96,96,54,,,,,,,,,,,,,,,2,None,,2,4.032,,,,,,,,,,,,,,,,,,2019_Apr_24_1607,60.18234044227288,Cloud_Experiment_FR_REAL,001,43,
images/fcloud80-20_D0.9_6.tif,0.9,2,,,,,,,,,0,97,97,77,,,,,,,,,,,,,,,2,space,2.21568649996,1,0.751,,,,,,,,,,,,,,,,,,2019_Apr_24_1607,60.18234044227288,Cloud_Experiment_FR_REAL,001,43,
images/fcloud_D1.3_5.tif,1.3,0,,,,,,,,,0,98,98,16,,,,,,,,,,,,,,,2,space,2.12413799996,3,0.652,,,,,,,,,,,,,,,,,,2019_Apr_24_1607,60.18234044227288,Cloud_Experiment_FR_REAL,001,43,
images/fcloud80-20_D1.7_5.tif,1.7,2,,,,,,,,,0,99,99,100,,,,,,,,,,,,,,,1,space,7.31034830003,1,0.552,,,,,,,,,,,,,,,,,,2019_Apr_24_1607,60.18234044227288,Cloud_Experiment_FR_REAL,001,43,
images/fcloud80-20_D1.2_4.tif,1.2,2,,,,,,,,,0,100,100,84,,,,,,,,,,,,,,,2,space,2.36220069998,1,0.702,,,,,,,,,,,,,,,,,,2019_Apr_24_1607,60.18234044227288,Cloud_Experiment_FR_REAL,001,43,
images/fcloud_D1_6.tif,1.0,0,,,,,,,,,0,101,101,8,,,,,,,,,,,,,,,2,space,3.74469179998,2,0.585,,,,,,,,,,,,,,,,,,2019_Apr_24_1607,60.18234044227288,Cloud_Experiment_FR_REAL,001,43,
images/fcloud65-35_D1.3_6.tif,1.3,1,,,,,,,,,0,102,102,53,,,,,,,,,,,,,,,1,space,4.57261189993,1,0.453,,,,,,,,,,,,,,,,,,2019_Apr_24_1607,60.18234044227288,Cloud_Experiment_FR_REAL,001,43,
images/fcloud80-20_D1.5_4.tif,1.5,2,,,,,,,,,0,103,103,93,,,,,,,,,,,,,,,None,None,,None,10.309,,,,,,,,,,,,,,,,,,2019_Apr_24_1607,60.18234044227288,Cloud_Experiment_FR_REAL,001,43,
images/fcloud_D0.8_5.tif,0.8,0,,,,,,,,,0,104,104,1,,,,,,,,,,,,,,,1,space,1.71225919994,2,0.551,,,,,,,,,,,,,,,,,,2019_Apr_24_1607,60.18234044227288,Cloud_Experiment_FR_REAL,001,43,
images/fcloud_D1.4_4.tif,1.4,0,,,,,,,,,0,105,105,18,,,,,,,,,,,,,,,1,None,,2,1.069,,,,,,,,,,,,,,,,,,2019_Apr_24_1607,60.18234044227288,Cloud_Experiment_FR_REAL,001,43,
images/fcloud80-20_D1.1_5.tif,1.1,2,,,,,,,,,0,106,106,82,,,,,,,,,,,,,,,None,None,,None,10.741,,,,,,,,,,,,,,,,,,2019_Apr_24_1607,60.18234044227288,Cloud_Experiment_FR_REAL,001,43,
images/fcloud_D1.9_4.tif,1.9,0,,,,,,,,,0,107,107,33,,,,,,,,,,,,,,,None,None,,None,20.0,,,,,,,,,,,,,,,,,,2019_Apr_24_1607,60.18234044227288,Cloud_Experiment_FR_REAL,001,43,
,,,,,,,,,,,,,,,,,,,,,,,,,,,,,,,,,,,,,,,,,,,,,,space,6.34472759999,,,,2019_Apr_24_1607,60.18234044227288,Cloud_Experiment_FR_REAL,001,43,
,,,,,,,,,,,,,,,,,,,,,,,,,2,14.165,,,,,,,,,,,,,,,,,,,,,,,,,2019_Apr_24_1607,60.18234044227288,Cloud_Experiment_FR_REAL,001,43,
,,,,,,,,,,,,,,,,,,,,,,,,,,,,,,,,,,3,,,,,,,,,,,,,,,,,2019_Apr_24_1607,60.18234044227288,Cloud_Experiment_FR_REAL,001,43,
,,,,,,,,,,,,,,,,,,,,,,,,,,,,,,,,,,,3,,,,,,,,,,,,,,,,2019_Apr_24_1607,60.18234044227288,Cloud_Experiment_FR_REAL,001,43,
,,,,,,,,,,,,,,,,,,,,,,,,,,,,,,,,,,,,1,,,,,,,,,,,,,,,2019_Apr_24_1607,60.18234044227288,Cloud_Experiment_FR_REAL,001,43,
,,,,,,,,,,,,,,,,,,,,,,,,,,,,,,,,,,,,,1,,,,,,,,,,,,,,2019_Apr_24_1607,60.18234044227288,Cloud_Experiment_FR_REAL,001,43,
,,,,,,,,,,,,,,,,,,,,,,,,,,,,,,,,,,,,,,2,,,,,,,,,,,,,2019_Apr_24_1607,60.18234044227288,Cloud_Experiment_FR_REAL,001,43,
,,,,,,,,,,,,,,,,,,,,,,,,,,,,,,,,,,,,,,,2,,,,,,,,,,,,2019_Apr_24_1607,60.18234044227288,Cloud_Experiment_FR_REAL,001,43,
,,,,,,,,,,,,,,,,,,,,,,,,,,,,,,,,,,,,,,,,3,,,,,,,,,,,2019_Apr_24_1607,60.18234044227288,Cloud_Experiment_FR_REAL,001,43,
,,,,,,,,,,,,,,,,,,,,,,,,,,,,,,,,,,,,,,,,,6,,,,,,,,,,2019_Apr_24_1607,60.18234044227288,Cloud_Experiment_FR_REAL,001,43,
,,,,,,,,,,,,,,,,,,,,,,,,,,,,,,,,,,,,,,,,,,4,,,,,,,,,2019_Apr_24_1607,60.18234044227288,Cloud_Experiment_FR_REAL,001,43,
,,,,,,,,,,,,,,,,,,,,,,,,,,,,,,,,,,,,,,,,,,,4,,,,,,,,2019_Apr_24_1607,60.18234044227288,Cloud_Experiment_FR_REAL,001,43,
,,,,,,,,,,,,,,,,,,,,,,,,,,,,,,,,,,,,,,,,,,,,,,,,space,191.2840145,,2019_Apr_24_1607,60.18234044227288,Cloud_Experiment_FR_REAL,001,43,
images/fcloud65-35_D1_8.tif,1.0,1,,,,,,,,,,,,,0,0,0,57,,,,,,,,,,,1,space,2.8352193,2,0.652,,,,,,,,,,,,,,,,,,2019_Apr_24_1607,60.18234044227288,Cloud_Experiment_FR_REAL,001,43,
images/fcloud65-35_D1.1_8.tif,1.1,1,,,,,,,,,,,,,0,1,1,61,,,,,,,,,,,3,space,3.67168799997,1,0.601,,,,,,,,,,,,,,,,,,2019_Apr_24_1607,60.18234044227288,Cloud_Experiment_FR_REAL,001,43,
images/fcloud65-35_D1.6_10.tif,1.6,1,,,,,,,,,,,,,0,2,2,83,,,,,,,,,,,1,space,6.19261030003,1,0.451,,,,,,,,,,,,,,,,,,2019_Apr_24_1607,60.18234044227288,Cloud_Experiment_FR_REAL,001,43,
images/fcloud80-20_D1.9_7.tif,1.9,2,,,,,,,,,,,,,0,3,3,140,,,,,,,,,,,2,space,3.5456799001,1,0.518,,,,,,,,,,,,,,,,,,2019_Apr_24_1607,60.18234044227288,Cloud_Experiment_FR_REAL,001,43,
images/fcloud65-35_D1.3_9.tif,1.3,1,,,,,,,,,,,,,0,4,4,70,,,,,,,,,,,1,space,6.45462540002,1,0.585,,,,,,,,,,,,,,,,,,2019_Apr_24_1607,60.18234044227288,Cloud_Experiment_FR_REAL,001,43,
images/fcloud80-20_D1.8_9.tif,1.8,2,,,,,,,,,,,,,0,5,5,138,,,,,,,,,,,None,None,,None,9.875,,,,,,,,,,,,,,,,,,2019_Apr_24_1607,60.18234044227288,Cloud_Experiment_FR_REAL,001,43,
images/fcloud80-20_D1.4_10.tif,1.4,2,,,,,,,,,,,,,0,6,6,123,,,,,,,,,,,None,None,,None,21.249,,,,,,,,,,,,,,,,,,2019_Apr_24_1607,60.18234044227288,Cloud_Experiment_FR_REAL,001,43,
images/fcloud_D1.8_7.tif,1.8,0,,,,,,,,,,,,,0,7,7,40,,,,,,,,,,,None,None,,None,38.101,,,,,,,,,,,,,,,,,,2019_Apr_24_1607,60.18234044227288,Cloud_Experiment_FR_REAL,001,43,
images/fcloud65-35_D1.1_9.tif,1.1,1,,,,,,,,,,,,,0,8,8,62,,,,,,,,,,,None,None,,None,47.076,,,,,,,,,,,,,,,,,,2019_Apr_24_1607,60.18234044227288,Cloud_Experiment_FR_REAL,001,43,
images/fcloud65-35_D1.5_7.tif,1.5,1,,,,,,,,,,,,,0,9,9,76,,,,,,,,,,,3,space,2.6572287,1,0.717,,,,,,,,,,,,,,,,,,2019_Apr_24_1607,60.18234044227288,Cloud_Experiment_FR_REAL,001,43,
images/fcloud65-35_D1.9_9.tif,1.9,1,,,,,,,,,,,,,0,10,10,94,,,,,,,,,,,2,space,2.61747359997,1,0.668,,,,,,,,,,,,,,,,,,2019_Apr_24_1607,60.18234044227288,Cloud_Experiment_FR_REAL,001,43,
images/fcloud_D0.8_7.tif,0.8,0,,,,,,,,,,,,,0,11,11,0,,,,,,,,,,,1,space,7.05572080007,1,0.635,,,,,,,,,,,,,,,,,,2019_Apr_24_1607,60.18234044227288,Cloud_Experiment_FR_REAL,001,43,
images/fcloud65-35_D0.9_10.tif,0.9,1,,,,,,,,,,,,,0,12,12,55,,,,,,,,,,,1,space,6.7045009,1,0.668,,,,,,,,,,,,,,,,,,2019_Apr_24_1607,60.18234044227288,Cloud_Experiment_FR_REAL,001,43,
images/fcloud65-35_D1.3_10.tif,1.3,1,,,,,,,,,,,,,0,13,13,71,,,,,,,,,,,2,space,2.53059079999,1,0.651,,,,,,,,,,,,,,,,,,2019_Apr_24_1607,60.18234044227288,Cloud_Experiment_FR_REAL,001,43,
images/fcloud65-35_D1.3_7.tif,1.3,1,,,,,,,,,,,,,0,14,14,68,,,,,,,,,,,None,None,,None,41.382,,,,,,,,,,,,,,,,,,2019_Apr_24_1607,60.18234044227288,Cloud_Experiment_FR_REAL,001,43,
images/fcloud65-35_D1.6_7.tif,1.6,1,,,,,,,,,,,,,0,15,15,80,,,,,,,,,,,1,space,6.10160129995,1,0.87,,,,,,,,,,,,,,,,,,2019_Apr_24_1607,60.18234044227288,Cloud_Experiment_FR_REAL,001,43,
images/fcloud_D1.1_8.tif,1.1,0,,,,,,,,,,,,,0,16,16,13,,,,,,,,,,,1,space,2.73798069998,1,0.984,,,,,,,,,,,,,,,,,,2019_Apr_24_1607,60.18234044227288,Cloud_Experiment_FR_REAL,001,43,
images/fcloud65-35_D1.6_8.tif,1.6,1,,,,,,,,,,,,,0,17,17,81,,,,,,,,,,,None,None,,None,10.591,,,,,,,,,,,,,,,,,,2019_Apr_24_1607,60.18234044227288,Cloud_Experiment_FR_REAL,001,43,
images/fcloud_D1.2_10.tif,1.2,0,,,,,,,,,,,,,0,18,18,19,,,,,,,,,,,None,None,,None,21.183,,,,,,,,,,,,,,,,,,2019_Apr_24_1607,60.18234044227288,Cloud_Experiment_FR_REAL,001,43,
images/fcloud_D0.8_8.tif,0.8,0,,,,,,,,,,,,,0,19,19,1,,,,,,,,,,,None,None,,None,31.406,,,,,,,,,,,,,,,,,,2019_Apr_24_1607,60.18234044227288,Cloud_Experiment_FR_REAL,001,43,
images/fcloud65-35_D1.2_10.tif,1.2,1,,,,,,,,,,,,,0,20,20,67,,,,,,,,,,,2,space,3.56025719992,2,0.601,,,,,,,,,,,,,,,,,,2019_Apr_24_1607,60.18234044227288,Cloud_Experiment_FR_REAL,001,43,
images/fcloud80-20_D1.2_8.tif,1.2,2,,,,,,,,,,,,,0,21,21,113,,,,,,,,,,,None,None,,None,21.033,,,,,,,,,,,,,,,,,,2019_Apr_24_1607,60.18234044227288,Cloud_Experiment_FR_REAL,001,43,
images/fcloud_D1.2_8.tif,1.2,0,,,,,,,,,,,,,0,22,22,17,,,,,,,,,,,2,space,5.69536040002,1,0.535,,,,,,,,,,,,,,,,,,2019_Apr_24_1607,60.18234044227288,Cloud_Experiment_FR_REAL,001,43,
images/fcloud_D1.1_10.tif,1.1,0,,,,,,,,,,,,,0,23,23,15,,,,,,,,,,,2,space,4.13060010003,2,0.568,,,,,,,,,,,,,,,,,,2019_Apr_24_1607,60.18234044227288,Cloud_Experiment_FR_REAL,001,43,
images/fcloud80-20_D1.5_8.tif,1.5,2,,,,,,,,,,,,,0,24,24,125,,,,,,,,,,,1,space,5.48316279997,1,0.569,,,,,,,,,,,,,,,,,,2019_Apr_24_1607,60.18234044227288,Cloud_Experiment_FR_REAL,001,43,
images/fcloud_D1.3_9.tif,1.3,0,,,,,,,,,,,,,0,25,25,22,,,,,,,,,,,3,space,2.37784710003,2,0.601,,,,,,,,,,,,,,,,,,2019_Apr_24_1607,60.18234044227288,Cloud_Experiment_FR_REAL,001,43,
images/fcloud80-20_D0.8_9.tif,0.8,2,,,,,,,,,,,,,0,26,26,98,,,,,,,,,,,None,None,,None,21.897,,,,,,,,,,,,,,,,,,2019_Apr_24_1607,60.18234044227288,Cloud_Experiment_FR_REAL,001,43,
images/fcloud65-35_D1.1_7.tif,1.1,1,,,,,,,,,,,,,0,27,27,60,,,,,,,,,,,1,space,2.76258740004,1,0.901,,,,,,,,,,,,,,,,,,2019_Apr_24_1607,60.18234044227288,Cloud_Experiment_FR_REAL,001,43,
images/fcloud80-20_D0.9_9.tif,0.9,2,,,,,,,,,,,,,0,28,28,102,,,,,,,,,,,None,None,,None,58.95,,,,,,,,,,,,,,,,,,2019_Apr_24_1607,60.18234044227288,Cloud_Experiment_FR_REAL,001,43,
images/fcloud80-20_D1.2_9.tif,1.2,2,,,,,,,,,,,,,0,29,29,114,,,,,,,,,,,1,None,,1,0.601,,,,,,,,,,,,,,,,,,2019_Apr_24_1607,60.18234044227288,Cloud_Experiment_FR_REAL,001,43,
images/fcloud_D1.7_10.tif,1.7,0,,,,,,,,,,,,,0,30,30,39,,,,,,,,,,,4,space,2.10362950002,1,0.666,,,,,,,,,,,,,,,,,,2019_Apr_24_1607,60.18234044227288,Cloud_Experiment_FR_REAL,001,43,
images/fcloud_D1_7.tif,1.0,0,,,,,,,,,,,,,0,31,31,8,,,,,,,,,,,3,space,3.50560849998,2,0.736,,,,,,,,,,,,,,,,,,2019_Apr_24_1607,60.18234044227288,Cloud_Experiment_FR_REAL,001,43,
images/fcloud_D1.8_8.tif,1.8,0,,,,,,,,,,,,,0,32,32,41,,,,,,,,,,,1,space,6.2513607,2,0.586,,,,,,,,,,,,,,,,,,2019_Apr_24_1607,60.18234044227288,Cloud_Experiment_FR_REAL,001,43,
images/fcloud65-35_D1.2_7.tif,1.2,1,,,,,,,,,,,,,0,33,33,64,,,,,,,,,,,2,space,4.21346750006,1,0.584,,,,,,,,,,,,,,,,,,2019_Apr_24_1607,60.18234044227288,Cloud_Experiment_FR_REAL,001,43,
images/fcloud_D0.8_9.tif,0.8,0,,,,,,,,,,,,,0,34,34,2,,,,,,,,,,,2,space,3.24503260001,1,0.637,,,,,,,,,,,,,,,,,,2019_Apr_24_1607,60.18234044227288,Cloud_Experiment_FR_REAL,001,43,
images/fcloud80-20_D1.3_8.tif,1.3,2,,,,,,,,,,,,,0,35,35,117,,,,,,,,,,,None,None,,None,9.858,,,,,,,,,,,,,,,,,,2019_Apr_24_1607,60.18234044227288,Cloud_Experiment_FR_REAL,001,43,
images/fcloud80-20_D1.9_9.tif,1.9,2,,,,,,,,,,,,,0,36,36,142,,,,,,,,,,,None,None,,None,26.012,,,,,,,,,,,,,,,,,,2019_Apr_24_1607,60.18234044227288,Cloud_Experiment_FR_REAL,001,43,
images/fcloud65-35_D0.9_7.tif,0.9,1,,,,,,,,,,,,,0,37,37,52,,,,,,,,,,,None,None,,None,43.231,,,,,,,,,,,,,,,,,,2019_Apr_24_1607,60.18234044227288,Cloud_Experiment_FR_REAL,001,43,
images/fcloud80-20_D0.9_7.tif,0.9,2,,,,,,,,,,,,,0,38,38,100,,,,,,,,,,,1,space,6.37277989998,1,0.67,,,,,,,,,,,,,,,,,,2019_Apr_24_1607,60.18234044227288,Cloud_Experiment_FR_REAL,001,43,
images/fcloud80-20_D1.6_7.tif,1.6,2,,,,,,,,,,,,,0,39,39,128,,,,,,,,,,,None,None,,None,16.286,,,,,,,,,,,,,,,,,,2019_Apr_24_1607,60.18234044227288,Cloud_Experiment_FR_REAL,001,43,
images/fcloud_D1_8.tif,1.0,0,,,,,,,,,,,,,0,40,40,9,,,,,,,,,,,1,space,5.5421968,2,0.601,,,,,,,,,,,,,,,,,,2019_Apr_24_1607,60.18234044227288,Cloud_Experiment_FR_REAL,001,43,
images/fcloud_D1.3_10.tif,1.3,0,,,,,,,,,,,,,0,41,41,23,,,,,,,,,,,1,space,4.76451000001,2,0.617,,,,,,,,,,,,,,,,,,2019_Apr_24_1607,60.18234044227288,Cloud_Experiment_FR_REAL,001,43,
images/fcloud65-35_D1.4_8.tif,1.4,1,,,,,,,,,,,,,0,42,42,73,,,,,,,,,,,None,None,,None,9.893,,,,,,,,,,,,,,,,,,2019_Apr_24_1607,60.18234044227288,Cloud_Experiment_FR_REAL,001,43,
images/fcloud80-20_D1.8_10.tif,1.8,2,,,,,,,,,,,,,0,43,43,139,,,,,,,,,,,1,space,2.38873090001,1,0.587,,,,,,,,,,,,,,,,,,2019_Apr_24_1607,60.18234044227288,Cloud_Experiment_FR_REAL,001,43,
images/fcloud_D1.7_9.tif,1.7,0,,,,,,,,,,,,,0,44,44,38,,,,,,,,,,,2,space,4.84832159989,1,0.701,,,,,,,,,,,,,,,,,,2019_Apr_24_1607,60.18234044227288,Cloud_Experiment_FR_REAL,001,43,
images/fcloud65-35_D0.8_7.tif,0.8,1,,,,,,,,,,,,,0,45,45,48,,,,,,,,,,,None,None,,None,12.406,,,,,,,,,,,,,,,,,,2019_Apr_24_1607,60.18234044227288,Cloud_Experiment_FR_REAL,001,43,
images/fcloud80-20_D1.2_7.tif,1.2,2,,,,,,,,,,,,,0,46,46,112,,,,,,,,,,,1,space,6.68088919995,1,0.753,,,,,,,,,,,,,,,,,,2019_Apr_24_1607,60.18234044227288,Cloud_Experiment_FR_REAL,001,43,
images/fcloud65-35_D0.8_9.tif,0.8,1,,,,,,,,,,,,,0,47,47,50,,,,,,,,,,,2,space,4.68510370003,1,0.686,,,,,,,,,,,,,,,,,,2019_Apr_24_1607,60.18234044227288,Cloud_Experiment_FR_REAL,001,43,
images/fcloud80-20_D1.2_10.tif,1.2,2,,,,,,,,,,,,,0,48,48,115,,,,,,,,,,,1,space,4.81288939994,2,0.584,,,,,,,,,,,,,,,,,,2019_Apr_24_1607,60.18234044227288,Cloud_Experiment_FR_REAL,001,43,
images/fcloud_D1_9.tif,1.0,0,,,,,,,,,,,,,0,49,49,10,,,,,,,,,,,3,space,3.90607769997,2,0.602,,,,,,,,,,,,,,,,,,2019_Apr_24_1607,60.18234044227288,Cloud_Experiment_FR_REAL,001,43,
images/fcloud80-20_D0.9_8.tif,0.9,2,,,,,,,,,,,,,0,50,50,101,,,,,,,,,,,None,None,,None,16.369,,,,,,,,,,,,,,,,,,2019_Apr_24_1607,60.18234044227288,Cloud_Experiment_FR_REAL,001,43,
images/fcloud80-20_D1.4_8.tif,1.4,2,,,,,,,,,,,,,0,51,51,121,,,,,,,,,,,2,space,3.96103130002,2,1.934,,,,,,,,,,,,,,,,,,2019_Apr_24_1607,60.18234044227288,Cloud_Experiment_FR_REAL,001,43,
images/fcloud65-35_D1.1_10.tif,1.1,1,,,,,,,,,,,,,0,52,52,63,,,,,,,,,,,1,None,,1,0.618,,,,,,,,,,,,,,,,,,2019_Apr_24_1607,60.18234044227288,Cloud_Experiment_FR_REAL,001,43,
images/fcloud_D1.8_9.tif,1.8,0,,,,,,,,,,,,,0,53,53,42,,,,,,,,,,,1,space,6.45101630001,1,0.569,,,,,,,,,,,,,,,,,,2019_Apr_24_1607,60.18234044227288,Cloud_Experiment_FR_REAL,001,43,
images/fcloud65-35_D0.8_10.tif,0.8,1,,,,,,,,,,,,,0,54,54,51,,,,,,,,,,,1,None,,1,0.684,,,,,,,,,,,,,,,,,,2019_Apr_24_1607,60.18234044227288,Cloud_Experiment_FR_REAL,001,43,
images/fcloud80-20_D1.5_7.tif,1.5,2,,,,,,,,,,,,,0,55,55,124,,,,,,,,,,,None,None,,None,10.09,,,,,,,,,,,,,,,,,,2019_Apr_24_1607,60.18234044227288,Cloud_Experiment_FR_REAL,001,43,
images/fcloud65-35_D1_7.tif,1.0,1,,,,,,,,,,,,,0,56,56,56,,,,,,,,,,,2,space,3.23303949996,1,0.585,,,,,,,,,,,,,,,,,,2019_Apr_24_1607,60.18234044227288,Cloud_Experiment_FR_REAL,001,43,
images/fcloud_D1.5_8.tif,1.5,0,,,,,,,,,,,,,0,57,57,29,,,,,,,,,,,1,space,6.77690990001,1,0.685,,,,,,,,,,,,,,,,,,2019_Apr_24_1607,60.18234044227288,Cloud_Experiment_FR_REAL,001,43,
images/fcloud_D1.6_9.tif,1.6,0,,,,,,,,,,,,,0,58,58,34,,,,,,,,,,,1,space,2.57487660006,2,0.667,,,,,,,,,,,,,,,,,,2019_Apr_24_1607,60.18234044227288,Cloud_Experiment_FR_REAL,001,43,
images/fcloud_D1.9_7.tif,1.9,0,,,,,,,,,,,,,0,59,59,44,,,,,,,,,,,None,None,,None,10.524,,,,,,,,,,,,,,,,,,2019_Apr_24_1607,60.18234044227288,Cloud_Experiment_FR_REAL,001,43,
images/fcloud_D1.9_9.tif,1.9,0,,,,,,,,,,,,,0,60,60,46,,,,,,,,,,,1,space,2.98185799993,2,0.617,,,,,,,,,,,,,,,,,,2019_Apr_24_1607,60.18234044227288,Cloud_Experiment_FR_REAL,001,43,
images/fcloud65-35_D1.2_8.tif,1.2,1,,,,,,,,,,,,,0,61,61,65,,,,,,,,,,,1,None,,1,0.485,,,,,,,,,,,,,,,,,,2019_Apr_24_1607,60.18234044227288,Cloud_Experiment_FR_REAL,001,43,
images/fcloud65-35_D1.7_10.tif,1.7,1,,,,,,,,,,,,,0,62,62,87,,,,,,,,,,,1,space,6.68367149995,1,0.601,,,,,,,,,,,,,,,,,,2019_Apr_24_1607,60.18234044227288,Cloud_Experiment_FR_REAL,001,43,
images/fcloud80-20_D1.9_8.tif,1.9,2,,,,,,,,,,,,,0,63,63,141,,,,,,,,,,,None,None,,None,10.276,,,,,,,,,,,,,,,,,,2019_Apr_24_1607,60.18234044227288,Cloud_Experiment_FR_REAL,001,43,
images/fcloud65-35_D1.3_8.tif,1.3,1,,,,,,,,,,,,,0,64,64,69,,,,,,,,,,,2,space,4.24614980002,1,0.668,,,,,,,,,,,,,,,,,,2019_Apr_24_1607,60.18234044227288,Cloud_Experiment_FR_REAL,001,43,
images/fcloud65-35_D1.4_10.tif,1.4,1,,,,,,,,,,,,,0,65,65,75,,,,,,,,,,,None,None,,None,10.076,,,,,,,,,,,,,,,,,,2019_Apr_24_1607,60.18234044227288,Cloud_Experiment_FR_REAL,001,43,
images/fcloud80-20_D1.6_10.tif,1.6,2,,,,,,,,,,,,,0,66,66,131,,,,,,,,,,,None,None,,None,27.343,,,,,,,,,,,,,,,,,,2019_Apr_24_1607,60.18234044227288,Cloud_Experiment_FR_REAL,001,43,
images/fcloud65-35_D1.4_9.tif,1.4,1,,,,,,,,,,,,,0,67,67,74,,,,,,,,,,,1,space,6.27510199999,1,0.551,,,,,,,,,,,,,,,,,,2019_Apr_24_1607,60.18234044227288,Cloud_Experiment_FR_REAL,001,43,
images/fcloud_D1.1_9.tif,1.1,0,,,,,,,,,,,,,0,68,68,14,,,,,,,,,,,3,space,1.45069859992,1,0.667,,,,,,,,,,,,,,,,,,2019_Apr_24_1607,60.18234044227288,Cloud_Experiment_FR_REAL,001,43,
images/fcloud80-20_D1.9_10.tif,1.9,2,,,,,,,,,,,,,0,69,69,143,,,,,,,,,,,2,space,3.11820780009,1,0.535,,,,,,,,,,,,,,,,,,2019_Apr_24_1607,60.18234044227288,Cloud_Experiment_FR_REAL,001,43,
images/fcloud80-20_D1.1_9.tif,1.1,2,,,,,,,,,,,,,0,70,70,110,,,,,,,,,,,None,None,,None,10.091,,,,,,,,,,,,,,,,,,2019_Apr_24_1607,60.18234044227288,Cloud_Experiment_FR_REAL,001,43,
images/fcloud_D1_10.tif,1.0,0,,,,,,,,,,,,,0,71,71,11,,,,,,,,,,,None,None,,None,27.71,,,,,,,,,,,,,,,,,,2019_Apr_24_1607,60.18234044227288,Cloud_Experiment_FR_REAL,001,43,
images/fcloud_D0.9_8.tif,0.9,0,,,,,,,,,,,,,0,72,72,5,,,,,,,,,,,1,space,2.34434559999,1,0.451,,,,,,,,,,,,,,,,,,2019_Apr_24_1607,60.18234044227288,Cloud_Experiment_FR_REAL,001,43,
images/fcloud80-20_D1.7_7.tif,1.7,2,,,,,,,,,,,,,0,73,73,132,,,,,,,,,,,None,None,,None,9.909,,,,,,,,,,,,,,,,,,2019_Apr_24_1607,60.18234044227288,Cloud_Experiment_FR_REAL,001,43,
images/fcloud_D0.8_10.tif,0.8,0,,,,,,,,,,,,,0,74,74,3,,,,,,,,,,,None,None,,None,19.517,,,,,,,,,,,,,,,,,,2019_Apr_24_1607,60.18234044227288,Cloud_Experiment_FR_REAL,001,43,
images/fcloud80-20_D0.8_10.tif,0.8,2,,,,,,,,,,,,,0,75,75,99,,,,,,,,,,,None,None,,None,28.575,,,,,,,,,,,,,,,,,,2019_Apr_24_1607,60.18234044227288,Cloud_Experiment_FR_REAL,001,43,
images/fcloud_D1.6_10.tif,1.6,0,,,,,,,,,,,,,0,76,76,35,,,,,,,,,,,1,None,,1,1.118,,,,,,,,,,,,,,,,,,2019_Apr_24_1607,60.18234044227288,Cloud_Experiment_FR_REAL,001,43,
images/fcloud_D1.9_10.tif,1.9,0,,,,,,,,,,,,,0,77,77,47,,,,,,,,,,,None,None,,None,10.625,,,,,,,,,,,,,,,,,,2019_Apr_24_1607,60.18234044227288,Cloud_Experiment_FR_REAL,001,43,
images/fcloud65-35_D0.8_8.tif,0.8,1,,,,,,,,,,,,,0,78,78,49,,,,,,,,,,,2,space,5.46076689998,1,0.652,,,,,,,,,,,,,,,,,,2019_Apr_24_1607,60.18234044227288,Cloud_Experiment_FR_REAL,001,43,
images/fcloud_D1.6_7.tif,1.6,0,,,,,,,,,,,,,0,79,79,32,,,,,,,,,,,None,None,,None,10.341,,,,,,,,,,,,,,,,,,2019_Apr_24_1607,60.18234044227288,Cloud_Experiment_FR_REAL,001,43,
images/fcloud65-35_D1.5_10.tif,1.5,1,,,,,,,,,,,,,0,80,80,79,,,,,,,,,,,1,space,4.61430150003,1,1.184,,,,,,,,,,,,,,,,,,2019_Apr_24_1607,60.18234044227288,Cloud_Experiment_FR_REAL,001,43,
images/fcloud80-20_D1_9.tif,1.0,2,,,,,,,,,,,,,0,81,81,106,,,,,,,,,,,1,space,6.17221510003,1,0.601,,,,,,,,,,,,,,,,,,2019_Apr_24_1607,60.18234044227288,Cloud_Experiment_FR_REAL,001,43,
images/fcloud80-20_D1.5_10.tif,1.5,2,,,,,,,,,,,,,0,82,82,127,,,,,,,,,,,1,space,4.98488999996,1,0.553,,,,,,,,,,,,,,,,,,2019_Apr_24_1607,60.18234044227288,Cloud_Experiment_FR_REAL,001,43,
images/fcloud_D1.4_10.tif,1.4,0,,,,,,,,,,,,,0,83,83,27,,,,,,,,,,,2,space,1.3922605,2,0.553,,,,,,,,,,,,,,,,,,2019_Apr_24_1607,60.18234044227288,Cloud_Experiment_FR_REAL,001,43,
images/fcloud80-20_D1_10.tif,1.0,2,,,,,,,,,,,,,0,84,84,107,,,,,,,,,,,1,space,5.32088919997,1,0.5,,,,,,,,,,,,,,,,,,2019_Apr_24_1607,60.18234044227288,Cloud_Experiment_FR_REAL,001,43,
images/fcloud65-35_D1.9_7.tif,1.9,1,,,,,,,,,,,,,0,85,85,92,,,,,,,,,,,1,space,6.24545359996,1,0.469,,,,,,,,,,,,,,,,,,2019_Apr_24_1607,60.18234044227288,Cloud_Experiment_FR_REAL,001,43,
images/fcloud80-20_D1.1_10.tif,1.1,2,,,,,,,,,,,,,0,86,86,111,,,,,,,,,,,None,None,,None,9.16,,,,,,,,,,,,,,,,,,2019_Apr_24_1607,60.18234044227288,Cloud_Experiment_FR_REAL,001,43,
images/fcloud_D1.8_10.tif,1.8,0,,,,,,,,,,,,,0,87,87,43,,,,,,,,,,,1,space,4.13302860002,2,0.667,,,,,,,,,,,,,,,,,,2019_Apr_24_1607,60.18234044227288,Cloud_Experiment_FR_REAL,001,43,
images/fcloud_D1.5_7.tif,1.5,0,,,,,,,,,,,,,0,88,88,28,,,,,,,,,,,3,space,2.42780469998,2,0.651,,,,,,,,,,,,,,,,,,2019_Apr_24_1607,60.18234044227288,Cloud_Experiment_FR_REAL,001,43,
images/fcloud80-20_D1.3_7.tif,1.3,2,,,,,,,,,,,,,0,89,89,116,,,,,,,,,,,None,None,,None,9.842,,,,,,,,,,,,,,,,,,2019_Apr_24_1607,60.18234044227288,Cloud_Experiment_FR_REAL,001,43,
images/fcloud_D1.6_8.tif,1.6,0,,,,,,,,,,,,,0,90,90,33,,,,,,,,,,,4,space,2.09741769999,2,0.851,,,,,,,,,,,,,,,,,,2019_Apr_24_1607,60.18234044227288,Cloud_Experiment_FR_REAL,001,43,
images/fcloud_D0.9_9.tif,0.9,0,,,,,,,,,,,,,0,91,91,6,,,,,,,,,,,None,None,,None,10.592,,,,,,,,,,,,,,,,,,2019_Apr_24_1607,60.18234044227288,Cloud_Experiment_FR_REAL,001,43,
images/fcloud_D1.4_7.tif,1.4,0,,,,,,,,,,,,,0,92,92,24,,,,,,,,,,,1,None,,1,0.587,,,,,,,,,,,,,,,,,,2019_Apr_24_1607,60.18234044227288,Cloud_Experiment_FR_REAL,001,43,
images/fcloud_D1.2_9.tif,1.2,0,,,,,,,,,,,,,0,93,93,18,,,,,,,,,,,None,None,,None,23.131,,,,,,,,,,,,,,,,,,2019_Apr_24_1607,60.18234044227288,Cloud_Experiment_FR_REAL,001,43,
images/fcloud80-20_D1.7_9.tif,1.7,2,,,,,,,,,,,,,0,94,94,134,,,,,,,,,,,2,space,5.35406209994,1,1.434,,,,,,,,,,,,,,,,,,2019_Apr_24_1607,60.18234044227288,Cloud_Experiment_FR_REAL,001,43,
images/fcloud65-35_D0.9_9.tif,0.9,1,,,,,,,,,,,,,0,95,95,54,,,,,,,,,,,2,space,4.00918569998,1,0.518,,,,,,,,,,,,,,,,,,2019_Apr_24_1607,60.18234044227288,Cloud_Experiment_FR_REAL,001,43,
images/fcloud_D1.7_8.tif,1.7,0,,,,,,,,,,,,,0,96,96,37,,,,,,,,,,,2,space,5.35442310001,2,0.535,,,,,,,,,,,,,,,,,,2019_Apr_24_1607,60.18234044227288,Cloud_Experiment_FR_REAL,001,43,
images/fcloud_D1.9_8.tif,1.9,0,,,,,,,,,,,,,0,97,97,45,,,,,,,,,,,None,None,,None,9.808,,,,,,,,,,,,,,,,,,2019_Apr_24_1607,60.18234044227288,Cloud_Experiment_FR_REAL,001,43,
images/fcloud80-20_D1_7.tif,1.0,2,,,,,,,,,,,,,0,98,98,104,,,,,,,,,,,1,None,,1,0.601,,,,,,,,,,,,,,,,,,2019_Apr_24_1607,60.18234044227288,Cloud_Experiment_FR_REAL,001,43,
images/fcloud_D1.5_10.tif,1.5,0,,,,,,,,,,,,,0,99,99,31,,,,,,,,,,,3,space,2.17417350004,2,0.669,,,,,,,,,,,,,,,,,,2019_Apr_24_1607,60.18234044227288,Cloud_Experiment_FR_REAL,001,43,
images/fcloud65-35_D1.7_7.tif,1.7,1,,,,,,,,,,,,,0,100,100,84,,,,,,,,,,,None,None,,None,16.469,,,,,,,,,,,,,,,,,,2019_Apr_24_1607,60.18234044227288,Cloud_Experiment_FR_REAL,001,43,
images/fcloud_D1.4_9.tif,1.4,0,,,,,,,,,,,,,0,101,101,26,,,,,,,,,,,None,None,,None,34.237,,,,,,,,,,,,,,,,,,2019_Apr_24_1607,60.18234044227288,Cloud_Experiment_FR_REAL,001,43,
images/fcloud65-35_D0.9_8.tif,0.9,1,,,,,,,,,,,,,0,102,102,53,,,,,,,,,,,2,space,4.53911880008,1,0.519,,,,,,,,,,,,,,,,,,2019_Apr_24_1607,60.18234044227288,Cloud_Experiment_FR_REAL,001,43,
images/fcloud65-35_D1.8_9.tif,1.8,1,,,,,,,,,,,,,0,103,103,90,,,,,,,,,,,None,None,,None,9.51,,,,,,,,,,,,,,,,,,2019_Apr_24_1607,60.18234044227288,Cloud_Experiment_FR_REAL,001,43,
images/fcloud80-20_D0.8_8.tif,0.8,2,,,,,,,,,,,,,0,104,104,97,,,,,,,,,,,1,space,3.30649360002,1,0.419,,,,,,,,,,,,,,,,,,2019_Apr_24_1607,60.18234044227288,Cloud_Experiment_FR_REAL,001,43,
images/fcloud65-35_D1.7_8.tif,1.7,1,,,,,,,,,,,,,0,105,105,85,,,,,,,,,,,1,space,2.21644660004,1,0.601,,,,,,,,,,,,,,,,,,2019_Apr_24_1607,60.18234044227288,Cloud_Experiment_FR_REAL,001,43,
images/fcloud_D0.9_7.tif,0.9,0,,,,,,,,,,,,,0,106,106,4,,,,,,,,,,,3,space,1.34691860003,2,0.587,,,,,,,,,,,,,,,,,,2019_Apr_24_1607,60.18234044227288,Cloud_Experiment_FR_REAL,001,43,
images/fcloud65-35_D1.5_8.tif,1.5,1,,,,,,,,,,,,,0,107,107,77,,,,,,,,,,,None,None,,None,10.042,,,,,,,,,,,,,,,,,,2019_Apr_24_1607,60.18234044227288,Cloud_Experiment_FR_REAL,001,43,
images/fcloud65-35_D1_10.tif,1.0,1,,,,,,,,,,,,,0,108,108,59,,,,,,,,,,,None,None,,None,21.201,,,,,,,,,,,,,,,,,,2019_Apr_24_1607,60.18234044227288,Cloud_Experiment_FR_REAL,001,43,
images/fcloud_D1.7_7.tif,1.7,0,,,,,,,,,,,,,0,109,109,36,,,,,,,,,,,1,space,1.95391689998,2,0.551,,,,,,,,,,,,,,,,,,2019_Apr_24_1607,60.18234044227288,Cloud_Experiment_FR_REAL,001,43,
images/fcloud_D0.9_10.tif,0.9,0,,,,,,,,,,,,,0,110,110,7,,,,,,,,,,,None,None,,None,9.925,,,,,,,,,,,,,,,,,,2019_Apr_24_1607,60.18234044227288,Cloud_Experiment_FR_REAL,001,43,
images/fcloud65-35_D1.8_7.tif,1.8,1,,,,,,,,,,,,,0,111,111,88,,,,,,,,,,,1,space,6.28695119999,1,0.468,,,,,,,,,,,,,,,,,,2019_Apr_24_1607,60.18234044227288,Cloud_Experiment_FR_REAL,001,43,
images/fcloud65-35_D1.4_7.tif,1.4,1,,,,,,,,,,,,,0,112,112,72,,,,,,,,,,,1,space,5.06961150002,1,1.268,,,,,,,,,,,,,,,,,,2019_Apr_24_1607,60.18234044227288,Cloud_Experiment_FR_REAL,001,43,
images/fcloud80-20_D1.4_7.tif,1.4,2,,,,,,,,,,,,,0,113,113,120,,,,,,,,,,,2,space,4.27281700005,2,0.602,,,,,,,,,,,,,,,,,,2019_Apr_24_1607,60.18234044227288,Cloud_Experiment_FR_REAL,001,43,
images/fcloud65-35_D1.9_8.tif,1.9,1,,,,,,,,,,,,,0,114,114,93,,,,,,,,,,,None,None,,None,9.309,,,,,,,,,,,,,,,,,,2019_Apr_24_1607,60.18234044227288,Cloud_Experiment_FR_REAL,001,43,
images/fcloud80-20_D0.8_7.tif,0.8,2,,,,,,,,,,,,,0,115,115,96,,,,,,,,,,,None,None,,None,18.734,,,,,,,,,,,,,,,,,,2019_Apr_24_1607,60.18234044227288,Cloud_Experiment_FR_REAL,001,43,
images/fcloud80-20_D1.3_10.tif,1.3,2,,,,,,,,,,,,,0,116,116,119,,,,,,,,,,,2,space,4.54909600003,2,0.719,,,,,,,,,,,,,,,,,,2019_Apr_24_1607,60.18234044227288,Cloud_Experiment_FR_REAL,001,43,
images/fcloud80-20_D1.7_8.tif,1.7,2,,,,,,,,,,,,,0,117,117,133,,,,,,,,,,,2,space,6.16886049998,1,0.551,,,,,,,,,,,,,,,,,,2019_Apr_24_1607,60.18234044227288,Cloud_Experiment_FR_REAL,001,43,
images/fcloud80-20_D1.7_10.tif,1.7,2,,,,,,,,,,,,,0,118,118,135,,,,,,,,,,,1,space,6.60410470003,1,3.132,,,,,,,,,,,,,,,,,,2019_Apr_24_1607,60.18234044227288,Cloud_Experiment_FR_REAL,001,43,
images/fcloud65-35_D1.6_9.tif,1.6,1,,,,,,,,,,,,,0,119,119,82,,,,,,,,,,,1,None,,1,1.319,,,,,,,,,,,,,,,,,,2019_Apr_24_1607,60.18234044227288,Cloud_Experiment_FR_REAL,001,43,
images/fcloud65-35_D1.8_8.tif,1.8,1,,,,,,,,,,,,,0,120,120,89,,,,,,,,,,,2,space,1.74862239999,1,1.783,,,,,,,,,,,,,,,,,,2019_Apr_24_1607,60.18234044227288,Cloud_Experiment_FR_REAL,001,43,
images/fcloud65-35_D1.8_10.tif,1.8,1,,,,,,,,,,,,,0,121,121,91,,,,,,,,,,,1,None,,1,0.486,,,,,,,,,,,,,,,,,,2019_Apr_24_1607,60.18234044227288,Cloud_Experiment_FR_REAL,001,43,
images/fcloud80-20_D1.8_8.tif,1.8,2,,,,,,,,,,,,,0,122,122,137,,,,,,,,,,,1,space,5.22035820002,1,0.517,,,,,,,,,,,,,,,,,,2019_Apr_24_1607,60.18234044227288,Cloud_Experiment_FR_REAL,001,43,
images/fcloud_D1.1_7.tif,1.1,0,,,,,,,,,,,,,0,123,123,12,,,,,,,,,,,3,space,4.5630370999,2,0.751,,,,,,,,,,,,,,,,,,2019_Apr_24_1607,60.18234044227288,Cloud_Experiment_FR_REAL,001,43,
images/fcloud65-35_D1.7_9.tif,1.7,1,,,,,,,,,,,,,0,124,124,86,,,,,,,,,,,2,space,2.87269509991,1,0.485,,,,,,,,,,,,,,,,,,2019_Apr_24_1607,60.18234044227288,Cloud_Experiment_FR_REAL,001,43,
images/fcloud_D1.3_7.tif,1.3,0,,,,,,,,,,,,,0,125,125,20,,,,,,,,,,,None,None,,None,10.241,,,,,,,,,,,,,,,,,,2019_Apr_24_1607,60.18234044227288,Cloud_Experiment_FR_REAL,001,43,
images/fcloud80-20_D1.5_9.tif,1.5,2,,,,,,,,,,,,,0,126,126,126,,,,,,,,,,,None,None,,None,19.167,,,,,,,,,,,,,,,,,,2019_Apr_24_1607,60.18234044227288,Cloud_Experiment_FR_REAL,001,43,
images/fcloud80-20_D1.6_8.tif,1.6,2,,,,,,,,,,,,,0,127,127,129,,,,,,,,,,,None,None,,None,27.827,,,,,,,,,,,,,,,,,,2019_Apr_24_1607,60.18234044227288,Cloud_Experiment_FR_REAL,001,43,
images/fcloud80-20_D1.1_7.tif,1.1,2,,,,,,,,,,,,,0,128,128,108,,,,,,,,,,,1,space,2.48294849996,1,0.468,,,,,,,,,,,,,,,,,,2019_Apr_24_1607,60.18234044227288,Cloud_Experiment_FR_REAL,001,43,
images/fcloud80-20_D1.4_9.tif,1.4,2,,,,,,,,,,,,,0,129,129,122,,,,,,,,,,,None,None,,None,15.237,,,,,,,,,,,,,,,,,,2019_Apr_24_1607,60.18234044227288,Cloud_Experiment_FR_REAL,001,43,
images/fcloud_D1.5_9.tif,1.5,0,,,,,,,,,,,,,0,130,130,30,,,,,,,,,,,None,None,,None,24.164,,,,,,,,,,,,,,,,,,2019_Apr_24_1607,60.18234044227288,Cloud_Experiment_FR_REAL,001,43,
images/fcloud65-35_D1.9_10.tif,1.9,1,,,,,,,,,,,,,0,131,131,95,,,,,,,,,,,2,space,3.2797496001,1,0.535,,,,,,,,,,,,,,,,,,2019_Apr_24_1607,60.18234044227288,Cloud_Experiment_FR_REAL,001,43,
images/fcloud80-20_D1_8.tif,1.0,2,,,,,,,,,,,,,0,132,132,105,,,,,,,,,,,1,space,4.62515879993,2,2.551,,,,,,,,,,,,,,,,,,2019_Apr_24_1607,60.18234044227288,Cloud_Experiment_FR_REAL,001,43,
images/fcloud65-35_D1.5_9.tif,1.5,1,,,,,,,,,,,,,0,133,133,78,,,,,,,,,,,None,None,,None,11.808,,,,,,,,,,,,,,,,,,2019_Apr_24_1607,60.18234044227288,Cloud_Experiment_FR_REAL,001,43,
images/fcloud65-35_D1_9.tif,1.0,1,,,,,,,,,,,,,0,134,134,58,,,,,,,,,,,None,None,,None,20.582,,,,,,,,,,,,,,,,,,2019_Apr_24_1607,60.18234044227288,Cloud_Experiment_FR_REAL,001,43,
images/fcloud80-20_D1.3_9.tif,1.3,2,,,,,,,,,,,,,0,135,135,118,,,,,,,,,,,1,space,6.21191389998,1,0.518,,,,,,,,,,,,,,,,,,2019_Apr_24_1607,60.18234044227288,Cloud_Experiment_FR_REAL,001,43,
images/fcloud80-20_D1.6_9.tif,1.6,2,,,,,,,,,,,,,0,136,136,130,,,,,,,,,,,2,space,4.18387950002,1,0.518,,,,,,,,,,,,,,,,,,2019_Apr_24_1607,60.18234044227288,Cloud_Experiment_FR_REAL,001,43,
images/fcloud_D1.3_8.tif,1.3,0,,,,,,,,,,,,,0,137,137,21,,,,,,,,,,,2,space,4.53349240008,1,0.551,,,,,,,,,,,,,,,,,,2019_Apr_24_1607,60.18234044227288,Cloud_Experiment_FR_REAL,001,43,
images/fcloud80-20_D0.9_10.tif,0.9,2,,,,,,,,,,,,,0,138,138,103,,,,,,,,,,,None,None,,None,12.839,,,,,,,,,,,,,,,,,,2019_Apr_24_1607,60.18234044227288,Cloud_Experiment_FR_REAL,001,43,
images/fcloud65-35_D1.2_9.tif,1.2,1,,,,,,,,,,,,,0,139,139,66,,,,,,,,,,,1,space,2.17417850008,2,0.618,,,,,,,,,,,,,,,,,,2019_Apr_24_1607,60.18234044227288,Cloud_Experiment_FR_REAL,001,43,
images/fcloud_D1.2_7.tif,1.2,0,,,,,,,,,,,,,0,140,140,16,,,,,,,,,,,1,None,,1,0.884,,,,,,,,,,,,,,,,,,2019_Apr_24_1607,60.18234044227288,Cloud_Experiment_FR_REAL,001,43,
images/fcloud_D1.4_8.tif,1.4,0,,,,,,,,,,,,,0,141,141,25,,,,,,,,,,,2,space,1.26518769993,2,0.584,,,,,,,,,,,,,,,,,,2019_Apr_24_1607,60.18234044227288,Cloud_Experiment_FR_REAL,001,43,
images/fcloud80-20_D1.1_8.tif,1.1,2,,,,,,,,,,,,,0,142,142,109,,,,,,,,,,,None,None,,None,9.859,,,,,,,,,,,,,,,,,,2019_Apr_24_1607,60.18234044227288,Cloud_Experiment_FR_REAL,001,43,
images/fcloud80-20_D1.8_7.tif,1.8,2,,,,,,,,,,,,,0,143,143,136,,,,,,,,,,,1,None,,1,0.552,,,,,,,,,,,,,,,,,,2019_Apr_24_1607,60.18234044227288,Cloud_Experiment_FR_REAL,001,43,
,,,,,,,,,,,,,,,,,,,,,,,,,1,7.555,,,,,,,,,,,,,,,,,,,,,,,,,2019_Apr_24_1607,60.18234044227288,Cloud_Experiment_FR_REAL,001,43,
,,,,,,,,,,,,,,,,,,,,,,,,,,,,,,,,,,2,,,,,,,,,,,,,,,,,2019_Apr_24_1607,60.18234044227288,Cloud_Experiment_FR_REAL,001,43,
,,,,,,,,,,,,,,,,,,,,,,,,,,,,,,,,,,,2,,,,,,,,,,,,,,,,2019_Apr_24_1607,60.18234044227288,Cloud_Experiment_FR_REAL,001,43,
,,,,,,,,,,,,,,,,,,,,,,,,,,,,,,,,,,,,1,,,,,,,,,,,,,,,2019_Apr_24_1607,60.18234044227288,Cloud_Experiment_FR_REAL,001,43,
,,,,,,,,,,,,,,,,,,,,,,,,,,,,,,,,,,,,,1,,,,,,,,,,,,,,2019_Apr_24_1607,60.18234044227288,Cloud_Experiment_FR_REAL,001,43,
,,,,,,,,,,,,,,,,,,,,,,,,,,,,,,,,,,,,,,1,,,,,,,,,,,,,2019_Apr_24_1607,60.18234044227288,Cloud_Experiment_FR_REAL,001,43,
,,,,,,,,,,,,,,,,,,,,,,,,,,,,,,,,,,,,,,,2,,,,,,,,,,,,2019_Apr_24_1607,60.18234044227288,Cloud_Experiment_FR_REAL,001,43,
,,,,,,,,,,,,,,,,,,,,,,,,,,,,,,,,,,,,,,,,1,,,,,,,,,,,2019_Apr_24_1607,60.18234044227288,Cloud_Experiment_FR_REAL,001,43,
,,,,,,,,,,,,,,,,,,,,,,,,,,,,,,,,,,,,,,,,,6,,,,,,,,,,2019_Apr_24_1607,60.18234044227288,Cloud_Experiment_FR_REAL,001,43,
,,,,,,,,,,,,,,,,,,,,,,,,,,,,,,,,,,,,,,,,,,3,,,,,,,,,2019_Apr_24_1607,60.18234044227288,Cloud_Experiment_FR_REAL,001,43,
,,,,,,,,,,,,,,,,,,,,,,,,,,,,,,,,,,,,,,,,,,,5,,,,,,,,2019_Apr_24_1607,60.18234044227288,Cloud_Experiment_FR_REAL,001,43,
,,,,,,,,,,,,,,,,,,,,,,,,,,,,,,,,,,,,,,,,,,,,,,,,,,3,2019_Apr_24_1607,60.18234044227288,Cloud_Experiment_FR_REAL,001,43,
