ImageFile,FD,Contrast,trials_4.thisRepN,trials_4.thisTrialN,trials_4.thisN,trials_4.thisIndex,trials.thisRepN,trials.thisTrialN,trials.thisN,trials.thisIndex,trials_2.thisRepN,trials_2.thisTrialN,trials_2.thisN,trials_2.thisIndex,trials_3.thisRepN,trials_3.thisTrialN,trials_3.thisN,trials_3.thisIndex,end_instructions.keys,end_instructions.rt,key_resp_4.keys,key_resp_4.rt,key_resp_6.keys,key_resp_6.rt,Fatigue.response,Fatigue.rt,key_resp_5.keys,key_resp_5.rt,n_objets.response,reaction_time.keys,vividness.response,vividness.rt,reaction_time.rt,Flow01.response,Flow02.response,Flow03.response,Flow04.response,Flow05.response,Flow06.response,Flow07.response,Flow08.response,Flow09.response,Flow10.response,key_resp_2.keys,key_resp_2.rt,key_resp_8.keys,key_resp_8.rt,key_resp_3.keys,key_resp_3.rt,Redondance_question.response,date,frameRate,expName,session,participant,
,,,,,,,,,,,,,,,,,,,space,6.5671895,,,,,,,,,,,,,,,,,,,,,,,,,,,,,,,2019_Aug_30_1558,59.673098830382635,Cloud_Experiment_FR_REAL,001,44,
,,,,,,,,,,,,,,,,,,,,,space,17.6521617,,,,,,,,,,,,,,,,,,,,,,,,,,,,,2019_Aug_30_1558,59.673098830382635,Cloud_Experiment_FR_REAL,001,44,
,,,,,,,,,,,,,,,,,,,,,,,space,8.5609304,,,,,,,,,,,,,,,,,,,,,,,,,,,2019_Aug_30_1558,59.673098830382635,Cloud_Experiment_FR_REAL,001,44,
,,,,,,,,,,,,,,,,,,,,,,,,,7,44.807,,,,,,,,,,,,,,,,,,,,,,,,,2019_Aug_30_1558,59.673098830382635,Cloud_Experiment_FR_REAL,001,44,
,,,,,,,,,,,,,,,,,,,,,,,,,,,space,3.3665812,,,,,,,,,,,,,,,,,,,,,,,2019_Aug_30_1558,59.673098830382635,Cloud_Experiment_FR_REAL,001,44,
pratique/fcloud_D0.8_30,0.8,0,0,0,0,0,,,,,,,,,,,,,,,,,,,,,,,1,None,2,2.851,,,,,,,,,,,,,,,,,,,2019_Aug_30_1558,59.673098830382635,Cloud_Experiment_FR_REAL,001,44,
pratique/fcloud80-20_D1_30,1.0,2,0,1,1,9,,,,,,,,,,,,,,,,,,,,,,,2,None,4,21.537,,,,,,,,,,,,,,,,,,,2019_Aug_30_1558,59.673098830382635,Cloud_Experiment_FR_REAL,001,44,
pratique/fcloud65-35_D1.2_30,1.2,1,0,2,2,3,,,,,,,,,,,,,,,,,,,,,,,None,None,None,32.623,,,,,,,,,,,,,,,,,,,2019_Aug_30_1558,59.673098830382635,Cloud_Experiment_FR_REAL,001,44,
pratique/fcloud_D1.6_28,1.6,0,0,3,3,5,,,,,,,,,,,,,,,,,,,,,,,1,space,4,1.435,4.2142403,,,,,,,,,,,,,,,,,,2019_Aug_30_1558,59.673098830382635,Cloud_Experiment_FR_REAL,001,44,
pratique/fcloud65-35_D1.9_29,1.9,1,0,4,4,7,,,,,,,,,,,,,,,,,,,,,,,1,space,4,1.934,5.4038737,,,,,,,,,,,,,,,,,,2019_Aug_30_1558,59.673098830382635,Cloud_Experiment_FR_REAL,001,44,
pratique/fcloud80-20_D1.8_30,1.8,2,0,5,5,4,,,,,,,,,,,,,,,,,,,,,,,None,None,None,10.959,,,,,,,,,,,,,,,,,,,2019_Aug_30_1558,59.673098830382635,Cloud_Experiment_FR_REAL,001,44,
pratique/fcloud80-20_D1.5_30,1.5,2,0,6,6,8,,,,,,,,,,,,,,,,,,,,,,,1,space,4,1.217,6.2738218,,,,,,,,,,,,,,,,,,2019_Aug_30_1558,59.673098830382635,Cloud_Experiment_FR_REAL,001,44,
pratique/fcloud_D1.4_30,1.4,0,0,7,7,1,,,,,,,,,,,,,,,,,,,,,,,1,space,5,1.302,2.56854550001,,,,,,,,,,,,,,,,,,2019_Aug_30_1558,59.673098830382635,Cloud_Experiment_FR_REAL,001,44,
pratique/fcloud65-35_D1.6_30,1.6,1,0,8,8,2,,,,,,,,,,,,,,,,,,,,,,,1,space,4,1.169,5.0431456,,,,,,,,,,,,,,,,,,2019_Aug_30_1558,59.673098830382635,Cloud_Experiment_FR_REAL,001,44,
pratique/fcloud65-35_D1.3_30,1.3,1,0,9,9,6,,,,,,,,,,,,,,,,,,,,,,,None,None,None,12.223,,,,,,,,,,,,,,,,,,,2019_Aug_30_1558,59.673098830382635,Cloud_Experiment_FR_REAL,001,44,
,,,,,,,,,,,,,,,,,,,,,,,,,,,,,,,,,,6,,,,,,,,,,,,,,,,,2019_Aug_30_1558,59.673098830382635,Cloud_Experiment_FR_REAL,001,44,
,,,,,,,,,,,,,,,,,,,,,,,,,,,,,,,,,,,5,,,,,,,,,,,,,,,,2019_Aug_30_1558,59.673098830382635,Cloud_Experiment_FR_REAL,001,44,
,,,,,,,,,,,,,,,,,,,,,,,,,,,,,,,,,,,,6,,,,,,,,,,,,,,,2019_Aug_30_1558,59.673098830382635,Cloud_Experiment_FR_REAL,001,44,
,,,,,,,,,,,,,,,,,,,,,,,,,,,,,,,,,,,,,7,,,,,,,,,,,,,,2019_Aug_30_1558,59.673098830382635,Cloud_Experiment_FR_REAL,001,44,
,,,,,,,,,,,,,,,,,,,,,,,,,,,,,,,,,,,,,,7,,,,,,,,,,,,,2019_Aug_30_1558,59.673098830382635,Cloud_Experiment_FR_REAL,001,44,
,,,,,,,,,,,,,,,,,,,,,,,,,,,,,,,,,,,,,,,6,,,,,,,,,,,,2019_Aug_30_1558,59.673098830382635,Cloud_Experiment_FR_REAL,001,44,
,,,,,,,,,,,,,,,,,,,,,,,,,,,,,,,,,,,,,,,,5,,,,,,,,,,,2019_Aug_30_1558,59.673098830382635,Cloud_Experiment_FR_REAL,001,44,
,,,,,,,,,,,,,,,,,,,,,,,,,,,,,,,,,,,,,,,,,7,,,,,,,,,,2019_Aug_30_1558,59.673098830382635,Cloud_Experiment_FR_REAL,001,44,
,,,,,,,,,,,,,,,,,,,,,,,,,,,,,,,,,,,,,,,,,,7,,,,,,,,,2019_Aug_30_1558,59.673098830382635,Cloud_Experiment_FR_REAL,001,44,
,,,,,,,,,,,,,,,,,,,,,,,,,,,,,,,,,,,,,,,,,,,2,,,,,,,,2019_Aug_30_1558,59.673098830382635,Cloud_Experiment_FR_REAL,001,44,
,,,,,,,,,,,,,,,,,,,,,,,,,,,,,,,,,,,,,,,,,,,,space,1.0848183,,,,,,2019_Aug_30_1558,59.673098830382635,Cloud_Experiment_FR_REAL,001,44,
images/fcloud80-20_D1.7_3.tif,1.7,2,,,,,0,0,0,101,,,,,,,,,,,,,,,,,,,1,space,5,0.885,2.9566043,,,,,,,,,,,,,,,,,,2019_Aug_30_1558,59.673098830382635,Cloud_Experiment_FR_REAL,001,44,
images/fcloud65-35_D1.3_3.tif,1.3,1,,,,,0,1,1,53,,,,,,,,,,,,,,,,,,,1,space,3,2.201,1.66513160001,,,,,,,,,,,,,,,,,,2019_Aug_30_1558,59.673098830382635,Cloud_Experiment_FR_REAL,001,44,
images/fcloud65-35_D1.9_3.tif,1.9,1,,,,,0,2,2,71,,,,,,,,,,,,,,,,,,,1,None,3,0.983,,,,,,,,,,,,,,,,,,,2019_Aug_30_1558,59.673098830382635,Cloud_Experiment_FR_REAL,001,44,
images/fcloud_D1.5_3.tif,1.5,0,,,,,0,3,3,23,,,,,,,,,,,,,,,,,,,1,space,4,1.434,3.9778077,,,,,,,,,,,,,,,,,,2019_Aug_30_1558,59.673098830382635,Cloud_Experiment_FR_REAL,001,44,
images/fcloud_D1.5_2.tif,1.5,0,,,,,0,4,4,22,,,,,,,,,,,,,,,,,,,1,space,2,0.869,6.7235831,,,,,,,,,,,,,,,,,,2019_Aug_30_1558,59.673098830382635,Cloud_Experiment_FR_REAL,001,44,
images/fcloud65-35_D0.8_3.tif,0.8,1,,,,,0,5,5,38,,,,,,,,,,,,,,,,,,,1,space,1,3.583,5.7016751,,,,,,,,,,,,,,,,,,2019_Aug_30_1558,59.673098830382635,Cloud_Experiment_FR_REAL,001,44,
images/fcloud80-20_D0.8_3.tif,0.8,2,,,,,0,6,6,74,,,,,,,,,,,,,,,,,,,1,space,2,1.085,6.28914209999,,,,,,,,,,,,,,,,,,2019_Aug_30_1558,59.673098830382635,Cloud_Experiment_FR_REAL,001,44,
images/fcloud80-20_D1.2_1.tif,1.2,2,,,,,0,7,7,84,,,,,,,,,,,,,,,,,,,2,space,4,0.917,2.0723018,,,,,,,,,,,,,,,,,,2019_Aug_30_1558,59.673098830382635,Cloud_Experiment_FR_REAL,001,44,
images/fcloud80-20_D1.1_1.tif,1.1,2,,,,,0,8,8,81,,,,,,,,,,,,,,,,,,,1,space,3,0.768,5.4980113,,,,,,,,,,,,,,,,,,2019_Aug_30_1558,59.673098830382635,Cloud_Experiment_FR_REAL,001,44,
images/fcloud65-35_D0.8_1.tif,0.8,1,,,,,0,9,9,36,,,,,,,,,,,,,,,,,,,1,space,2,0.834,4.8509639,,,,,,,,,,,,,,,,,,2019_Aug_30_1558,59.673098830382635,Cloud_Experiment_FR_REAL,001,44,
images/fcloud_D1.7_3.tif,1.7,0,,,,,0,10,10,29,,,,,,,,,,,,,,,,,,,2,space,4,1.535,2.86663829999,,,,,,,,,,,,,,,,,,2019_Aug_30_1558,59.673098830382635,Cloud_Experiment_FR_REAL,001,44,
images/fcloud_D1.5_1.tif,1.5,0,,,,,0,11,11,21,,,,,,,,,,,,,,,,,,,1,space,3,1.718,4.5949666,,,,,,,,,,,,,,,,,,2019_Aug_30_1558,59.673098830382635,Cloud_Experiment_FR_REAL,001,44,
images/fcloud_D1.4_1.tif,1.4,0,,,,,0,12,12,18,,,,,,,,,,,,,,,,,,,1,space,2,1.119,4.5153661,,,,,,,,,,,,,,,,,,2019_Aug_30_1558,59.673098830382635,Cloud_Experiment_FR_REAL,001,44,
images/fcloud_D1.4_2.tif,1.4,0,,,,,0,13,13,19,,,,,,,,,,,,,,,,,,,1,space,5,0.668,1.6989904,,,,,,,,,,,,,,,,,,2019_Aug_30_1558,59.673098830382635,Cloud_Experiment_FR_REAL,001,44,
images/fcloud_D1.9_3.tif,1.9,0,,,,,0,14,14,35,,,,,,,,,,,,,,,,,,,2,space,3,1.868,3.8789981,,,,,,,,,,,,,,,,,,2019_Aug_30_1558,59.673098830382635,Cloud_Experiment_FR_REAL,001,44,
images/fcloud_D1.6_3.tif,1.6,0,,,,,0,15,15,26,,,,,,,,,,,,,,,,,,,2,space,4,1.335,2.3358587,,,,,,,,,,,,,,,,,,2019_Aug_30_1558,59.673098830382635,Cloud_Experiment_FR_REAL,001,44,
images/fcloud65-35_D1.2_3.tif,1.2,1,,,,,0,16,16,50,,,,,,,,,,,,,,,,,,,3,None,1,1.518,,,,,,,,,,,,,,,,,,,2019_Aug_30_1558,59.673098830382635,Cloud_Experiment_FR_REAL,001,44,
images/fcloud65-35_D1.2_2.tif,1.2,1,,,,,0,17,17,49,,,,,,,,,,,,,,,,,,,2,space,2,1.118,4.14014269999,,,,,,,,,,,,,,,,,,2019_Aug_30_1558,59.673098830382635,Cloud_Experiment_FR_REAL,001,44,
images/fcloud_D1.4_3.tif,1.4,0,,,,,0,18,18,20,,,,,,,,,,,,,,,,,,,2,space,5,0.785,1.82583240001,,,,,,,,,,,,,,,,,,2019_Aug_30_1558,59.673098830382635,Cloud_Experiment_FR_REAL,001,44,
images/fcloud65-35_D1.6_2.tif,1.6,1,,,,,0,19,19,61,,,,,,,,,,,,,,,,,,,2,space,5,1.418,1.4567886,,,,,,,,,,,,,,,,,,2019_Aug_30_1558,59.673098830382635,Cloud_Experiment_FR_REAL,001,44,
images/fcloud65-35_D1.2_1.tif,1.2,1,,,,,0,20,20,48,,,,,,,,,,,,,,,,,,,1,space,2,0.686,6.7708281,,,,,,,,,,,,,,,,,,2019_Aug_30_1558,59.673098830382635,Cloud_Experiment_FR_REAL,001,44,
images/fcloud80-20_D1.7_2.tif,1.7,2,,,,,0,21,21,100,,,,,,,,,,,,,,,,,,,2,space,3,0.634,3.7688849,,,,,,,,,,,,,,,,,,2019_Aug_30_1558,59.673098830382635,Cloud_Experiment_FR_REAL,001,44,
images/fcloud65-35_D1.1_3.tif,1.1,1,,,,,0,22,22,47,,,,,,,,,,,,,,,,,,,1,space,1,0.736,5.3837848,,,,,,,,,,,,,,,,,,2019_Aug_30_1558,59.673098830382635,Cloud_Experiment_FR_REAL,001,44,
images/fcloud_D1.1_2.tif,1.1,0,,,,,0,23,23,10,,,,,,,,,,,,,,,,,,,1,space,4,1.235,3.7145615,,,,,,,,,,,,,,,,,,2019_Aug_30_1558,59.673098830382635,Cloud_Experiment_FR_REAL,001,44,
images/fcloud_D1.1_1.tif,1.1,0,,,,,0,24,24,9,,,,,,,,,,,,,,,,,,,3,space,4,1.384,3.9746419,,,,,,,,,,,,,,,,,,2019_Aug_30_1558,59.673098830382635,Cloud_Experiment_FR_REAL,001,44,
images/fcloud65-35_D1.5_1.tif,1.5,1,,,,,0,25,25,57,,,,,,,,,,,,,,,,,,,1,space,3,1.785,2.9587764,,,,,,,,,,,,,,,,,,2019_Aug_30_1558,59.673098830382635,Cloud_Experiment_FR_REAL,001,44,
images/fcloud65-35_D1.3_1.tif,1.3,1,,,,,0,26,26,51,,,,,,,,,,,,,,,,,,,1,space,3,1.3,2.8688411,,,,,,,,,,,,,,,,,,2019_Aug_30_1558,59.673098830382635,Cloud_Experiment_FR_REAL,001,44,
images/fcloud80-20_D0.9_2.tif,0.9,2,,,,,0,27,27,76,,,,,,,,,,,,,,,,,,,1,space,4,0.82,3.2768367,,,,,,,,,,,,,,,,,,2019_Aug_30_1558,59.673098830382635,Cloud_Experiment_FR_REAL,001,44,
images/fcloud65-35_D1_2.tif,1.0,1,,,,,0,28,28,43,,,,,,,,,,,,,,,,,,,2,space,2,1.119,3.3395749,,,,,,,,,,,,,,,,,,2019_Aug_30_1558,59.673098830382635,Cloud_Experiment_FR_REAL,001,44,
images/fcloud_D0.9_2.tif,0.9,0,,,,,0,29,29,4,,,,,,,,,,,,,,,,,,,1,space,5,0.702,1.3386482,,,,,,,,,,,,,,,,,,2019_Aug_30_1558,59.673098830382635,Cloud_Experiment_FR_REAL,001,44,
images/fcloud80-20_D1.8_1.tif,1.8,2,,,,,0,30,30,102,,,,,,,,,,,,,,,,,,,1,space,3,0.768,3.7620367,,,,,,,,,,,,,,,,,,2019_Aug_30_1558,59.673098830382635,Cloud_Experiment_FR_REAL,001,44,
images/fcloud80-20_D1_3.tif,1.0,2,,,,,0,31,31,80,,,,,,,,,,,,,,,,,,,2,space,3,1.534,2.0041746,,,,,,,,,,,,,,,,,,2019_Aug_30_1558,59.673098830382635,Cloud_Experiment_FR_REAL,001,44,
images/fcloud_D0.8_2.tif,0.8,0,,,,,0,32,32,1,,,,,,,,,,,,,,,,,,,2,space,2,0.969,4.0221039,,,,,,,,,,,,,,,,,,2019_Aug_30_1558,59.673098830382635,Cloud_Experiment_FR_REAL,001,44,
images/fcloud80-20_D1.4_3.tif,1.4,2,,,,,0,33,33,92,,,,,,,,,,,,,,,,,,,2,space,2,0.686,1.960128,,,,,,,,,,,,,,,,,,2019_Aug_30_1558,59.673098830382635,Cloud_Experiment_FR_REAL,001,44,
images/fcloud80-20_D1_2.tif,1.0,2,,,,,0,34,34,79,,,,,,,,,,,,,,,,,,,1,space,3,1.701,4.2463194,,,,,,,,,,,,,,,,,,2019_Aug_30_1558,59.673098830382635,Cloud_Experiment_FR_REAL,001,44,
images/fcloud65-35_D1.8_1.tif,1.8,1,,,,,0,35,35,66,,,,,,,,,,,,,,,,,,,3,space,5,0.952,2.1841534,,,,,,,,,,,,,,,,,,2019_Aug_30_1558,59.673098830382635,Cloud_Experiment_FR_REAL,001,44,
images/fcloud_D1.6_1.tif,1.6,0,,,,,0,36,36,24,,,,,,,,,,,,,,,,,,,3,space,5,1.434,2.7801267,,,,,,,,,,,,,,,,,,2019_Aug_30_1558,59.673098830382635,Cloud_Experiment_FR_REAL,001,44,
images/fcloud_D1.2_1.tif,1.2,0,,,,,0,37,37,12,,,,,,,,,,,,,,,,,,,1,space,2,0.752,4.7851581,,,,,,,,,,,,,,,,,,2019_Aug_30_1558,59.673098830382635,Cloud_Experiment_FR_REAL,001,44,
images/fcloud65-35_D1.7_3.tif,1.7,1,,,,,0,38,38,65,,,,,,,,,,,,,,,,,,,2,space,4,1.036,2.9730135,,,,,,,,,,,,,,,,,,2019_Aug_30_1558,59.673098830382635,Cloud_Experiment_FR_REAL,001,44,
images/fcloud_D1.6_2.tif,1.6,0,,,,,0,39,39,25,,,,,,,,,,,,,,,,,,,1,space,5,1.452,2.0325033,,,,,,,,,,,,,,,,,,2019_Aug_30_1558,59.673098830382635,Cloud_Experiment_FR_REAL,001,44,
images/fcloud65-35_D1.4_1.tif,1.4,1,,,,,0,40,40,54,,,,,,,,,,,,,,,,,,,1,space,5,0.651,1.28196979999,,,,,,,,,,,,,,,,,,2019_Aug_30_1558,59.673098830382635,Cloud_Experiment_FR_REAL,001,44,
images/fcloud_D1.3_1.tif,1.3,0,,,,,0,41,41,15,,,,,,,,,,,,,,,,,,,1,space,3,1.634,6.42575140001,,,,,,,,,,,,,,,,,,2019_Aug_30_1558,59.673098830382635,Cloud_Experiment_FR_REAL,001,44,
images/fcloud65-35_D0.9_3.tif,0.9,1,,,,,0,42,42,41,,,,,,,,,,,,,,,,,,,2,space,4,0.552,3.3241254,,,,,,,,,,,,,,,,,,2019_Aug_30_1558,59.673098830382635,Cloud_Experiment_FR_REAL,001,44,
images/fcloud_D1.8_1.tif,1.8,0,,,,,0,43,43,30,,,,,,,,,,,,,,,,,,,3,space,3,1.201,4.4598038,,,,,,,,,,,,,,,,,,2019_Aug_30_1558,59.673098830382635,Cloud_Experiment_FR_REAL,001,44,
images/fcloud80-20_D0.8_2.tif,0.8,2,,,,,0,44,44,73,,,,,,,,,,,,,,,,,,,1,space,5,0.652,1.2827775,,,,,,,,,,,,,,,,,,2019_Aug_30_1558,59.673098830382635,Cloud_Experiment_FR_REAL,001,44,
images/fcloud80-20_D1.4_2.tif,1.4,2,,,,,0,45,45,91,,,,,,,,,,,,,,,,,,,1,space,3,1.234,2.65121529999,,,,,,,,,,,,,,,,,,2019_Aug_30_1558,59.673098830382635,Cloud_Experiment_FR_REAL,001,44,
images/fcloud65-35_D0.8_2.tif,0.8,1,,,,,0,46,46,37,,,,,,,,,,,,,,,,,,,1,space,5,0.802,4.6271484,,,,,,,,,,,,,,,,,,2019_Aug_30_1558,59.673098830382635,Cloud_Experiment_FR_REAL,001,44,
images/fcloud65-35_D1.1_1.tif,1.1,1,,,,,0,47,47,45,,,,,,,,,,,,,,,,,,,1,space,5,0.585,1.7867425,,,,,,,,,,,,,,,,,,2019_Aug_30_1558,59.673098830382635,Cloud_Experiment_FR_REAL,001,44,
images/fcloud80-20_D1.5_3.tif,1.5,2,,,,,0,48,48,95,,,,,,,,,,,,,,,,,,,2,space,4,1.352,3.781656,,,,,,,,,,,,,,,,,,2019_Aug_30_1558,59.673098830382635,Cloud_Experiment_FR_REAL,001,44,
images/fcloud_D1_1.tif,1.0,0,,,,,0,49,49,6,,,,,,,,,,,,,,,,,,,3,space,3,1.634,2.1721456,,,,,,,,,,,,,,,,,,2019_Aug_30_1558,59.673098830382635,Cloud_Experiment_FR_REAL,001,44,
images/fcloud65-35_D1.6_3.tif,1.6,1,,,,,0,50,50,62,,,,,,,,,,,,,,,,,,,2,space,3,1.22,3.9703242,,,,,,,,,,,,,,,,,,2019_Aug_30_1558,59.673098830382635,Cloud_Experiment_FR_REAL,001,44,
images/fcloud65-35_D1.4_2.tif,1.4,1,,,,,0,51,51,55,,,,,,,,,,,,,,,,,,,1,space,3,1.518,4.0511715,,,,,,,,,,,,,,,,,,2019_Aug_30_1558,59.673098830382635,Cloud_Experiment_FR_REAL,001,44,
images/fcloud80-20_D0.8_1.tif,0.8,2,,,,,0,52,52,72,,,,,,,,,,,,,,,,,,,2,space,2,0.752,1.6323731,,,,,,,,,,,,,,,,,,2019_Aug_30_1558,59.673098830382635,Cloud_Experiment_FR_REAL,001,44,
images/fcloud80-20_D1.3_3.tif,1.3,2,,,,,0,53,53,89,,,,,,,,,,,,,,,,,,,1,space,1,0.918,4.25368,,,,,,,,,,,,,,,,,,2019_Aug_30_1558,59.673098830382635,Cloud_Experiment_FR_REAL,001,44,
images/fcloud65-35_D1.1_2.tif,1.1,1,,,,,0,54,54,46,,,,,,,,,,,,,,,,,,,1,space,2,1.002,7.1036094,,,,,,,,,,,,,,,,,,2019_Aug_30_1558,59.673098830382635,Cloud_Experiment_FR_REAL,001,44,
images/fcloud_D1.8_3.tif,1.8,0,,,,,0,55,55,32,,,,,,,,,,,,,,,,,,,2,space,3,1.186,3.3528505,,,,,,,,,,,,,,,,,,2019_Aug_30_1558,59.673098830382635,Cloud_Experiment_FR_REAL,001,44,
images/fcloud65-35_D1.9_2.tif,1.9,1,,,,,0,56,56,70,,,,,,,,,,,,,,,,,,,2,space,4,1.785,1.2749875,,,,,,,,,,,,,,,,,,2019_Aug_30_1558,59.673098830382635,Cloud_Experiment_FR_REAL,001,44,
images/fcloud65-35_D1.5_3.tif,1.5,1,,,,,0,57,57,59,,,,,,,,,,,,,,,,,,,1,space,5,0.52,3.0526262,,,,,,,,,,,,,,,,,,2019_Aug_30_1558,59.673098830382635,Cloud_Experiment_FR_REAL,001,44,
images/fcloud65-35_D1.7_2.tif,1.7,1,,,,,0,58,58,64,,,,,,,,,,,,,,,,,,,1,space,5,0.553,1.5332625,,,,,,,,,,,,,,,,,,2019_Aug_30_1558,59.673098830382635,Cloud_Experiment_FR_REAL,001,44,
images/fcloud80-20_D1.6_1.tif,1.6,2,,,,,0,59,59,96,,,,,,,,,,,,,,,,,,,2,space,4,0.818,2.2279916,,,,,,,,,,,,,,,,,,2019_Aug_30_1558,59.673098830382635,Cloud_Experiment_FR_REAL,001,44,
images/fcloud80-20_D1.9_2.tif,1.9,2,,,,,0,60,60,106,,,,,,,,,,,,,,,,,,,1,space,2,2.118,4.07394040001,,,,,,,,,,,,,,,,,,2019_Aug_30_1558,59.673098830382635,Cloud_Experiment_FR_REAL,001,44,
images/fcloud_D1.3_3.tif,1.3,0,,,,,0,61,61,17,,,,,,,,,,,,,,,,,,,1,space,5,0.653,1.3238853,,,,,,,,,,,,,,,,,,2019_Aug_30_1558,59.673098830382635,Cloud_Experiment_FR_REAL,001,44,
images/fcloud80-20_D1.2_3.tif,1.2,2,,,,,0,62,62,86,,,,,,,,,,,,,,,,,,,2,space,3,0.619,3.4170925,,,,,,,,,,,,,,,,,,2019_Aug_30_1558,59.673098830382635,Cloud_Experiment_FR_REAL,001,44,
images/fcloud65-35_D0.9_1.tif,0.9,1,,,,,0,63,63,39,,,,,,,,,,,,,,,,,,,1,space,2,0.585,5.49305,,,,,,,,,,,,,,,,,,2019_Aug_30_1558,59.673098830382635,Cloud_Experiment_FR_REAL,001,44,
images/fcloud_D0.9_3.tif,0.9,0,,,,,0,64,64,5,,,,,,,,,,,,,,,,,,,3,space,3,1.784,2.5450537,,,,,,,,,,,,,,,,,,2019_Aug_30_1558,59.673098830382635,Cloud_Experiment_FR_REAL,001,44,
images/fcloud80-20_D1.7_1.tif,1.7,2,,,,,0,65,65,99,,,,,,,,,,,,,,,,,,,1,space,4,0.668,1.3159146,,,,,,,,,,,,,,,,,,2019_Aug_30_1558,59.673098830382635,Cloud_Experiment_FR_REAL,001,44,
images/fcloud_D1.2_3.tif,1.2,0,,,,,0,66,66,14,,,,,,,,,,,,,,,,,,,1,space,3,0.818,5.751493,,,,,,,,,,,,,,,,,,2019_Aug_30_1558,59.673098830382635,Cloud_Experiment_FR_REAL,001,44,
images/fcloud_D1_2.tif,1.0,0,,,,,0,67,67,7,,,,,,,,,,,,,,,,,,,1,space,3,1.602,2.5743892,,,,,,,,,,,,,,,,,,2019_Aug_30_1558,59.673098830382635,Cloud_Experiment_FR_REAL,001,44,
images/fcloud_D0.8_3.tif,0.8,0,,,,,0,68,68,2,,,,,,,,,,,,,,,,,,,2,space,4,0.703,1.9643026,,,,,,,,,,,,,,,,,,2019_Aug_30_1558,59.673098830382635,Cloud_Experiment_FR_REAL,001,44,
images/fcloud80-20_D1.3_1.tif,1.3,2,,,,,0,69,69,87,,,,,,,,,,,,,,,,,,,1,space,2,0.888,4.4203443,,,,,,,,,,,,,,,,,,2019_Aug_30_1558,59.673098830382635,Cloud_Experiment_FR_REAL,001,44,
images/fcloud65-35_D1_3.tif,1.0,1,,,,,0,70,70,44,,,,,,,,,,,,,,,,,,,3,space,2,1.384,3.2363311,,,,,,,,,,,,,,,,,,2019_Aug_30_1558,59.673098830382635,Cloud_Experiment_FR_REAL,001,44,
images/fcloud65-35_D1.3_2.tif,1.3,1,,,,,0,71,71,52,,,,,,,,,,,,,,,,,,,1,space,3,0.601,4.8460844,,,,,,,,,,,,,,,,,,2019_Aug_30_1558,59.673098830382635,Cloud_Experiment_FR_REAL,001,44,
images/fcloud_D1.7_2.tif,1.7,0,,,,,0,72,72,28,,,,,,,,,,,,,,,,,,,1,space,3,0.852,3.87816850001,,,,,,,,,,,,,,,,,,2019_Aug_30_1558,59.673098830382635,Cloud_Experiment_FR_REAL,001,44,
images/fcloud80-20_D1.8_2.tif,1.8,2,,,,,0,73,73,103,,,,,,,,,,,,,,,,,,,1,space,5,0.652,1.9205646,,,,,,,,,,,,,,,,,,2019_Aug_30_1558,59.673098830382635,Cloud_Experiment_FR_REAL,001,44,
images/fcloud80-20_D1.9_3.tif,1.9,2,,,,,0,74,74,107,,,,,,,,,,,,,,,,,,,3,space,4,1.25,2.0099294,,,,,,,,,,,,,,,,,,2019_Aug_30_1558,59.673098830382635,Cloud_Experiment_FR_REAL,001,44,
images/fcloud80-20_D0.9_3.tif,0.9,2,,,,,0,75,75,77,,,,,,,,,,,,,,,,,,,2,space,3,0.553,4.44323780001,,,,,,,,,,,,,,,,,,2019_Aug_30_1558,59.673098830382635,Cloud_Experiment_FR_REAL,001,44,
images/fcloud_D0.8_1.tif,0.8,0,,,,,0,76,76,0,,,,,,,,,,,,,,,,,,,1,space,4,0.868,1.3084721,,,,,,,,,,,,,,,,,,2019_Aug_30_1558,59.673098830382635,Cloud_Experiment_FR_REAL,001,44,
images/fcloud_D1.9_1.tif,1.9,0,,,,,0,77,77,33,,,,,,,,,,,,,,,,,,,3,space,3,0.919,1.3165134,,,,,,,,,,,,,,,,,,2019_Aug_30_1558,59.673098830382635,Cloud_Experiment_FR_REAL,001,44,
images/fcloud80-20_D0.9_1.tif,0.9,2,,,,,0,78,78,75,,,,,,,,,,,,,,,,,,,1,space,1,1.802,4.9684825,,,,,,,,,,,,,,,,,,2019_Aug_30_1558,59.673098830382635,Cloud_Experiment_FR_REAL,001,44,
images/fcloud_D1.7_1.tif,1.7,0,,,,,0,79,79,27,,,,,,,,,,,,,,,,,,,2,space,4,1.369,2.0735527,,,,,,,,,,,,,,,,,,2019_Aug_30_1558,59.673098830382635,Cloud_Experiment_FR_REAL,001,44,
images/fcloud80-20_D1.5_2.tif,1.5,2,,,,,0,80,80,94,,,,,,,,,,,,,,,,,,,1,space,5,0.669,3.2347861,,,,,,,,,,,,,,,,,,2019_Aug_30_1558,59.673098830382635,Cloud_Experiment_FR_REAL,001,44,
images/fcloud65-35_D1.9_1.tif,1.9,1,,,,,0,81,81,69,,,,,,,,,,,,,,,,,,,2,space,4,1.02,4.255096,,,,,,,,,,,,,,,,,,2019_Aug_30_1558,59.673098830382635,Cloud_Experiment_FR_REAL,001,44,
images/fcloud80-20_D1.1_3.tif,1.1,2,,,,,0,82,82,83,,,,,,,,,,,,,,,,,,,2,space,3,0.702,3.965557,,,,,,,,,,,,,,,,,,2019_Aug_30_1558,59.673098830382635,Cloud_Experiment_FR_REAL,001,44,
images/fcloud65-35_D1_1.tif,1.0,1,,,,,0,83,83,42,,,,,,,,,,,,,,,,,,,2,space,3,1.369,1.0155945,,,,,,,,,,,,,,,,,,2019_Aug_30_1558,59.673098830382635,Cloud_Experiment_FR_REAL,001,44,
images/fcloud80-20_D1.9_1.tif,1.9,2,,,,,0,84,84,105,,,,,,,,,,,,,,,,,,,1,space,4,0.586,4.0174124,,,,,,,,,,,,,,,,,,2019_Aug_30_1558,59.673098830382635,Cloud_Experiment_FR_REAL,001,44,
images/fcloud80-20_D1.6_3.tif,1.6,2,,,,,0,85,85,98,,,,,,,,,,,,,,,,,,,2,space,3,1.153,3.3115118,,,,,,,,,,,,,,,,,,2019_Aug_30_1558,59.673098830382635,Cloud_Experiment_FR_REAL,001,44,
images/fcloud65-35_D1.6_1.tif,1.6,1,,,,,0,86,86,60,,,,,,,,,,,,,,,,,,,5,space,5,3.05,2.077945,,,,,,,,,,,,,,,,,,2019_Aug_30_1558,59.673098830382635,Cloud_Experiment_FR_REAL,001,44,
images/fcloud_D1.3_2.tif,1.3,0,,,,,0,87,87,16,,,,,,,,,,,,,,,,,,,2,space,5,0.702,2.5472772,,,,,,,,,,,,,,,,,,2019_Aug_30_1558,59.673098830382635,Cloud_Experiment_FR_REAL,001,44,
images/fcloud80-20_D1.4_1.tif,1.4,2,,,,,0,88,88,90,,,,,,,,,,,,,,,,,,,1,space,4,0.952,2.110237,,,,,,,,,,,,,,,,,,2019_Aug_30_1558,59.673098830382635,Cloud_Experiment_FR_REAL,001,44,
images/fcloud80-20_D1.8_3.tif,1.8,2,,,,,0,89,89,104,,,,,,,,,,,,,,,,,,,1,space,3,1.019,4.6371093,,,,,,,,,,,,,,,,,,2019_Aug_30_1558,59.673098830382635,Cloud_Experiment_FR_REAL,001,44,
images/fcloud_D1.9_2.tif,1.9,0,,,,,0,90,90,34,,,,,,,,,,,,,,,,,,,1,space,4,0.686,3.9429256,,,,,,,,,,,,,,,,,,2019_Aug_30_1558,59.673098830382635,Cloud_Experiment_FR_REAL,001,44,
images/fcloud65-35_D1.8_2.tif,1.8,1,,,,,0,91,91,67,,,,,,,,,,,,,,,,,,,5,space,5,0.585,2.165492,,,,,,,,,,,,,,,,,,2019_Aug_30_1558,59.673098830382635,Cloud_Experiment_FR_REAL,001,44,
images/fcloud_D0.9_1.tif,0.9,0,,,,,0,92,92,3,,,,,,,,,,,,,,,,,,,2,space,3,1.018,5.404565,,,,,,,,,,,,,,,,,,2019_Aug_30_1558,59.673098830382635,Cloud_Experiment_FR_REAL,001,44,
images/fcloud65-35_D0.9_2.tif,0.9,1,,,,,0,93,93,40,,,,,,,,,,,,,,,,,,,2,space,4,0.619,2.82469530001,,,,,,,,,,,,,,,,,,2019_Aug_30_1558,59.673098830382635,Cloud_Experiment_FR_REAL,001,44,
images/fcloud65-35_D1.4_3.tif,1.4,1,,,,,0,94,94,56,,,,,,,,,,,,,,,,,,,5,space,4,3.533,4.4855707,,,,,,,,,,,,,,,,,,2019_Aug_30_1558,59.673098830382635,Cloud_Experiment_FR_REAL,001,44,
images/fcloud80-20_D1_1.tif,1.0,2,,,,,0,95,95,78,,,,,,,,,,,,,,,,,,,1,space,3,0.568,1.755858,,,,,,,,,,,,,,,,,,2019_Aug_30_1558,59.673098830382635,Cloud_Experiment_FR_REAL,001,44,
images/fcloud_D1_3.tif,1.0,0,,,,,0,96,96,8,,,,,,,,,,,,,,,,,,,1,space,4,0.62,3.80304509999,,,,,,,,,,,,,,,,,,2019_Aug_30_1558,59.673098830382635,Cloud_Experiment_FR_REAL,001,44,
images/fcloud65-35_D1.5_2.tif,1.5,1,,,,,0,97,97,58,,,,,,,,,,,,,,,,,,,2,space,4,0.769,1.2496581,,,,,,,,,,,,,,,,,,2019_Aug_30_1558,59.673098830382635,Cloud_Experiment_FR_REAL,001,44,
images/fcloud65-35_D1.7_1.tif,1.7,1,,,,,0,98,98,63,,,,,,,,,,,,,,,,,,,2,space,3,1.035,7.2257322,,,,,,,,,,,,,,,,,,2019_Aug_30_1558,59.673098830382635,Cloud_Experiment_FR_REAL,001,44,
images/fcloud_D1.1_3.tif,1.1,0,,,,,0,99,99,11,,,,,,,,,,,,,,,,,,,2,space,3,0.602,2.4102429,,,,,,,,,,,,,,,,,,2019_Aug_30_1558,59.673098830382635,Cloud_Experiment_FR_REAL,001,44,
images/fcloud_D1.2_2.tif,1.2,0,,,,,0,100,100,13,,,,,,,,,,,,,,,,,,,3,space,4,1.219,4.4155968,,,,,,,,,,,,,,,,,,2019_Aug_30_1558,59.673098830382635,Cloud_Experiment_FR_REAL,001,44,
images/fcloud_D1.8_2.tif,1.8,0,,,,,0,101,101,31,,,,,,,,,,,,,,,,,,,3,space,5,0.551,4.0075728,,,,,,,,,,,,,,,,,,2019_Aug_30_1558,59.673098830382635,Cloud_Experiment_FR_REAL,001,44,
images/fcloud80-20_D1.3_2.tif,1.3,2,,,,,0,102,102,88,,,,,,,,,,,,,,,,,,,1,space,3,0.835,2.9739687,,,,,,,,,,,,,,,,,,2019_Aug_30_1558,59.673098830382635,Cloud_Experiment_FR_REAL,001,44,
images/fcloud80-20_D1.5_1.tif,1.5,2,,,,,0,103,103,93,,,,,,,,,,,,,,,,,,,2,space,5,0.735,1.7520424,,,,,,,,,,,,,,,,,,2019_Aug_30_1558,59.673098830382635,Cloud_Experiment_FR_REAL,001,44,
images/fcloud80-20_D1.6_2.tif,1.6,2,,,,,0,104,104,97,,,,,,,,,,,,,,,,,,,2,space,4,0.635,1.5995308,,,,,,,,,,,,,,,,,,2019_Aug_30_1558,59.673098830382635,Cloud_Experiment_FR_REAL,001,44,
images/fcloud80-20_D1.2_2.tif,1.2,2,,,,,0,105,105,85,,,,,,,,,,,,,,,,,,,1,space,4,1.635,5.4404074,,,,,,,,,,,,,,,,,,2019_Aug_30_1558,59.673098830382635,Cloud_Experiment_FR_REAL,001,44,
images/fcloud80-20_D1.1_2.tif,1.1,2,,,,,0,106,106,82,,,,,,,,,,,,,,,,,,,1,space,3,0.735,2.7011552,,,,,,,,,,,,,,,,,,2019_Aug_30_1558,59.673098830382635,Cloud_Experiment_FR_REAL,001,44,
images/fcloud65-35_D1.8_3.tif,1.8,1,,,,,0,107,107,68,,,,,,,,,,,,,,,,,,,5,space,5,1.567,3.1196573,,,,,,,,,,,,,,,,,,2019_Aug_30_1558,59.673098830382635,Cloud_Experiment_FR_REAL,001,44,
,,,,,,,,,,,,,,,,,,,,,,,,,,,,,,,,,,,,,,,,,,,,,,space,3.0998479,,,,2019_Aug_30_1558,59.673098830382635,Cloud_Experiment_FR_REAL,001,44,
,,,,,,,,,,,,,,,,,,,,,,,,,8,8.303,,,,,,,,,,,,,,,,,,,,,,,,,2019_Aug_30_1558,59.673098830382635,Cloud_Experiment_FR_REAL,001,44,
,,,,,,,,,,,,,,,,,,,,,,,,,,,,,,,,,,7,,,,,,,,,,,,,,,,,2019_Aug_30_1558,59.673098830382635,Cloud_Experiment_FR_REAL,001,44,
,,,,,,,,,,,,,,,,,,,,,,,,,,,,,,,,,,,6,,,,,,,,,,,,,,,,2019_Aug_30_1558,59.673098830382635,Cloud_Experiment_FR_REAL,001,44,
,,,,,,,,,,,,,,,,,,,,,,,,,,,,,,,,,,,,7,,,,,,,,,,,,,,,2019_Aug_30_1558,59.673098830382635,Cloud_Experiment_FR_REAL,001,44,
,,,,,,,,,,,,,,,,,,,,,,,,,,,,,,,,,,,,,7,,,,,,,,,,,,,,2019_Aug_30_1558,59.673098830382635,Cloud_Experiment_FR_REAL,001,44,
,,,,,,,,,,,,,,,,,,,,,,,,,,,,,,,,,,,,,,5,,,,,,,,,,,,,2019_Aug_30_1558,59.673098830382635,Cloud_Experiment_FR_REAL,001,44,
,,,,,,,,,,,,,,,,,,,,,,,,,,,,,,,,,,,,,,,7,,,,,,,,,,,,2019_Aug_30_1558,59.673098830382635,Cloud_Experiment_FR_REAL,001,44,
,,,,,,,,,,,,,,,,,,,,,,,,,,,,,,,,,,,,,,,,6,,,,,,,,,,,2019_Aug_30_1558,59.673098830382635,Cloud_Experiment_FR_REAL,001,44,
,,,,,,,,,,,,,,,,,,,,,,,,,,,,,,,,,,,,,,,,,7,,,,,,,,,,2019_Aug_30_1558,59.673098830382635,Cloud_Experiment_FR_REAL,001,44,
,,,,,,,,,,,,,,,,,,,,,,,,,,,,,,,,,,,,,,,,,,7,,,,,,,,,2019_Aug_30_1558,59.673098830382635,Cloud_Experiment_FR_REAL,001,44,
,,,,,,,,,,,,,,,,,,,,,,,,,,,,,,,,,,,,,,,,,,,6,,,,,,,,2019_Aug_30_1558,59.673098830382635,Cloud_Experiment_FR_REAL,001,44,
,,,,,,,,,,,,,,,,,,,,,,,,,,,,,,,,,,,,,,,,,,,,,,,,space,74.9866421,,2019_Aug_30_1558,59.673098830382635,Cloud_Experiment_FR_REAL,001,44,
images/fcloud_D1.5_6.tif,1.5,0,,,,,,,,,0,0,0,23,,,,,,,,,,,,,,,1,space,4,0.951,2.0723077,,,,,,,,,,,,,,,,,,2019_Aug_30_1558,59.673098830382635,Cloud_Experiment_FR_REAL,001,44,
images/fcloud80-20_D1_4.tif,1.0,2,,,,,,,,,0,1,1,78,,,,,,,,,,,,,,,2,space,2,0.819,3.6823106,,,,,,,,,,,,,,,,,,2019_Aug_30_1558,59.673098830382635,Cloud_Experiment_FR_REAL,001,44,
images/fcloud65-35_D1.7_6.tif,1.7,1,,,,,,,,,0,2,2,65,,,,,,,,,,,,,,,1,space,4,1.035,2.3891344,,,,,,,,,,,,,,,,,,2019_Aug_30_1558,59.673098830382635,Cloud_Experiment_FR_REAL,001,44,
images/fcloud65-35_D1.7_5.tif,1.7,1,,,,,,,,,0,3,3,64,,,,,,,,,,,,,,,1,space,5,0.669,2.8445669,,,,,,,,,,,,,,,,,,2019_Aug_30_1558,59.673098830382635,Cloud_Experiment_FR_REAL,001,44,
images/fcloud_D1.7_6.tif,1.7,0,,,,,,,,,0,4,4,29,,,,,,,,,,,,,,,3,space,4,0.553,2.6177877,,,,,,,,,,,,,,,,,,2019_Aug_30_1558,59.673098830382635,Cloud_Experiment_FR_REAL,001,44,
images/fcloud80-20_D1.4_6.tif,1.4,2,,,,,,,,,0,5,5,92,,,,,,,,,,,,,,,1,space,3,0.736,4.67124459999,,,,,,,,,,,,,,,,,,2019_Aug_30_1558,59.673098830382635,Cloud_Experiment_FR_REAL,001,44,
images/fcloud_D0.9_5.tif,0.9,0,,,,,,,,,0,6,6,4,,,,,,,,,,,,,,,3,space,4,1.887,3.5133089,,,,,,,,,,,,,,,,,,2019_Aug_30_1558,59.673098830382635,Cloud_Experiment_FR_REAL,001,44,
images/fcloud65-35_D1.6_5.tif,1.6,1,,,,,,,,,0,7,7,61,,,,,,,,,,,,,,,4,space,2,1.285,7.16747,,,,,,,,,,,,,,,,,,2019_Aug_30_1558,59.673098830382635,Cloud_Experiment_FR_REAL,001,44,
images/fcloud_D1.9_4.tif,1.9,0,,,,,,,,,0,8,8,33,,,,,,,,,,,,,,,2,space,3,0.985,5.0856864,,,,,,,,,,,,,,,,,,2019_Aug_30_1558,59.673098830382635,Cloud_Experiment_FR_REAL,001,44,
images/fcloud_D1.3_6.tif,1.3,0,,,,,,,,,0,9,9,17,,,,,,,,,,,,,,,2,space,3,0.703,3.3059857,,,,,,,,,,,,,,,,,,2019_Aug_30_1558,59.673098830382635,Cloud_Experiment_FR_REAL,001,44,
images/fcloud_D1.6_5.tif,1.6,0,,,,,,,,,0,10,10,25,,,,,,,,,,,,,,,2,space,2,0.902,3.7818636,,,,,,,,,,,,,,,,,,2019_Aug_30_1558,59.673098830382635,Cloud_Experiment_FR_REAL,001,44,
images/fcloud65-35_D1.6_6.tif,1.6,1,,,,,,,,,0,11,11,62,,,,,,,,,,,,,,,1,space,4,1.234,2.9274332,,,,,,,,,,,,,,,,,,2019_Aug_30_1558,59.673098830382635,Cloud_Experiment_FR_REAL,001,44,
images/fcloud65-35_D1.8_4.tif,1.8,1,,,,,,,,,0,12,12,66,,,,,,,,,,,,,,,2,space,5,1.151,3.5095009,,,,,,,,,,,,,,,,,,2019_Aug_30_1558,59.673098830382635,Cloud_Experiment_FR_REAL,001,44,
images/fcloud65-35_D1_5.tif,1.0,1,,,,,,,,,0,13,13,43,,,,,,,,,,,,,,,2,space,4,0.685,2.5928652,,,,,,,,,,,,,,,,,,2019_Aug_30_1558,59.673098830382635,Cloud_Experiment_FR_REAL,001,44,
images/fcloud_D1.2_4.tif,1.2,0,,,,,,,,,0,14,14,12,,,,,,,,,,,,,,,1,space,5,0.886,6.2120999,,,,,,,,,,,,,,,,,,2019_Aug_30_1558,59.673098830382635,Cloud_Experiment_FR_REAL,001,44,
images/fcloud_D1.2_6.tif,1.2,0,,,,,,,,,0,15,15,14,,,,,,,,,,,,,,,1,space,4,0.886,6.7519123,,,,,,,,,,,,,,,,,,2019_Aug_30_1558,59.673098830382635,Cloud_Experiment_FR_REAL,001,44,
images/fcloud65-35_D1.2_4.tif,1.2,1,,,,,,,,,0,16,16,48,,,,,,,,,,,,,,,2,space,2,0.601,7.3655035,,,,,,,,,,,,,,,,,,2019_Aug_30_1558,59.673098830382635,Cloud_Experiment_FR_REAL,001,44,
images/fcloud80-20_D1.4_4.tif,1.4,2,,,,,,,,,0,17,17,90,,,,,,,,,,,,,,,2,space,4,0.585,1.8685255,,,,,,,,,,,,,,,,,,2019_Aug_30_1558,59.673098830382635,Cloud_Experiment_FR_REAL,001,44,
images/fcloud80-20_D1.7_6.tif,1.7,2,,,,,,,,,0,18,18,101,,,,,,,,,,,,,,,2,space,4,1.151,1.11717239999,,,,,,,,,,,,,,,,,,2019_Aug_30_1558,59.673098830382635,Cloud_Experiment_FR_REAL,001,44,
images/fcloud80-20_D1.1_5.tif,1.1,2,,,,,,,,,0,19,19,82,,,,,,,,,,,,,,,4,space,3,2.284,2.0474765,,,,,,,,,,,,,,,,,,2019_Aug_30_1558,59.673098830382635,Cloud_Experiment_FR_REAL,001,44,
images/fcloud_D1.8_6.tif,1.8,0,,,,,,,,,0,20,20,32,,,,,,,,,,,,,,,2,space,3,0.636,5.2585223,,,,,,,,,,,,,,,,,,2019_Aug_30_1558,59.673098830382635,Cloud_Experiment_FR_REAL,001,44,
images/fcloud65-35_D1.1_6.tif,1.1,1,,,,,,,,,0,21,21,47,,,,,,,,,,,,,,,3,space,3,0.753,2.59723869999,,,,,,,,,,,,,,,,,,2019_Aug_30_1558,59.673098830382635,Cloud_Experiment_FR_REAL,001,44,
images/fcloud80-20_D1.2_6.tif,1.2,2,,,,,,,,,0,22,22,86,,,,,,,,,,,,,,,2,space,3,1.452,3.646398,,,,,,,,,,,,,,,,,,2019_Aug_30_1558,59.673098830382635,Cloud_Experiment_FR_REAL,001,44,
images/fcloud_D0.8_6.tif,0.8,0,,,,,,,,,0,23,23,2,,,,,,,,,,,,,,,3,space,4,0.569,2.8815413,,,,,,,,,,,,,,,,,,2019_Aug_30_1558,59.673098830382635,Cloud_Experiment_FR_REAL,001,44,
images/fcloud65-35_D1.4_6.tif,1.4,1,,,,,,,,,0,24,24,56,,,,,,,,,,,,,,,4,space,4,3.499,3.0645054,,,,,,,,,,,,,,,,,,2019_Aug_30_1558,59.673098830382635,Cloud_Experiment_FR_REAL,001,44,
images/fcloud_D1.3_4.tif,1.3,0,,,,,,,,,0,25,25,15,,,,,,,,,,,,,,,3,space,5,1.001,2.4828761,,,,,,,,,,,,,,,,,,2019_Aug_30_1558,59.673098830382635,Cloud_Experiment_FR_REAL,001,44,
images/fcloud65-35_D1.9_5.tif,1.9,1,,,,,,,,,0,26,26,70,,,,,,,,,,,,,,,2,space,5,1.318,3.4750412,,,,,,,,,,,,,,,,,,2019_Aug_30_1558,59.673098830382635,Cloud_Experiment_FR_REAL,001,44,
images/fcloud80-20_D1.3_4.tif,1.3,2,,,,,,,,,0,27,27,87,,,,,,,,,,,,,,,2,space,3,0.902,4.5098102,,,,,,,,,,,,,,,,,,2019_Aug_30_1558,59.673098830382635,Cloud_Experiment_FR_REAL,001,44,
images/fcloud65-35_D1.4_4.tif,1.4,1,,,,,,,,,0,28,28,54,,,,,,,,,,,,,,,1,space,5,0.586,1.8884857,,,,,,,,,,,,,,,,,,2019_Aug_30_1558,59.673098830382635,Cloud_Experiment_FR_REAL,001,44,
images/fcloud_D1.6_4.tif,1.6,0,,,,,,,,,0,29,29,24,,,,,,,,,,,,,,,1,space,4,0.469,4.0218118,,,,,,,,,,,,,,,,,,2019_Aug_30_1558,59.673098830382635,Cloud_Experiment_FR_REAL,001,44,
images/fcloud80-20_D1.2_5.tif,1.2,2,,,,,,,,,0,30,30,85,,,,,,,,,,,,,,,None,None,None,9.427,,,,,,,,,,,,,,,,,,,2019_Aug_30_1558,59.673098830382635,Cloud_Experiment_FR_REAL,001,44,
images/fcloud_D1.5_4.tif,1.5,0,,,,,,,,,0,31,31,21,,,,,,,,,,,,,,,1,space,4,0.719,5.2428617,,,,,,,,,,,,,,,,,,2019_Aug_30_1558,59.673098830382635,Cloud_Experiment_FR_REAL,001,44,
images/fcloud65-35_D1.3_4.tif,1.3,1,,,,,,,,,0,32,32,51,,,,,,,,,,,,,,,2,space,4,1.418,3.4243599,,,,,,,,,,,,,,,,,,2019_Aug_30_1558,59.673098830382635,Cloud_Experiment_FR_REAL,001,44,
images/fcloud65-35_D1.7_4.tif,1.7,1,,,,,,,,,0,33,33,63,,,,,,,,,,,,,,,2,space,4,1.751,5.3784964,,,,,,,,,,,,,,,,,,2019_Aug_30_1558,59.673098830382635,Cloud_Experiment_FR_REAL,001,44,
images/fcloud_D1.5_5.tif,1.5,0,,,,,,,,,0,34,34,22,,,,,,,,,,,,,,,1,space,5,0.602,3.3605314,,,,,,,,,,,,,,,,,,2019_Aug_30_1558,59.673098830382635,Cloud_Experiment_FR_REAL,001,44,
images/fcloud65-35_D0.9_4.tif,0.9,1,,,,,,,,,0,35,35,39,,,,,,,,,,,,,,,2,space,2,0.917,5.0040561,,,,,,,,,,,,,,,,,,2019_Aug_30_1558,59.673098830382635,Cloud_Experiment_FR_REAL,001,44,
images/fcloud_D1.9_5.tif,1.9,0,,,,,,,,,0,36,36,34,,,,,,,,,,,,,,,3,space,4,0.702,3.8812666,,,,,,,,,,,,,,,,,,2019_Aug_30_1558,59.673098830382635,Cloud_Experiment_FR_REAL,001,44,
images/fcloud80-20_D1.9_4.tif,1.9,2,,,,,,,,,0,37,37,105,,,,,,,,,,,,,,,2,space,3,1.118,5.3702916,,,,,,,,,,,,,,,,,,2019_Aug_30_1558,59.673098830382635,Cloud_Experiment_FR_REAL,001,44,
images/fcloud_D1.7_5.tif,1.7,0,,,,,,,,,0,38,38,28,,,,,,,,,,,,,,,3,space,5,1.201,3.0835422,,,,,,,,,,,,,,,,,,2019_Aug_30_1558,59.673098830382635,Cloud_Experiment_FR_REAL,001,44,
images/fcloud_D1.7_4.tif,1.7,0,,,,,,,,,0,39,39,27,,,,,,,,,,,,,,,2,space,3,0.985,2.9302149,,,,,,,,,,,,,,,,,,2019_Aug_30_1558,59.673098830382635,Cloud_Experiment_FR_REAL,001,44,
images/fcloud65-35_D1_4.tif,1.0,1,,,,,,,,,0,40,40,42,,,,,,,,,,,,,,,1,space,5,0.603,1.7467328,,,,,,,,,,,,,,,,,,2019_Aug_30_1558,59.673098830382635,Cloud_Experiment_FR_REAL,001,44,
images/fcloud80-20_D1.8_4.tif,1.8,2,,,,,,,,,0,41,41,102,,,,,,,,,,,,,,,2,None,4,0.686,,,,,,,,,,,,,,,,,,,2019_Aug_30_1558,59.673098830382635,Cloud_Experiment_FR_REAL,001,44,
images/fcloud80-20_D1.1_6.tif,1.1,2,,,,,,,,,0,42,42,83,,,,,,,,,,,,,,,2,space,3,0.585,5.5717426,,,,,,,,,,,,,,,,,,2019_Aug_30_1558,59.673098830382635,Cloud_Experiment_FR_REAL,001,44,
images/fcloud_D1.8_4.tif,1.8,0,,,,,,,,,0,43,43,30,,,,,,,,,,,,,,,3,space,4,0.602,1.91718510001,,,,,,,,,,,,,,,,,,2019_Aug_30_1558,59.673098830382635,Cloud_Experiment_FR_REAL,001,44,
images/fcloud65-35_D1.5_4.tif,1.5,1,,,,,,,,,0,44,44,57,,,,,,,,,,,,,,,3,space,5,0.603,1.9027554,,,,,,,,,,,,,,,,,,2019_Aug_30_1558,59.673098830382635,Cloud_Experiment_FR_REAL,001,44,
images/fcloud_D1_5.tif,1.0,0,,,,,,,,,0,45,45,7,,,,,,,,,,,,,,,1,space,2,0.82,4.2703821,,,,,,,,,,,,,,,,,,2019_Aug_30_1558,59.673098830382635,Cloud_Experiment_FR_REAL,001,44,
images/fcloud_D1.1_4.tif,1.1,0,,,,,,,,,0,46,46,9,,,,,,,,,,,,,,,3,space,4,0.752,2.4804816,,,,,,,,,,,,,,,,,,2019_Aug_30_1558,59.673098830382635,Cloud_Experiment_FR_REAL,001,44,
images/fcloud80-20_D1.6_6.tif,1.6,2,,,,,,,,,0,47,47,98,,,,,,,,,,,,,,,1,space,3,0.636,2.298108,,,,,,,,,,,,,,,,,,2019_Aug_30_1558,59.673098830382635,Cloud_Experiment_FR_REAL,001,44,
images/fcloud_D1.3_5.tif,1.3,0,,,,,,,,,0,48,48,16,,,,,,,,,,,,,,,2,space,3,0.435,3.9229889,,,,,,,,,,,,,,,,,,2019_Aug_30_1558,59.673098830382635,Cloud_Experiment_FR_REAL,001,44,
images/fcloud80-20_D1.9_5.tif,1.9,2,,,,,,,,,0,49,49,106,,,,,,,,,,,,,,,3,space,4,1.035,2.5519956,,,,,,,,,,,,,,,,,,2019_Aug_30_1558,59.673098830382635,Cloud_Experiment_FR_REAL,001,44,
images/fcloud_D1.6_6.tif,1.6,0,,,,,,,,,0,50,50,26,,,,,,,,,,,,,,,1,space,5,0.535,1.6657701,,,,,,,,,,,,,,,,,,2019_Aug_30_1558,59.673098830382635,Cloud_Experiment_FR_REAL,001,44,
images/fcloud_D1.4_5.tif,1.4,0,,,,,,,,,0,51,51,19,,,,,,,,,,,,,,,2,space,4,1.251,4.0885438,,,,,,,,,,,,,,,,,,2019_Aug_30_1558,59.673098830382635,Cloud_Experiment_FR_REAL,001,44,
images/fcloud_D1_4.tif,1.0,0,,,,,,,,,0,52,52,6,,,,,,,,,,,,,,,1,space,2,0.551,6.7486564,,,,,,,,,,,,,,,,,,2019_Aug_30_1558,59.673098830382635,Cloud_Experiment_FR_REAL,001,44,
images/fcloud65-35_D1.3_6.tif,1.3,1,,,,,,,,,0,53,53,53,,,,,,,,,,,,,,,1,space,2,0.536,6.8438801,,,,,,,,,,,,,,,,,,2019_Aug_30_1558,59.673098830382635,Cloud_Experiment_FR_REAL,001,44,
images/fcloud80-20_D1_6.tif,1.0,2,,,,,,,,,0,54,54,80,,,,,,,,,,,,,,,4,space,4,3.0,1.8866403,,,,,,,,,,,,,,,,,,2019_Aug_30_1558,59.673098830382635,Cloud_Experiment_FR_REAL,001,44,
images/fcloud65-35_D0.9_6.tif,0.9,1,,,,,,,,,0,55,55,41,,,,,,,,,,,,,,,1,space,1,1.168,6.4832592,,,,,,,,,,,,,,,,,,2019_Aug_30_1558,59.673098830382635,Cloud_Experiment_FR_REAL,001,44,
images/fcloud65-35_D0.8_6.tif,0.8,1,,,,,,,,,0,56,56,38,,,,,,,,,,,,,,,1,space,3,0.536,2.1310442,,,,,,,,,,,,,,,,,,2019_Aug_30_1558,59.673098830382635,Cloud_Experiment_FR_REAL,001,44,
images/fcloud80-20_D1.7_5.tif,1.7,2,,,,,,,,,0,57,57,100,,,,,,,,,,,,,,,2,space,5,0.768,2.7953479,,,,,,,,,,,,,,,,,,2019_Aug_30_1558,59.673098830382635,Cloud_Experiment_FR_REAL,001,44,
images/fcloud_D0.9_4.tif,0.9,0,,,,,,,,,0,58,58,3,,,,,,,,,,,,,,,1,space,3,0.736,5.5489477,,,,,,,,,,,,,,,,,,2019_Aug_30_1558,59.673098830382635,Cloud_Experiment_FR_REAL,001,44,
images/fcloud80-20_D1.3_6.tif,1.3,2,,,,,,,,,0,59,59,89,,,,,,,,,,,,,,,1,space,4,0.951,4.6948686,,,,,,,,,,,,,,,,,,2019_Aug_30_1558,59.673098830382635,Cloud_Experiment_FR_REAL,001,44,
images/fcloud65-35_D1.9_6.tif,1.9,1,,,,,,,,,0,60,60,71,,,,,,,,,,,,,,,2,space,5,0.651,3.2192643,,,,,,,,,,,,,,,,,,2019_Aug_30_1558,59.673098830382635,Cloud_Experiment_FR_REAL,001,44,
images/fcloud80-20_D1.9_6.tif,1.9,2,,,,,,,,,0,61,61,107,,,,,,,,,,,,,,,3,space,4,0.886,4.878704,,,,,,,,,,,,,,,,,,2019_Aug_30_1558,59.673098830382635,Cloud_Experiment_FR_REAL,001,44,
images/fcloud_D1.8_5.tif,1.8,0,,,,,,,,,0,62,62,31,,,,,,,,,,,,,,,3,space,4,0.553,1.5189957,,,,,,,,,,,,,,,,,,2019_Aug_30_1558,59.673098830382635,Cloud_Experiment_FR_REAL,001,44,
images/fcloud80-20_D0.9_6.tif,0.9,2,,,,,,,,,0,63,63,77,,,,,,,,,,,,,,,2,space,4,1.252,1.966519,,,,,,,,,,,,,,,,,,2019_Aug_30_1558,59.673098830382635,Cloud_Experiment_FR_REAL,001,44,
images/fcloud80-20_D1.5_6.tif,1.5,2,,,,,,,,,0,64,64,95,,,,,,,,,,,,,,,None,None,None,9.775,,,,,,,,,,,,,,,,,,,2019_Aug_30_1558,59.673098830382635,Cloud_Experiment_FR_REAL,001,44,
images/fcloud_D0.8_5.tif,0.8,0,,,,,,,,,0,65,65,1,,,,,,,,,,,,,,,2,space,4,0.669,3.584722,,,,,,,,,,,,,,,,,,2019_Aug_30_1558,59.673098830382635,Cloud_Experiment_FR_REAL,001,44,
images/fcloud80-20_D1.3_5.tif,1.3,2,,,,,,,,,0,66,66,88,,,,,,,,,,,,,,,2,space,5,1.301,3.0418078,,,,,,,,,,,,,,,,,,2019_Aug_30_1558,59.673098830382635,Cloud_Experiment_FR_REAL,001,44,
images/fcloud80-20_D0.8_5.tif,0.8,2,,,,,,,,,0,67,67,73,,,,,,,,,,,,,,,None,None,None,9.677,,,,,,,,,,,,,,,,,,,2019_Aug_30_1558,59.673098830382635,Cloud_Experiment_FR_REAL,001,44,
images/fcloud65-35_D1.9_4.tif,1.9,1,,,,,,,,,0,68,68,69,,,,,,,,,,,,,,,4,space,5,1.485,2.3581521,,,,,,,,,,,,,,,,,,2019_Aug_30_1558,59.673098830382635,Cloud_Experiment_FR_REAL,001,44,
images/fcloud65-35_D0.8_4.tif,0.8,1,,,,,,,,,0,69,69,36,,,,,,,,,,,,,,,None,None,None,9.843,,,,,,,,,,,,,,,,,,,2019_Aug_30_1558,59.673098830382635,Cloud_Experiment_FR_REAL,001,44,
images/fcloud80-20_D1.5_5.tif,1.5,2,,,,,,,,,0,70,70,94,,,,,,,,,,,,,,,2,space,4,0.586,2.4900403,,,,,,,,,,,,,,,,,,2019_Aug_30_1558,59.673098830382635,Cloud_Experiment_FR_REAL,001,44,
images/fcloud65-35_D1_6.tif,1.0,1,,,,,,,,,0,71,71,44,,,,,,,,,,,,,,,2,space,3,0.652,1.90220159999,,,,,,,,,,,,,,,,,,2019_Aug_30_1558,59.673098830382635,Cloud_Experiment_FR_REAL,001,44,
images/fcloud80-20_D0.8_4.tif,0.8,2,,,,,,,,,0,72,72,72,,,,,,,,,,,,,,,1,space,4,0.552,2.7184955,,,,,,,,,,,,,,,,,,2019_Aug_30_1558,59.673098830382635,Cloud_Experiment_FR_REAL,001,44,
images/fcloud65-35_D1.2_5.tif,1.2,1,,,,,,,,,0,73,73,49,,,,,,,,,,,,,,,2,space,5,0.519,3.0044942,,,,,,,,,,,,,,,,,,2019_Aug_30_1558,59.673098830382635,Cloud_Experiment_FR_REAL,001,44,
images/fcloud_D1.2_5.tif,1.2,0,,,,,,,,,0,74,74,13,,,,,,,,,,,,,,,2,space,2,0.519,5.5468995,,,,,,,,,,,,,,,,,,2019_Aug_30_1558,59.673098830382635,Cloud_Experiment_FR_REAL,001,44,
images/fcloud_D1.4_6.tif,1.4,0,,,,,,,,,0,75,75,20,,,,,,,,,,,,,,,4,space,4,0.668,4.5100389,,,,,,,,,,,,,,,,,,2019_Aug_30_1558,59.673098830382635,Cloud_Experiment_FR_REAL,001,44,
images/fcloud_D0.9_6.tif,0.9,0,,,,,,,,,0,76,76,5,,,,,,,,,,,,,,,1,space,2,0.703,4.21071090001,,,,,,,,,,,,,,,,,,2019_Aug_30_1558,59.673098830382635,Cloud_Experiment_FR_REAL,001,44,
images/fcloud80-20_D1_5.tif,1.0,2,,,,,,,,,0,77,77,79,,,,,,,,,,,,,,,2,space,4,2.451,2.42832660001,,,,,,,,,,,,,,,,,,2019_Aug_30_1558,59.673098830382635,Cloud_Experiment_FR_REAL,001,44,
images/fcloud80-20_D1.8_5.tif,1.8,2,,,,,,,,,0,78,78,103,,,,,,,,,,,,,,,2,space,4,0.603,4.6841529,,,,,,,,,,,,,,,,,,2019_Aug_30_1558,59.673098830382635,Cloud_Experiment_FR_REAL,001,44,
images/fcloud65-35_D1.8_5.tif,1.8,1,,,,,,,,,0,79,79,67,,,,,,,,,,,,,,,2,space,4,0.602,5.212241,,,,,,,,,,,,,,,,,,2019_Aug_30_1558,59.673098830382635,Cloud_Experiment_FR_REAL,001,44,
images/fcloud80-20_D1.1_4.tif,1.1,2,,,,,,,,,0,80,80,81,,,,,,,,,,,,,,,3,space,4,1.568,2.6751514,,,,,,,,,,,,,,,,,,2019_Aug_30_1558,59.673098830382635,Cloud_Experiment_FR_REAL,001,44,
images/fcloud65-35_D1.2_6.tif,1.2,1,,,,,,,,,0,81,81,50,,,,,,,,,,,,,,,1,space,5,1.75,1.4222582,,,,,,,,,,,,,,,,,,2019_Aug_30_1558,59.673098830382635,Cloud_Experiment_FR_REAL,001,44,
images/fcloud_D1.4_4.tif,1.4,0,,,,,,,,,0,82,82,18,,,,,,,,,,,,,,,2,space,3,0.786,3.939516,,,,,,,,,,,,,,,,,,2019_Aug_30_1558,59.673098830382635,Cloud_Experiment_FR_REAL,001,44,
images/fcloud65-35_D1.5_5.tif,1.5,1,,,,,,,,,0,83,83,58,,,,,,,,,,,,,,,2,space,5,0.486,3.3528569,,,,,,,,,,,,,,,,,,2019_Aug_30_1558,59.673098830382635,Cloud_Experiment_FR_REAL,001,44,
images/fcloud65-35_D1.1_4.tif,1.1,1,,,,,,,,,0,84,84,45,,,,,,,,,,,,,,,2,space,4,0.619,1.5292036,,,,,,,,,,,,,,,,,,2019_Aug_30_1558,59.673098830382635,Cloud_Experiment_FR_REAL,001,44,
images/fcloud65-35_D1.3_5.tif,1.3,1,,,,,,,,,0,85,85,52,,,,,,,,,,,,,,,1,space,3,0.853,4.6950222,,,,,,,,,,,,,,,,,,2019_Aug_30_1558,59.673098830382635,Cloud_Experiment_FR_REAL,001,44,
images/fcloud80-20_D1.6_5.tif,1.6,2,,,,,,,,,0,86,86,97,,,,,,,,,,,,,,,2,space,3,0.852,5.66594789999,,,,,,,,,,,,,,,,,,2019_Aug_30_1558,59.673098830382635,Cloud_Experiment_FR_REAL,001,44,
images/fcloud80-20_D0.8_6.tif,0.8,2,,,,,,,,,0,87,87,74,,,,,,,,,,,,,,,1,space,1,1.184,4.82181050001,,,,,,,,,,,,,,,,,,2019_Aug_30_1558,59.673098830382635,Cloud_Experiment_FR_REAL,001,44,
images/fcloud_D1_6.tif,1.0,0,,,,,,,,,0,88,88,8,,,,,,,,,,,,,,,1,space,5,0.736,1.3142185,,,,,,,,,,,,,,,,,,2019_Aug_30_1558,59.673098830382635,Cloud_Experiment_FR_REAL,001,44,
images/fcloud_D1.1_5.tif,1.1,0,,,,,,,,,0,89,89,10,,,,,,,,,,,,,,,1,space,4,1.018,4.1674856,,,,,,,,,,,,,,,,,,2019_Aug_30_1558,59.673098830382635,Cloud_Experiment_FR_REAL,001,44,
images/fcloud80-20_D1.7_4.tif,1.7,2,,,,,,,,,0,90,90,99,,,,,,,,,,,,,,,4,space,4,1.184,2.2986002,,,,,,,,,,,,,,,,,,2019_Aug_30_1558,59.673098830382635,Cloud_Experiment_FR_REAL,001,44,
images/fcloud80-20_D1.4_5.tif,1.4,2,,,,,,,,,0,91,91,91,,,,,,,,,,,,,,,1,space,2,1.152,7.1617684,,,,,,,,,,,,,,,,,,2019_Aug_30_1558,59.673098830382635,Cloud_Experiment_FR_REAL,001,44,
images/fcloud65-35_D0.9_5.tif,0.9,1,,,,,,,,,0,92,92,40,,,,,,,,,,,,,,,1,space,5,1.418,2.9386201,,,,,,,,,,,,,,,,,,2019_Aug_30_1558,59.673098830382635,Cloud_Experiment_FR_REAL,001,44,
images/fcloud65-35_D1.5_6.tif,1.5,1,,,,,,,,,0,93,93,59,,,,,,,,,,,,,,,2,space,4,1.251,4.7496637,,,,,,,,,,,,,,,,,,2019_Aug_30_1558,59.673098830382635,Cloud_Experiment_FR_REAL,001,44,
images/fcloud80-20_D0.9_4.tif,0.9,2,,,,,,,,,0,94,94,75,,,,,,,,,,,,,,,2,space,4,1.269,4.075438,,,,,,,,,,,,,,,,,,2019_Aug_30_1558,59.673098830382635,Cloud_Experiment_FR_REAL,001,44,
images/fcloud80-20_D1.6_4.tif,1.6,2,,,,,,,,,0,95,95,96,,,,,,,,,,,,,,,5,space,4,0.819,3.2452386,,,,,,,,,,,,,,,,,,2019_Aug_30_1558,59.673098830382635,Cloud_Experiment_FR_REAL,001,44,
images/fcloud65-35_D1.8_6.tif,1.8,1,,,,,,,,,0,96,96,68,,,,,,,,,,,,,,,2,space,5,0.67,1.2971286,,,,,,,,,,,,,,,,,,2019_Aug_30_1558,59.673098830382635,Cloud_Experiment_FR_REAL,001,44,
images/fcloud65-35_D1.6_4.tif,1.6,1,,,,,,,,,0,97,97,60,,,,,,,,,,,,,,,1,space,5,0.585,1.4669009,,,,,,,,,,,,,,,,,,2019_Aug_30_1558,59.673098830382635,Cloud_Experiment_FR_REAL,001,44,
images/fcloud65-35_D0.8_5.tif,0.8,1,,,,,,,,,0,98,98,37,,,,,,,,,,,,,,,1,space,5,0.536,2.5842336,,,,,,,,,,,,,,,,,,2019_Aug_30_1558,59.673098830382635,Cloud_Experiment_FR_REAL,001,44,
images/fcloud80-20_D0.9_5.tif,0.9,2,,,,,,,,,0,99,99,76,,,,,,,,,,,,,,,1,space,4,0.636,1.6956657,,,,,,,,,,,,,,,,,,2019_Aug_30_1558,59.673098830382635,Cloud_Experiment_FR_REAL,001,44,
images/fcloud65-35_D1.4_5.tif,1.4,1,,,,,,,,,0,100,100,55,,,,,,,,,,,,,,,1,space,5,0.568,5.2242263,,,,,,,,,,,,,,,,,,2019_Aug_30_1558,59.673098830382635,Cloud_Experiment_FR_REAL,001,44,
images/fcloud65-35_D1.1_5.tif,1.1,1,,,,,,,,,0,101,101,46,,,,,,,,,,,,,,,2,space,4,0.535,3.5884457,,,,,,,,,,,,,,,,,,2019_Aug_30_1558,59.673098830382635,Cloud_Experiment_FR_REAL,001,44,
images/fcloud80-20_D1.5_4.tif,1.5,2,,,,,,,,,0,102,102,93,,,,,,,,,,,,,,,3,space,4,0.469,2.17209409999,,,,,,,,,,,,,,,,,,2019_Aug_30_1558,59.673098830382635,Cloud_Experiment_FR_REAL,001,44,
images/fcloud80-20_D1.2_4.tif,1.2,2,,,,,,,,,0,103,103,84,,,,,,,,,,,,,,,3,space,3,0.768,4.3100905,,,,,,,,,,,,,,,,,,2019_Aug_30_1558,59.673098830382635,Cloud_Experiment_FR_REAL,001,44,
images/fcloud80-20_D1.8_6.tif,1.8,2,,,,,,,,,0,104,104,104,,,,,,,,,,,,,,,2,space,4,0.519,3.9411248,,,,,,,,,,,,,,,,,,2019_Aug_30_1558,59.673098830382635,Cloud_Experiment_FR_REAL,001,44,
images/fcloud_D0.8_4.tif,0.8,0,,,,,,,,,0,105,105,0,,,,,,,,,,,,,,,2,space,2,0.501,4.6026008,,,,,,,,,,,,,,,,,,2019_Aug_30_1558,59.673098830382635,Cloud_Experiment_FR_REAL,001,44,
images/fcloud_D1.1_6.tif,1.1,0,,,,,,,,,0,106,106,11,,,,,,,,,,,,,,,2,space,4,0.92,1.70230059999,,,,,,,,,,,,,,,,,,2019_Aug_30_1558,59.673098830382635,Cloud_Experiment_FR_REAL,001,44,
images/fcloud_D1.9_6.tif,1.9,0,,,,,,,,,0,107,107,35,,,,,,,,,,,,,,,1,space,4,0.719,3.8186935,,,,,,,,,,,,,,,,,,2019_Aug_30_1558,59.673098830382635,Cloud_Experiment_FR_REAL,001,44,
,,,,,,,,,,,,,,,,,,,,,,,,,,,,,,,,,,,,,,,,,,,,,,space,2.5501763,,,,2019_Aug_30_1558,59.673098830382635,Cloud_Experiment_FR_REAL,001,44,
,,,,,,,,,,,,,,,,,,,,,,,,,8,4.775,,,,,,,,,,,,,,,,,,,,,,,,,2019_Aug_30_1558,59.673098830382635,Cloud_Experiment_FR_REAL,001,44,
,,,,,,,,,,,,,,,,,,,,,,,,,,,,,,,,,,7,,,,,,,,,,,,,,,,,2019_Aug_30_1558,59.673098830382635,Cloud_Experiment_FR_REAL,001,44,
,,,,,,,,,,,,,,,,,,,,,,,,,,,,,,,,,,,7,,,,,,,,,,,,,,,,2019_Aug_30_1558,59.673098830382635,Cloud_Experiment_FR_REAL,001,44,
,,,,,,,,,,,,,,,,,,,,,,,,,,,,,,,,,,,,7,,,,,,,,,,,,,,,2019_Aug_30_1558,59.673098830382635,Cloud_Experiment_FR_REAL,001,44,
,,,,,,,,,,,,,,,,,,,,,,,,,,,,,,,,,,,,,7,,,,,,,,,,,,,,2019_Aug_30_1558,59.673098830382635,Cloud_Experiment_FR_REAL,001,44,
,,,,,,,,,,,,,,,,,,,,,,,,,,,,,,,,,,,,,,7,,,,,,,,,,,,,2019_Aug_30_1558,59.673098830382635,Cloud_Experiment_FR_REAL,001,44,
,,,,,,,,,,,,,,,,,,,,,,,,,,,,,,,,,,,,,,,7,,,,,,,,,,,,2019_Aug_30_1558,59.673098830382635,Cloud_Experiment_FR_REAL,001,44,
,,,,,,,,,,,,,,,,,,,,,,,,,,,,,,,,,,,,,,,,6,,,,,,,,,,,2019_Aug_30_1558,59.673098830382635,Cloud_Experiment_FR_REAL,001,44,
,,,,,,,,,,,,,,,,,,,,,,,,,,,,,,,,,,,,,,,,,7,,,,,,,,,,2019_Aug_30_1558,59.673098830382635,Cloud_Experiment_FR_REAL,001,44,
,,,,,,,,,,,,,,,,,,,,,,,,,,,,,,,,,,,,,,,,,,7,,,,,,,,,2019_Aug_30_1558,59.673098830382635,Cloud_Experiment_FR_REAL,001,44,
,,,,,,,,,,,,,,,,,,,,,,,,,,,,,,,,,,,,,,,,,,,6,,,,,,,,2019_Aug_30_1558,59.673098830382635,Cloud_Experiment_FR_REAL,001,44,
,,,,,,,,,,,,,,,,,,,,,,,,,,,,,,,,,,,,,,,,,,,,,,,,space,146.7895431,,2019_Aug_30_1558,59.673098830382635,Cloud_Experiment_FR_REAL,001,44,
images/fcloud80-20_D1.5_10.tif,1.5,2,,,,,,,,,,,,,0,0,0,127,,,,,,,,,,,2,space,2,0.868,3.5118447,,,,,,,,,,,,,,,,,,2019_Aug_30_1558,59.673098830382635,Cloud_Experiment_FR_REAL,001,44,
images/fcloud80-20_D1.6_8.tif,1.6,2,,,,,,,,,,,,,0,1,1,129,,,,,,,,,,,1,space,3,0.603,3.1087831,,,,,,,,,,,,,,,,,,2019_Aug_30_1558,59.673098830382635,Cloud_Experiment_FR_REAL,001,44,
images/fcloud80-20_D1.8_7.tif,1.8,2,,,,,,,,,,,,,0,2,2,136,,,,,,,,,,,1,space,1,0.584,2.7136787,,,,,,,,,,,,,,,,,,2019_Aug_30_1558,59.673098830382635,Cloud_Experiment_FR_REAL,001,44,
images/fcloud_D1.3_9.tif,1.3,0,,,,,,,,,,,,,0,3,3,22,,,,,,,,,,,1,space,2,1.169,5.0068888,,,,,,,,,,,,,,,,,,2019_Aug_30_1558,59.673098830382635,Cloud_Experiment_FR_REAL,001,44,
images/fcloud65-35_D1.6_9.tif,1.6,1,,,,,,,,,,,,,0,4,4,82,,,,,,,,,,,4,space,4,0.636,3.8612654,,,,,,,,,,,,,,,,,,2019_Aug_30_1558,59.673098830382635,Cloud_Experiment_FR_REAL,001,44,
images/fcloud65-35_D1.2_7.tif,1.2,1,,,,,,,,,,,,,0,5,5,64,,,,,,,,,,,1,space,5,0.601,1.8752528,,,,,,,,,,,,,,,,,,2019_Aug_30_1558,59.673098830382635,Cloud_Experiment_FR_REAL,001,44,
images/fcloud_D1.5_9.tif,1.5,0,,,,,,,,,,,,,0,6,6,30,,,,,,,,,,,None,None,None,9.411,,,,,,,,,,,,,,,,,,,2019_Aug_30_1558,59.673098830382635,Cloud_Experiment_FR_REAL,001,44,
images/fcloud_D1.9_8.tif,1.9,0,,,,,,,,,,,,,0,7,7,45,,,,,,,,,,,2,space,3,0.585,4.5373914,,,,,,,,,,,,,,,,,,2019_Aug_30_1558,59.673098830382635,Cloud_Experiment_FR_REAL,001,44,
images/fcloud65-35_D1.4_7.tif,1.4,1,,,,,,,,,,,,,0,8,8,72,,,,,,,,,,,1,space,2,0.518,2.8071847,,,,,,,,,,,,,,,,,,2019_Aug_30_1558,59.673098830382635,Cloud_Experiment_FR_REAL,001,44,
images/fcloud65-35_D1.3_9.tif,1.3,1,,,,,,,,,,,,,0,9,9,70,,,,,,,,,,,2,space,3,0.534,2.0804504,,,,,,,,,,,,,,,,,,2019_Aug_30_1558,59.673098830382635,Cloud_Experiment_FR_REAL,001,44,
images/fcloud65-35_D1.5_9.tif,1.5,1,,,,,,,,,,,,,0,10,10,78,,,,,,,,,,,2,space,4,1.502,2.61388819999,,,,,,,,,,,,,,,,,,2019_Aug_30_1558,59.673098830382635,Cloud_Experiment_FR_REAL,001,44,
images/fcloud65-35_D0.8_9.tif,0.8,1,,,,,,,,,,,,,0,11,11,50,,,,,,,,,,,1,space,2,0.868,6.8267745,,,,,,,,,,,,,,,,,,2019_Aug_30_1558,59.673098830382635,Cloud_Experiment_FR_REAL,001,44,
images/fcloud_D1.7_10.tif,1.7,0,,,,,,,,,,,,,0,12,12,39,,,,,,,,,,,3,space,5,2.368,2.1293841,,,,,,,,,,,,,,,,,,2019_Aug_30_1558,59.673098830382635,Cloud_Experiment_FR_REAL,001,44,
images/fcloud80-20_D1.8_9.tif,1.8,2,,,,,,,,,,,,,0,13,13,138,,,,,,,,,,,3,space,4,0.634,3.38313849999,,,,,,,,,,,,,,,,,,2019_Aug_30_1558,59.673098830382635,Cloud_Experiment_FR_REAL,001,44,
images/fcloud80-20_D0.8_10.tif,0.8,2,,,,,,,,,,,,,0,14,14,99,,,,,,,,,,,1,space,2,0.486,2.8855972,,,,,,,,,,,,,,,,,,2019_Aug_30_1558,59.673098830382635,Cloud_Experiment_FR_REAL,001,44,
images/fcloud65-35_D1.6_7.tif,1.6,1,,,,,,,,,,,,,0,15,15,80,,,,,,,,,,,1,space,5,0.518,1.1709452,,,,,,,,,,,,,,,,,,2019_Aug_30_1558,59.673098830382635,Cloud_Experiment_FR_REAL,001,44,
images/fcloud80-20_D0.9_8.tif,0.9,2,,,,,,,,,,,,,0,16,16,101,,,,,,,,,,,1,space,2,0.503,4.5547824,,,,,,,,,,,,,,,,,,2019_Aug_30_1558,59.673098830382635,Cloud_Experiment_FR_REAL,001,44,
images/fcloud80-20_D1.1_8.tif,1.1,2,,,,,,,,,,,,,0,17,17,109,,,,,,,,,,,1,space,2,0.485,3.6047543,,,,,,,,,,,,,,,,,,2019_Aug_30_1558,59.673098830382635,Cloud_Experiment_FR_REAL,001,44,
images/fcloud80-20_D1.2_8.tif,1.2,2,,,,,,,,,,,,,0,18,18,113,,,,,,,,,,,3,space,4,0.619,1.139887,,,,,,,,,,,,,,,,,,2019_Aug_30_1558,59.673098830382635,Cloud_Experiment_FR_REAL,001,44,
images/fcloud80-20_D1_7.tif,1.0,2,,,,,,,,,,,,,0,19,19,104,,,,,,,,,,,2,space,3,0.835,2.8916846,,,,,,,,,,,,,,,,,,2019_Aug_30_1558,59.673098830382635,Cloud_Experiment_FR_REAL,001,44,
images/fcloud_D1.8_9.tif,1.8,0,,,,,,,,,,,,,0,20,20,42,,,,,,,,,,,3,space,4,0.702,3.5887993,,,,,,,,,,,,,,,,,,2019_Aug_30_1558,59.673098830382635,Cloud_Experiment_FR_REAL,001,44,
images/fcloud80-20_D0.8_8.tif,0.8,2,,,,,,,,,,,,,0,21,21,97,,,,,,,,,,,2,space,3,0.519,3.2636299,,,,,,,,,,,,,,,,,,2019_Aug_30_1558,59.673098830382635,Cloud_Experiment_FR_REAL,001,44,
images/fcloud80-20_D1.5_7.tif,1.5,2,,,,,,,,,,,,,0,22,22,124,,,,,,,,,,,2,space,5,0.536,2.6748987,,,,,,,,,,,,,,,,,,2019_Aug_30_1558,59.673098830382635,Cloud_Experiment_FR_REAL,001,44,
images/fcloud80-20_D1.9_10.tif,1.9,2,,,,,,,,,,,,,0,23,23,143,,,,,,,,,,,2,space,4,0.486,2.4719278,,,,,,,,,,,,,,,,,,2019_Aug_30_1558,59.673098830382635,Cloud_Experiment_FR_REAL,001,44,
images/fcloud65-35_D1.8_8.tif,1.8,1,,,,,,,,,,,,,0,24,24,89,,,,,,,,,,,5,space,5,0.884,2.3654728,,,,,,,,,,,,,,,,,,2019_Aug_30_1558,59.673098830382635,Cloud_Experiment_FR_REAL,001,44,
images/fcloud_D0.9_8.tif,0.9,0,,,,,,,,,,,,,0,25,25,5,,,,,,,,,,,2,space,4,0.868,2.6521314,,,,,,,,,,,,,,,,,,2019_Aug_30_1558,59.673098830382635,Cloud_Experiment_FR_REAL,001,44,
images/fcloud_D1.9_9.tif,1.9,0,,,,,,,,,,,,,0,26,26,46,,,,,,,,,,,2,space,5,0.436,2.4673005,,,,,,,,,,,,,,,,,,2019_Aug_30_1558,59.673098830382635,Cloud_Experiment_FR_REAL,001,44,
images/fcloud65-35_D1.8_9.tif,1.8,1,,,,,,,,,,,,,0,27,27,90,,,,,,,,,,,3,space,4,0.469,2.05264820001,,,,,,,,,,,,,,,,,,2019_Aug_30_1558,59.673098830382635,Cloud_Experiment_FR_REAL,001,44,
images/fcloud_D1.4_10.tif,1.4,0,,,,,,,,,,,,,0,28,28,27,,,,,,,,,,,1,space,2,0.469,3.9424725,,,,,,,,,,,,,,,,,,2019_Aug_30_1558,59.673098830382635,Cloud_Experiment_FR_REAL,001,44,
images/fcloud80-20_D1_8.tif,1.0,2,,,,,,,,,,,,,0,29,29,105,,,,,,,,,,,1,space,4,0.519,1.9753192,,,,,,,,,,,,,,,,,,2019_Aug_30_1558,59.673098830382635,Cloud_Experiment_FR_REAL,001,44,
images/fcloud_D1.3_8.tif,1.3,0,,,,,,,,,,,,,0,30,30,21,,,,,,,,,,,None,space,None,11.092,3.9825729,,,,,,,,,,,,,,,,,,2019_Aug_30_1558,59.673098830382635,Cloud_Experiment_FR_REAL,001,44,
images/fcloud_D1.9_7.tif,1.9,0,,,,,,,,,,,,,0,31,31,44,,,,,,,,,,,2,space,2,0.586,5.8727087,,,,,,,,,,,,,,,,,,2019_Aug_30_1558,59.673098830382635,Cloud_Experiment_FR_REAL,001,44,
images/fcloud65-35_D0.9_10.tif,0.9,1,,,,,,,,,,,,,0,32,32,55,,,,,,,,,,,1,space,3,0.486,3.5804718,,,,,,,,,,,,,,,,,,2019_Aug_30_1558,59.673098830382635,Cloud_Experiment_FR_REAL,001,44,
images/fcloud_D1.2_8.tif,1.2,0,,,,,,,,,,,,,0,33,33,17,,,,,,,,,,,1,space,4,0.452,2.0954023,,,,,,,,,,,,,,,,,,2019_Aug_30_1558,59.673098830382635,Cloud_Experiment_FR_REAL,001,44,
images/fcloud65-35_D1.3_10.tif,1.3,1,,,,,,,,,,,,,0,34,34,71,,,,,,,,,,,2,space,4,0.418,4.4563602,,,,,,,,,,,,,,,,,,2019_Aug_30_1558,59.673098830382635,Cloud_Experiment_FR_REAL,001,44,
images/fcloud_D1.1_9.tif,1.1,0,,,,,,,,,,,,,0,35,35,14,,,,,,,,,,,2,space,5,0.536,2.2906759,,,,,,,,,,,,,,,,,,2019_Aug_30_1558,59.673098830382635,Cloud_Experiment_FR_REAL,001,44,
images/fcloud80-20_D1.1_10.tif,1.1,2,,,,,,,,,,,,,0,36,36,111,,,,,,,,,,,1,space,4,0.519,1.6755508,,,,,,,,,,,,,,,,,,2019_Aug_30_1558,59.673098830382635,Cloud_Experiment_FR_REAL,001,44,
images/fcloud_D0.8_8.tif,0.8,0,,,,,,,,,,,,,0,37,37,1,,,,,,,,,,,1,space,4,0.735,4.2007987,,,,,,,,,,,,,,,,,,2019_Aug_30_1558,59.673098830382635,Cloud_Experiment_FR_REAL,001,44,
images/fcloud65-35_D1.7_7.tif,1.7,1,,,,,,,,,,,,,0,38,38,84,,,,,,,,,,,2,space,5,0.553,2.8608497,,,,,,,,,,,,,,,,,,2019_Aug_30_1558,59.673098830382635,Cloud_Experiment_FR_REAL,001,44,
images/fcloud80-20_D1.3_7.tif,1.3,2,,,,,,,,,,,,,0,39,39,116,,,,,,,,,,,1,space,2,0.552,5.1838689,,,,,,,,,,,,,,,,,,2019_Aug_30_1558,59.673098830382635,Cloud_Experiment_FR_REAL,001,44,
images/fcloud65-35_D1.5_7.tif,1.5,1,,,,,,,,,,,,,0,40,40,76,,,,,,,,,,,1,space,4,0.486,3.6935583,,,,,,,,,,,,,,,,,,2019_Aug_30_1558,59.673098830382635,Cloud_Experiment_FR_REAL,001,44,
images/fcloud_D1.4_8.tif,1.4,0,,,,,,,,,,,,,0,41,41,25,,,,,,,,,,,3,space,4,1.502,2.2039596,,,,,,,,,,,,,,,,,,2019_Aug_30_1558,59.673098830382635,Cloud_Experiment_FR_REAL,001,44,
images/fcloud80-20_D1.2_7.tif,1.2,2,,,,,,,,,,,,,0,42,42,112,,,,,,,,,,,2,space,4,0.536,2.5722431,,,,,,,,,,,,,,,,,,2019_Aug_30_1558,59.673098830382635,Cloud_Experiment_FR_REAL,001,44,
images/fcloud80-20_D1.4_9.tif,1.4,2,,,,,,,,,,,,,0,43,43,122,,,,,,,,,,,1,space,3,0.652,1.2711296,,,,,,,,,,,,,,,,,,2019_Aug_30_1558,59.673098830382635,Cloud_Experiment_FR_REAL,001,44,
images/fcloud_D1.6_8.tif,1.6,0,,,,,,,,,,,,,0,44,44,33,,,,,,,,,,,2,space,4,0.684,4.4671628,,,,,,,,,,,,,,,,,,2019_Aug_30_1558,59.673098830382635,Cloud_Experiment_FR_REAL,001,44,
images/fcloud_D1.6_10.tif,1.6,0,,,,,,,,,,,,,0,45,45,35,,,,,,,,,,,1,space,5,0.553,3.06141540001,,,,,,,,,,,,,,,,,,2019_Aug_30_1558,59.673098830382635,Cloud_Experiment_FR_REAL,001,44,
images/fcloud80-20_D1.1_9.tif,1.1,2,,,,,,,,,,,,,0,46,46,110,,,,,,,,,,,1,space,4,0.553,2.1576356,,,,,,,,,,,,,,,,,,2019_Aug_30_1558,59.673098830382635,Cloud_Experiment_FR_REAL,001,44,
images/fcloud_D0.9_10.tif,0.9,0,,,,,,,,,,,,,0,47,47,7,,,,,,,,,,,2,space,4,0.42,3.6298216,,,,,,,,,,,,,,,,,,2019_Aug_30_1558,59.673098830382635,Cloud_Experiment_FR_REAL,001,44,
images/fcloud80-20_D1_9.tif,1.0,2,,,,,,,,,,,,,0,48,48,106,,,,,,,,,,,2,space,4,0.519,2.390262,,,,,,,,,,,,,,,,,,2019_Aug_30_1558,59.673098830382635,Cloud_Experiment_FR_REAL,001,44,
images/fcloud65-35_D0.8_10.tif,0.8,1,,,,,,,,,,,,,0,49,49,51,,,,,,,,,,,2,space,2,0.602,3.1865729,,,,,,,,,,,,,,,,,,2019_Aug_30_1558,59.673098830382635,Cloud_Experiment_FR_REAL,001,44,
images/fcloud65-35_D1.9_8.tif,1.9,1,,,,,,,,,,,,,0,50,50,93,,,,,,,,,,,5,space,5,0.521,2.318095,,,,,,,,,,,,,,,,,,2019_Aug_30_1558,59.673098830382635,Cloud_Experiment_FR_REAL,001,44,
images/fcloud_D1.8_10.tif,1.8,0,,,,,,,,,,,,,0,51,51,43,,,,,,,,,,,3,space,5,0.969,2.9826794,,,,,,,,,,,,,,,,,,2019_Aug_30_1558,59.673098830382635,Cloud_Experiment_FR_REAL,001,44,
images/fcloud65-35_D1.1_7.tif,1.1,1,,,,,,,,,,,,,0,52,52,60,,,,,,,,,,,2,space,4,0.602,1.9163352,,,,,,,,,,,,,,,,,,2019_Aug_30_1558,59.673098830382635,Cloud_Experiment_FR_REAL,001,44,
images/fcloud_D1.4_7.tif,1.4,0,,,,,,,,,,,,,0,53,53,24,,,,,,,,,,,2,space,5,0.452,1.2415497,,,,,,,,,,,,,,,,,,2019_Aug_30_1558,59.673098830382635,Cloud_Experiment_FR_REAL,001,44,
images/fcloud80-20_D1.9_8.tif,1.9,2,,,,,,,,,,,,,0,54,54,141,,,,,,,,,,,4,space,2,0.553,5.2836817,,,,,,,,,,,,,,,,,,2019_Aug_30_1558,59.673098830382635,Cloud_Experiment_FR_REAL,001,44,
images/fcloud65-35_D1_9.tif,1.0,1,,,,,,,,,,,,,0,55,55,58,,,,,,,,,,,1,space,3,1.485,4.1598841,,,,,,,,,,,,,,,,,,2019_Aug_30_1558,59.673098830382635,Cloud_Experiment_FR_REAL,001,44,
images/fcloud80-20_D1.1_7.tif,1.1,2,,,,,,,,,,,,,0,56,56,108,,,,,,,,,,,1,space,5,0.636,2.2889872,,,,,,,,,,,,,,,,,,2019_Aug_30_1558,59.673098830382635,Cloud_Experiment_FR_REAL,001,44,
images/fcloud_D1.1_8.tif,1.1,0,,,,,,,,,,,,,0,57,57,13,,,,,,,,,,,1,space,4,0.619,2.67364730001,,,,,,,,,,,,,,,,,,2019_Aug_30_1558,59.673098830382635,Cloud_Experiment_FR_REAL,001,44,
images/fcloud_D1.8_8.tif,1.8,0,,,,,,,,,,,,,0,58,58,41,,,,,,,,,,,1,space,4,0.568,3.3003873,,,,,,,,,,,,,,,,,,2019_Aug_30_1558,59.673098830382635,Cloud_Experiment_FR_REAL,001,44,
images/fcloud80-20_D1.3_9.tif,1.3,2,,,,,,,,,,,,,0,59,59,118,,,,,,,,,,,2,space,2,0.436,2.984375,,,,,,,,,,,,,,,,,,2019_Aug_30_1558,59.673098830382635,Cloud_Experiment_FR_REAL,001,44,
images/fcloud65-35_D1_10.tif,1.0,1,,,,,,,,,,,,,0,60,60,59,,,,,,,,,,,1,space,4,0.485,1.8190127,,,,,,,,,,,,,,,,,,2019_Aug_30_1558,59.673098830382635,Cloud_Experiment_FR_REAL,001,44,
images/fcloud65-35_D0.8_8.tif,0.8,1,,,,,,,,,,,,,0,61,61,49,,,,,,,,,,,1,space,5,0.519,4.2019695,,,,,,,,,,,,,,,,,,2019_Aug_30_1558,59.673098830382635,Cloud_Experiment_FR_REAL,001,44,
images/fcloud_D1.7_8.tif,1.7,0,,,,,,,,,,,,,0,62,62,37,,,,,,,,,,,1,space,1,0.768,7.4943242,,,,,,,,,,,,,,,,,,2019_Aug_30_1558,59.673098830382635,Cloud_Experiment_FR_REAL,001,44,
images/fcloud80-20_D1.8_8.tif,1.8,2,,,,,,,,,,,,,0,63,63,137,,,,,,,,,,,2,space,3,0.902,5.46030860001,,,,,,,,,,,,,,,,,,2019_Aug_30_1558,59.673098830382635,Cloud_Experiment_FR_REAL,001,44,
images/fcloud65-35_D1.1_9.tif,1.1,1,,,,,,,,,,,,,0,64,64,62,,,,,,,,,,,3,space,4,0.985,4.7890997,,,,,,,,,,,,,,,,,,2019_Aug_30_1558,59.673098830382635,Cloud_Experiment_FR_REAL,001,44,
images/fcloud65-35_D1.1_8.tif,1.1,1,,,,,,,,,,,,,0,65,65,61,,,,,,,,,,,1,space,4,0.486,2.1899629,,,,,,,,,,,,,,,,,,2019_Aug_30_1558,59.673098830382635,Cloud_Experiment_FR_REAL,001,44,
images/fcloud65-35_D1_7.tif,1.0,1,,,,,,,,,,,,,0,66,66,56,,,,,,,,,,,2,space,3,0.486,3.4579994,,,,,,,,,,,,,,,,,,2019_Aug_30_1558,59.673098830382635,Cloud_Experiment_FR_REAL,001,44,
images/fcloud_D0.9_7.tif,0.9,0,,,,,,,,,,,,,0,67,67,4,,,,,,,,,,,2,space,5,0.569,2.4706217,,,,,,,,,,,,,,,,,,2019_Aug_30_1558,59.673098830382635,Cloud_Experiment_FR_REAL,001,44,
images/fcloud_D1.7_7.tif,1.7,0,,,,,,,,,,,,,0,68,68,36,,,,,,,,,,,3,space,4,0.468,2.3050767,,,,,,,,,,,,,,,,,,2019_Aug_30_1558,59.673098830382635,Cloud_Experiment_FR_REAL,001,44,
images/fcloud80-20_D0.9_9.tif,0.9,2,,,,,,,,,,,,,0,69,69,102,,,,,,,,,,,3,space,5,1.468,1.38517070001,,,,,,,,,,,,,,,,,,2019_Aug_30_1558,59.673098830382635,Cloud_Experiment_FR_REAL,001,44,
images/fcloud65-35_D1.6_8.tif,1.6,1,,,,,,,,,,,,,0,70,70,81,,,,,,,,,,,2,space,3,0.419,5.24792720001,,,,,,,,,,,,,,,,,,2019_Aug_30_1558,59.673098830382635,Cloud_Experiment_FR_REAL,001,44,
images/fcloud_D1.5_10.tif,1.5,0,,,,,,,,,,,,,0,71,71,31,,,,,,,,,,,1,space,2,0.452,5.202986,,,,,,,,,,,,,,,,,,2019_Aug_30_1558,59.673098830382635,Cloud_Experiment_FR_REAL,001,44,
images/fcloud_D1.6_7.tif,1.6,0,,,,,,,,,,,,,0,72,72,32,,,,,,,,,,,1,space,4,0.552,2.1418235,,,,,,,,,,,,,,,,,,2019_Aug_30_1558,59.673098830382635,Cloud_Experiment_FR_REAL,001,44,
images/fcloud65-35_D1.1_10.tif,1.1,1,,,,,,,,,,,,,0,73,73,63,,,,,,,,,,,1,space,2,0.819,4.8966619,,,,,,,,,,,,,,,,,,2019_Aug_30_1558,59.673098830382635,Cloud_Experiment_FR_REAL,001,44,
images/fcloud80-20_D1_10.tif,1.0,2,,,,,,,,,,,,,0,74,74,107,,,,,,,,,,,1,space,3,0.552,3.0249636,,,,,,,,,,,,,,,,,,2019_Aug_30_1558,59.673098830382635,Cloud_Experiment_FR_REAL,001,44,
images/fcloud80-20_D1.7_9.tif,1.7,2,,,,,,,,,,,,,0,75,75,134,,,,,,,,,,,1,space,4,0.535,2.7738362,,,,,,,,,,,,,,,,,,2019_Aug_30_1558,59.673098830382635,Cloud_Experiment_FR_REAL,001,44,
images/fcloud65-35_D1.4_8.tif,1.4,1,,,,,,,,,,,,,0,76,76,73,,,,,,,,,,,5,space,5,0.469,1.1726202,,,,,,,,,,,,,,,,,,2019_Aug_30_1558,59.673098830382635,Cloud_Experiment_FR_REAL,001,44,
images/fcloud_D1.5_7.tif,1.5,0,,,,,,,,,,,,,0,77,77,28,,,,,,,,,,,2,space,4,0.669,3.4992619,,,,,,,,,,,,,,,,,,2019_Aug_30_1558,59.673098830382635,Cloud_Experiment_FR_REAL,001,44,
images/fcloud_D0.8_10.tif,0.8,0,,,,,,,,,,,,,0,78,78,3,,,,,,,,,,,2,space,2,1.069,4.7418133,,,,,,,,,,,,,,,,,,2019_Aug_30_1558,59.673098830382635,Cloud_Experiment_FR_REAL,001,44,
images/fcloud_D1_9.tif,1.0,0,,,,,,,,,,,,,0,79,79,10,,,,,,,,,,,1,space,3,0.419,4.577529,,,,,,,,,,,,,,,,,,2019_Aug_30_1558,59.673098830382635,Cloud_Experiment_FR_REAL,001,44,
images/fcloud65-35_D0.9_9.tif,0.9,1,,,,,,,,,,,,,0,80,80,54,,,,,,,,,,,1,space,4,0.519,4.0462949,,,,,,,,,,,,,,,,,,2019_Aug_30_1558,59.673098830382635,Cloud_Experiment_FR_REAL,001,44,
images/fcloud65-35_D0.9_8.tif,0.9,1,,,,,,,,,,,,,0,81,81,53,,,,,,,,,,,1,space,3,0.603,5.53716219999,,,,,,,,,,,,,,,,,,2019_Aug_30_1558,59.673098830382635,Cloud_Experiment_FR_REAL,001,44,
images/fcloud80-20_D1.2_9.tif,1.2,2,,,,,,,,,,,,,0,82,82,114,,,,,,,,,,,1,space,5,0.468,1.8462387,,,,,,,,,,,,,,,,,,2019_Aug_30_1558,59.673098830382635,Cloud_Experiment_FR_REAL,001,44,
images/fcloud80-20_D1.6_9.tif,1.6,2,,,,,,,,,,,,,0,83,83,130,,,,,,,,,,,3,space,4,0.902,3.3273179,,,,,,,,,,,,,,,,,,2019_Aug_30_1558,59.673098830382635,Cloud_Experiment_FR_REAL,001,44,
images/fcloud80-20_D1.6_10.tif,1.6,2,,,,,,,,,,,,,0,84,84,131,,,,,,,,,,,1,space,5,0.502,2.2162886,,,,,,,,,,,,,,,,,,2019_Aug_30_1558,59.673098830382635,Cloud_Experiment_FR_REAL,001,44,
images/fcloud65-35_D0.8_7.tif,0.8,1,,,,,,,,,,,,,0,85,85,48,,,,,,,,,,,2,space,4,0.453,1.882796,,,,,,,,,,,,,,,,,,2019_Aug_30_1558,59.673098830382635,Cloud_Experiment_FR_REAL,001,44,
images/fcloud80-20_D1.3_10.tif,1.3,2,,,,,,,,,,,,,0,86,86,119,,,,,,,,,,,3,space,4,0.519,5.63972409999,,,,,,,,,,,,,,,,,,2019_Aug_30_1558,59.673098830382635,Cloud_Experiment_FR_REAL,001,44,
images/fcloud65-35_D0.9_7.tif,0.9,1,,,,,,,,,,,,,0,87,87,52,,,,,,,,,,,2,space,4,0.535,1.3858123,,,,,,,,,,,,,,,,,,2019_Aug_30_1558,59.673098830382635,Cloud_Experiment_FR_REAL,001,44,
images/fcloud65-35_D1_8.tif,1.0,1,,,,,,,,,,,,,0,88,88,57,,,,,,,,,,,2,space,4,3.351,3.8343855,,,,,,,,,,,,,,,,,,2019_Aug_30_1558,59.673098830382635,Cloud_Experiment_FR_REAL,001,44,
images/fcloud65-35_D1.8_10.tif,1.8,1,,,,,,,,,,,,,0,89,89,91,,,,,,,,,,,3,space,4,1.268,3.5137425,,,,,,,,,,,,,,,,,,2019_Aug_30_1558,59.673098830382635,Cloud_Experiment_FR_REAL,001,44,
images/fcloud_D1.4_9.tif,1.4,0,,,,,,,,,,,,,0,90,90,26,,,,,,,,,,,1,space,2,0.453,5.6863153,,,,,,,,,,,,,,,,,,2019_Aug_30_1558,59.673098830382635,Cloud_Experiment_FR_REAL,001,44,
images/fcloud_D1.6_9.tif,1.6,0,,,,,,,,,,,,,0,91,91,34,,,,,,,,,,,2,space,5,1.084,2.0028784,,,,,,,,,,,,,,,,,,2019_Aug_30_1558,59.673098830382635,Cloud_Experiment_FR_REAL,001,44,
images/fcloud_D1.1_7.tif,1.1,0,,,,,,,,,,,,,0,92,92,12,,,,,,,,,,,1,space,4,0.469,1.8685386,,,,,,,,,,,,,,,,,,2019_Aug_30_1558,59.673098830382635,Cloud_Experiment_FR_REAL,001,44,
images/fcloud80-20_D1.9_7.tif,1.9,2,,,,,,,,,,,,,0,93,93,140,,,,,,,,,,,1,space,4,1.635,2.9655668,,,,,,,,,,,,,,,,,,2019_Aug_30_1558,59.673098830382635,Cloud_Experiment_FR_REAL,001,44,
images/fcloud80-20_D1.6_7.tif,1.6,2,,,,,,,,,,,,,0,94,94,128,,,,,,,,,,,1,space,5,0.503,1.43165319999,,,,,,,,,,,,,,,,,,2019_Aug_30_1558,59.673098830382635,Cloud_Experiment_FR_REAL,001,44,
images/fcloud80-20_D1.7_7.tif,1.7,2,,,,,,,,,,,,,0,95,95,132,,,,,,,,,,,1,space,2,1.284,5.5113216,,,,,,,,,,,,,,,,,,2019_Aug_30_1558,59.673098830382635,Cloud_Experiment_FR_REAL,001,44,
images/fcloud80-20_D1.5_9.tif,1.5,2,,,,,,,,,,,,,0,96,96,126,,,,,,,,,,,4,space,4,1.068,4.1704464,,,,,,,,,,,,,,,,,,2019_Aug_30_1558,59.673098830382635,Cloud_Experiment_FR_REAL,001,44,
images/fcloud65-35_D1.7_8.tif,1.7,1,,,,,,,,,,,,,0,97,97,85,,,,,,,,,,,1,space,4,0.469,1.7338879,,,,,,,,,,,,,,,,,,2019_Aug_30_1558,59.673098830382635,Cloud_Experiment_FR_REAL,001,44,
images/fcloud65-35_D1.2_9.tif,1.2,1,,,,,,,,,,,,,0,98,98,66,,,,,,,,,,,1,space,2,0.453,3.73871100001,,,,,,,,,,,,,,,,,,2019_Aug_30_1558,59.673098830382635,Cloud_Experiment_FR_REAL,001,44,
images/fcloud_D1_7.tif,1.0,0,,,,,,,,,,,,,0,99,99,8,,,,,,,,,,,1,space,5,0.586,1.5707918,,,,,,,,,,,,,,,,,,2019_Aug_30_1558,59.673098830382635,Cloud_Experiment_FR_REAL,001,44,
images/fcloud80-20_D1.4_7.tif,1.4,2,,,,,,,,,,,,,0,100,100,120,,,,,,,,,,,2,space,4,1.535,3.4950131,,,,,,,,,,,,,,,,,,2019_Aug_30_1558,59.673098830382635,Cloud_Experiment_FR_REAL,001,44,
images/fcloud65-35_D1.2_8.tif,1.2,1,,,,,,,,,,,,,0,101,101,65,,,,,,,,,,,1,space,3,0.886,6.2544035,,,,,,,,,,,,,,,,,,2019_Aug_30_1558,59.673098830382635,Cloud_Experiment_FR_REAL,001,44,
images/fcloud65-35_D1.5_8.tif,1.5,1,,,,,,,,,,,,,0,102,102,77,,,,,,,,,,,1,space,5,0.503,2.2555984,,,,,,,,,,,,,,,,,,2019_Aug_30_1558,59.673098830382635,Cloud_Experiment_FR_REAL,001,44,
images/fcloud80-20_D1.7_10.tif,1.7,2,,,,,,,,,,,,,0,103,103,135,,,,,,,,,,,2,space,4,0.569,1.96987779999,,,,,,,,,,,,,,,,,,2019_Aug_30_1558,59.673098830382635,Cloud_Experiment_FR_REAL,001,44,
images/fcloud_D1.2_10.tif,1.2,0,,,,,,,,,,,,,0,104,104,19,,,,,,,,,,,None,None,None,9.028,,,,,,,,,,,,,,,,,,,2019_Aug_30_1558,59.673098830382635,Cloud_Experiment_FR_REAL,001,44,
images/fcloud80-20_D1.8_10.tif,1.8,2,,,,,,,,,,,,,0,105,105,139,,,,,,,,,,,2,space,3,0.652,3.0453215,,,,,,,,,,,,,,,,,,2019_Aug_30_1558,59.673098830382635,Cloud_Experiment_FR_REAL,001,44,
images/fcloud65-35_D1.2_10.tif,1.2,1,,,,,,,,,,,,,0,106,106,67,,,,,,,,,,,1,space,4,0.453,2.50971480001,,,,,,,,,,,,,,,,,,2019_Aug_30_1558,59.673098830382635,Cloud_Experiment_FR_REAL,001,44,
images/fcloud65-35_D1.3_7.tif,1.3,1,,,,,,,,,,,,,0,107,107,68,,,,,,,,,,,3,space,4,0.734,3.129115,,,,,,,,,,,,,,,,,,2019_Aug_30_1558,59.673098830382635,Cloud_Experiment_FR_REAL,001,44,
images/fcloud65-35_D1.7_9.tif,1.7,1,,,,,,,,,,,,,0,108,108,86,,,,,,,,,,,2,space,5,0.653,1.1720077,,,,,,,,,,,,,,,,,,2019_Aug_30_1558,59.673098830382635,Cloud_Experiment_FR_REAL,001,44,
images/fcloud_D1.3_10.tif,1.3,0,,,,,,,,,,,,,0,109,109,23,,,,,,,,,,,1,space,5,0.603,2.07724889999,,,,,,,,,,,,,,,,,,2019_Aug_30_1558,59.673098830382635,Cloud_Experiment_FR_REAL,001,44,
images/fcloud80-20_D1.5_8.tif,1.5,2,,,,,,,,,,,,,0,110,110,125,,,,,,,,,,,1,space,4,0.669,2.21954519999,,,,,,,,,,,,,,,,,,2019_Aug_30_1558,59.673098830382635,Cloud_Experiment_FR_REAL,001,44,
images/fcloud65-35_D1.9_10.tif,1.9,1,,,,,,,,,,,,,0,111,111,95,,,,,,,,,,,1,space,5,0.669,2.0686336,,,,,,,,,,,,,,,,,,2019_Aug_30_1558,59.673098830382635,Cloud_Experiment_FR_REAL,001,44,
images/fcloud_D0.9_9.tif,0.9,0,,,,,,,,,,,,,0,112,112,6,,,,,,,,,,,3,space,5,1.234,2.2740032,,,,,,,,,,,,,,,,,,2019_Aug_30_1558,59.673098830382635,Cloud_Experiment_FR_REAL,001,44,
images/fcloud_D1.9_10.tif,1.9,0,,,,,,,,,,,,,0,113,113,47,,,,,,,,,,,1,space,2,0.485,5.6098154,,,,,,,,,,,,,,,,,,2019_Aug_30_1558,59.673098830382635,Cloud_Experiment_FR_REAL,001,44,
images/fcloud_D1_8.tif,1.0,0,,,,,,,,,,,,,0,114,114,9,,,,,,,,,,,1,space,1,0.569,6.9056726,,,,,,,,,,,,,,,,,,2019_Aug_30_1558,59.673098830382635,Cloud_Experiment_FR_REAL,001,44,
images/fcloud_D1.7_9.tif,1.7,0,,,,,,,,,,,,,0,115,115,38,,,,,,,,,,,2,space,4,0.552,1.2910564,,,,,,,,,,,,,,,,,,2019_Aug_30_1558,59.673098830382635,Cloud_Experiment_FR_REAL,001,44,
images/fcloud65-35_D1.8_7.tif,1.8,1,,,,,,,,,,,,,0,116,116,88,,,,,,,,,,,3,space,4,0.485,1.73212379999,,,,,,,,,,,,,,,,,,2019_Aug_30_1558,59.673098830382635,Cloud_Experiment_FR_REAL,001,44,
images/fcloud_D1.1_10.tif,1.1,0,,,,,,,,,,,,,0,117,117,15,,,,,,,,,,,1,space,5,0.535,1.4465247,,,,,,,,,,,,,,,,,,2019_Aug_30_1558,59.673098830382635,Cloud_Experiment_FR_REAL,001,44,
images/fcloud80-20_D0.9_7.tif,0.9,2,,,,,,,,,,,,,0,118,118,100,,,,,,,,,,,1,space,5,0.486,1.5335969,,,,,,,,,,,,,,,,,,2019_Aug_30_1558,59.673098830382635,Cloud_Experiment_FR_REAL,001,44,
images/fcloud_D0.8_7.tif,0.8,0,,,,,,,,,,,,,0,119,119,0,,,,,,,,,,,1,space,3,0.552,4.2300597,,,,,,,,,,,,,,,,,,2019_Aug_30_1558,59.673098830382635,Cloud_Experiment_FR_REAL,001,44,
images/fcloud80-20_D1.7_8.tif,1.7,2,,,,,,,,,,,,,0,120,120,133,,,,,,,,,,,3,space,4,1.718,2.1373455,,,,,,,,,,,,,,,,,,2019_Aug_30_1558,59.673098830382635,Cloud_Experiment_FR_REAL,001,44,
images/fcloud80-20_D1.2_10.tif,1.2,2,,,,,,,,,,,,,0,121,121,115,,,,,,,,,,,1,space,2,0.453,2.975094,,,,,,,,,,,,,,,,,,2019_Aug_30_1558,59.673098830382635,Cloud_Experiment_FR_REAL,001,44,
images/fcloud_D1_10.tif,1.0,0,,,,,,,,,,,,,0,122,122,11,,,,,,,,,,,1,space,3,1.968,5.2490924,,,,,,,,,,,,,,,,,,2019_Aug_30_1558,59.673098830382635,Cloud_Experiment_FR_REAL,001,44,
images/fcloud65-35_D1.7_10.tif,1.7,1,,,,,,,,,,,,,0,123,123,87,,,,,,,,,,,1,space,5,0.569,1.6391869,,,,,,,,,,,,,,,,,,2019_Aug_30_1558,59.673098830382635,Cloud_Experiment_FR_REAL,001,44,
images/fcloud80-20_D0.8_9.tif,0.8,2,,,,,,,,,,,,,0,124,124,98,,,,,,,,,,,1,space,5,0.502,1.6747274,,,,,,,,,,,,,,,,,,2019_Aug_30_1558,59.673098830382635,Cloud_Experiment_FR_REAL,001,44,
images/fcloud80-20_D1.4_10.tif,1.4,2,,,,,,,,,,,,,0,125,125,123,,,,,,,,,,,5,space,5,0.801,2.3907442,,,,,,,,,,,,,,,,,,2019_Aug_30_1558,59.673098830382635,Cloud_Experiment_FR_REAL,001,44,
images/fcloud80-20_D1.3_8.tif,1.3,2,,,,,,,,,,,,,0,126,126,117,,,,,,,,,,,2,space,5,0.436,0.983879200001,,,,,,,,,,,,,,,,,,2019_Aug_30_1558,59.673098830382635,Cloud_Experiment_FR_REAL,001,44,
images/fcloud80-20_D0.8_7.tif,0.8,2,,,,,,,,,,,,,0,127,127,96,,,,,,,,,,,None,None,None,8.811,,,,,,,,,,,,,,,,,,,2019_Aug_30_1558,59.673098830382635,Cloud_Experiment_FR_REAL,001,44,
images/fcloud_D1.8_7.tif,1.8,0,,,,,,,,,,,,,0,128,128,40,,,,,,,,,,,1,space,5,0.569,2.7461059,,,,,,,,,,,,,,,,,,2019_Aug_30_1558,59.673098830382635,Cloud_Experiment_FR_REAL,001,44,
images/fcloud_D1.2_9.tif,1.2,0,,,,,,,,,,,,,0,129,129,18,,,,,,,,,,,1,space,2,1.252,6.7434645,,,,,,,,,,,,,,,,,,2019_Aug_30_1558,59.673098830382635,Cloud_Experiment_FR_REAL,001,44,
images/fcloud65-35_D1.5_10.tif,1.5,1,,,,,,,,,,,,,0,130,130,79,,,,,,,,,,,3,space,4,0.486,3.354869,,,,,,,,,,,,,,,,,,2019_Aug_30_1558,59.673098830382635,Cloud_Experiment_FR_REAL,001,44,
images/fcloud_D1.3_7.tif,1.3,0,,,,,,,,,,,,,0,131,131,20,,,,,,,,,,,4,space,4,2.035,2.3939835,,,,,,,,,,,,,,,,,,2019_Aug_30_1558,59.673098830382635,Cloud_Experiment_FR_REAL,001,44,
images/fcloud65-35_D1.9_7.tif,1.9,1,,,,,,,,,,,,,0,132,132,92,,,,,,,,,,,1,space,5,0.57,1.1439516,,,,,,,,,,,,,,,,,,2019_Aug_30_1558,59.673098830382635,Cloud_Experiment_FR_REAL,001,44,
images/fcloud65-35_D1.9_9.tif,1.9,1,,,,,,,,,,,,,0,133,133,94,,,,,,,,,,,3,space,4,0.502,1.1810879,,,,,,,,,,,,,,,,,,2019_Aug_30_1558,59.673098830382635,Cloud_Experiment_FR_REAL,001,44,
images/fcloud80-20_D1.4_8.tif,1.4,2,,,,,,,,,,,,,0,134,134,121,,,,,,,,,,,1,space,4,0.586,4.6151158,,,,,,,,,,,,,,,,,,2019_Aug_30_1558,59.673098830382635,Cloud_Experiment_FR_REAL,001,44,
images/fcloud65-35_D1.4_9.tif,1.4,1,,,,,,,,,,,,,0,135,135,74,,,,,,,,,,,1,space,5,0.734,6.5293345,,,,,,,,,,,,,,,,,,2019_Aug_30_1558,59.673098830382635,Cloud_Experiment_FR_REAL,001,44,
images/fcloud80-20_D0.9_10.tif,0.9,2,,,,,,,,,,,,,0,136,136,103,,,,,,,,,,,1,space,2,1.135,6.2161834,,,,,,,,,,,,,,,,,,2019_Aug_30_1558,59.673098830382635,Cloud_Experiment_FR_REAL,001,44,
images/fcloud80-20_D1.9_9.tif,1.9,2,,,,,,,,,,,,,0,137,137,142,,,,,,,,,,,2,space,4,0.951,3.03954680001,,,,,,,,,,,,,,,,,,2019_Aug_30_1558,59.673098830382635,Cloud_Experiment_FR_REAL,001,44,
images/fcloud65-35_D1.3_8.tif,1.3,1,,,,,,,,,,,,,0,138,138,69,,,,,,,,,,,2,space,4,0.851,3.0867847,,,,,,,,,,,,,,,,,,2019_Aug_30_1558,59.673098830382635,Cloud_Experiment_FR_REAL,001,44,
images/fcloud_D0.8_9.tif,0.8,0,,,,,,,,,,,,,0,139,139,2,,,,,,,,,,,1,space,4,0.519,2.5222627,,,,,,,,,,,,,,,,,,2019_Aug_30_1558,59.673098830382635,Cloud_Experiment_FR_REAL,001,44,
images/fcloud65-35_D1.4_10.tif,1.4,1,,,,,,,,,,,,,0,140,140,75,,,,,,,,,,,3,space,2,0.669,2.5773762,,,,,,,,,,,,,,,,,,2019_Aug_30_1558,59.673098830382635,Cloud_Experiment_FR_REAL,001,44,
images/fcloud65-35_D1.6_10.tif,1.6,1,,,,,,,,,,,,,0,141,141,83,,,,,,,,,,,3,space,5,0.486,2.3113655,,,,,,,,,,,,,,,,,,2019_Aug_30_1558,59.673098830382635,Cloud_Experiment_FR_REAL,001,44,
images/fcloud_D1.2_7.tif,1.2,0,,,,,,,,,,,,,0,142,142,16,,,,,,,,,,,2,space,4,0.553,4.09822219999,,,,,,,,,,,,,,,,,,2019_Aug_30_1558,59.673098830382635,Cloud_Experiment_FR_REAL,001,44,
images/fcloud_D1.5_8.tif,1.5,0,,,,,,,,,,,,,0,143,143,29,,,,,,,,,,,5,space,5,0.602,2.3165786,,,,,,,,,,,,,,,,,,2019_Aug_30_1558,59.673098830382635,Cloud_Experiment_FR_REAL,001,44,
,,,,,,,,,,,,,,,,,,,,,,,,,9,8.432,,,,,,,,,,,,,,,,,,,,,,,,,2019_Aug_30_1558,59.673098830382635,Cloud_Experiment_FR_REAL,001,44,
,,,,,,,,,,,,,,,,,,,,,,,,,,,,,,,,,,7,,,,,,,,,,,,,,,,,2019_Aug_30_1558,59.673098830382635,Cloud_Experiment_FR_REAL,001,44,
,,,,,,,,,,,,,,,,,,,,,,,,,,,,,,,,,,,7,,,,,,,,,,,,,,,,2019_Aug_30_1558,59.673098830382635,Cloud_Experiment_FR_REAL,001,44,
,,,,,,,,,,,,,,,,,,,,,,,,,,,,,,,,,,,,7,,,,,,,,,,,,,,,2019_Aug_30_1558,59.673098830382635,Cloud_Experiment_FR_REAL,001,44,
,,,,,,,,,,,,,,,,,,,,,,,,,,,,,,,,,,,,,7,,,,,,,,,,,,,,2019_Aug_30_1558,59.673098830382635,Cloud_Experiment_FR_REAL,001,44,
,,,,,,,,,,,,,,,,,,,,,,,,,,,,,,,,,,,,,,7,,,,,,,,,,,,,2019_Aug_30_1558,59.673098830382635,Cloud_Experiment_FR_REAL,001,44,
,,,,,,,,,,,,,,,,,,,,,,,,,,,,,,,,,,,,,,,7,,,,,,,,,,,,2019_Aug_30_1558,59.673098830382635,Cloud_Experiment_FR_REAL,001,44,
,,,,,,,,,,,,,,,,,,,,,,,,,,,,,,,,,,,,,,,,7,,,,,,,,,,,2019_Aug_30_1558,59.673098830382635,Cloud_Experiment_FR_REAL,001,44,
,,,,,,,,,,,,,,,,,,,,,,,,,,,,,,,,,,,,,,,,,7,,,,,,,,,,2019_Aug_30_1558,59.673098830382635,Cloud_Experiment_FR_REAL,001,44,
,,,,,,,,,,,,,,,,,,,,,,,,,,,,,,,,,,,,,,,,,,7,,,,,,,,,2019_Aug_30_1558,59.673098830382635,Cloud_Experiment_FR_REAL,001,44,
,,,,,,,,,,,,,,,,,,,,,,,,,,,,,,,,,,,,,,,,,,,6,,,,,,,,2019_Aug_30_1558,59.673098830382635,Cloud_Experiment_FR_REAL,001,44,
,,,,,,,,,,,,,,,,,,,,,,,,,,,,,,,,,,,,,,,,,,,,,,,,,,3,2019_Aug_30_1558,59.673098830382635,Cloud_Experiment_FR_REAL,001,44,
