ImageFile,FD,Contrast,trials_4.thisRepN,trials_4.thisTrialN,trials_4.thisN,trials_4.thisIndex,trials.thisRepN,trials.thisTrialN,trials.thisN,trials.thisIndex,trials_2.thisRepN,trials_2.thisTrialN,trials_2.thisN,trials_2.thisIndex,trials_3.thisRepN,trials_3.thisTrialN,trials_3.thisN,trials_3.thisIndex,end_instructions.keys,end_instructions.rt,key_resp_4.keys,key_resp_4.rt,key_resp_6.keys,key_resp_6.rt,Fatigue.response,Fatigue.rt,key_resp_5.keys,key_resp_5.rt,n_objets.response,reaction_time.keys,vividness.response,vividness.rt,reaction_time.rt,Flow01.response,Flow02.response,Flow03.response,Flow04.response,Flow05.response,Flow06.response,Flow07.response,Flow08.response,Flow09.response,Flow10.response,key_resp_2.keys,key_resp_2.rt,key_resp_8.keys,key_resp_8.rt,key_resp_3.keys,key_resp_3.rt,Redondance_question.response,date,frameRate,expName,session,participant,
,,,,,,,,,,,,,,,,,,,space,27.3961411,,,,,,,,,,,,,,,,,,,,,,,,,,,,,,,2019_Sep_03_1819,60.890066638865704,Cloud_Experiment_FR_REAL,001,45,
,,,,,,,,,,,,,,,,,,,,,space,172.0179865,,,,,,,,,,,,,,,,,,,,,,,,,,,,,2019_Sep_03_1819,60.890066638865704,Cloud_Experiment_FR_REAL,001,45,
,,,,,,,,,,,,,,,,,,,,,,,space,20.1503692,,,,,,,,,,,,,,,,,,,,,,,,,,,2019_Sep_03_1819,60.890066638865704,Cloud_Experiment_FR_REAL,001,45,
,,,,,,,,,,,,,,,,,,,,,,,,,7,17.013,,,,,,,,,,,,,,,,,,,,,,,,,2019_Sep_03_1819,60.890066638865704,Cloud_Experiment_FR_REAL,001,45,
,,,,,,,,,,,,,,,,,,,,,,,,,,,space,6.0628101,,,,,,,,,,,,,,,,,,,,,,,2019_Sep_03_1819,60.890066638865704,Cloud_Experiment_FR_REAL,001,45,
pratique/fcloud80-20_D1_30,1.0,2,0,0,0,9,,,,,,,,,,,,,,,,,,,,,,,1,None,3,6.781,,,,,,,,,,,,,,,,,,,2019_Sep_03_1819,60.890066638865704,Cloud_Experiment_FR_REAL,001,45,
pratique/fcloud80-20_D1.5_30,1.5,2,0,1,1,8,,,,,,,,,,,,,,,,,,,,,,,2,None,2,6.631,,,,,,,,,,,,,,,,,,,2019_Sep_03_1819,60.890066638865704,Cloud_Experiment_FR_REAL,001,45,
pratique/fcloud_D1.4_30,1.4,0,0,2,2,1,,,,,,,,,,,,,,,,,,,,,,,None,None,None,16.387,,,,,,,,,,,,,,,,,,,2019_Sep_03_1819,60.890066638865704,Cloud_Experiment_FR_REAL,001,45,
pratique/fcloud65-35_D1.6_30,1.6,1,0,3,3,2,,,,,,,,,,,,,,,,,,,,,,,1,space,1,1.818,4.652717,,,,,,,,,,,,,,,,,,2019_Sep_03_1819,60.890066638865704,Cloud_Experiment_FR_REAL,001,45,
pratique/fcloud65-35_D1.3_30,1.3,1,0,4,4,6,,,,,,,,,,,,,,,,,,,,,,,1,None,4,2.768,,,,,,,,,,,,,,,,,,,2019_Sep_03_1819,60.890066638865704,Cloud_Experiment_FR_REAL,001,45,
pratique/fcloud80-20_D1.8_30,1.8,2,0,5,5,4,,,,,,,,,,,,,,,,,,,,,,,1,None,2,1.152,,,,,,,,,,,,,,,,,,,2019_Sep_03_1819,60.890066638865704,Cloud_Experiment_FR_REAL,001,45,
pratique/fcloud65-35_D1.9_29,1.9,1,0,6,6,7,,,,,,,,,,,,,,,,,,,,,,,1,space,2,1.152,3.2937009,,,,,,,,,,,,,,,,,,2019_Sep_03_1819,60.890066638865704,Cloud_Experiment_FR_REAL,001,45,
pratique/fcloud_D0.8_30,0.8,0,0,7,7,0,,,,,,,,,,,,,,,,,,,,,,,1,space,2,1.918,1.890315,,,,,,,,,,,,,,,,,,2019_Sep_03_1819,60.890066638865704,Cloud_Experiment_FR_REAL,001,45,
pratique/fcloud65-35_D1.2_30,1.2,1,0,8,8,3,,,,,,,,,,,,,,,,,,,,,,,None,None,None,10.908,,,,,,,,,,,,,,,,,,,2019_Sep_03_1819,60.890066638865704,Cloud_Experiment_FR_REAL,001,45,
pratique/fcloud_D1.6_28,1.6,0,0,9,9,5,,,,,,,,,,,,,,,,,,,,,,,1,space,3,1.785,6.7395479,,,,,,,,,,,,,,,,,,2019_Sep_03_1819,60.890066638865704,Cloud_Experiment_FR_REAL,001,45,
,,,,,,,,,,,,,,,,,,,,,,,,,,,,,,,,,,6,,,,,,,,,,,,,,,,,2019_Sep_03_1819,60.890066638865704,Cloud_Experiment_FR_REAL,001,45,
,,,,,,,,,,,,,,,,,,,,,,,,,,,,,,,,,,,5,,,,,,,,,,,,,,,,2019_Sep_03_1819,60.890066638865704,Cloud_Experiment_FR_REAL,001,45,
,,,,,,,,,,,,,,,,,,,,,,,,,,,,,,,,,,,,4,,,,,,,,,,,,,,,2019_Sep_03_1819,60.890066638865704,Cloud_Experiment_FR_REAL,001,45,
,,,,,,,,,,,,,,,,,,,,,,,,,,,,,,,,,,,,,6,,,,,,,,,,,,,,2019_Sep_03_1819,60.890066638865704,Cloud_Experiment_FR_REAL,001,45,
,,,,,,,,,,,,,,,,,,,,,,,,,,,,,,,,,,,,,,4,,,,,,,,,,,,,2019_Sep_03_1819,60.890066638865704,Cloud_Experiment_FR_REAL,001,45,
,,,,,,,,,,,,,,,,,,,,,,,,,,,,,,,,,,,,,,,6,,,,,,,,,,,,2019_Sep_03_1819,60.890066638865704,Cloud_Experiment_FR_REAL,001,45,
,,,,,,,,,,,,,,,,,,,,,,,,,,,,,,,,,,,,,,,,4,,,,,,,,,,,2019_Sep_03_1819,60.890066638865704,Cloud_Experiment_FR_REAL,001,45,
,,,,,,,,,,,,,,,,,,,,,,,,,,,,,,,,,,,,,,,,,7,,,,,,,,,,2019_Sep_03_1819,60.890066638865704,Cloud_Experiment_FR_REAL,001,45,
,,,,,,,,,,,,,,,,,,,,,,,,,,,,,,,,,,,,,,,,,,5,,,,,,,,,2019_Sep_03_1819,60.890066638865704,Cloud_Experiment_FR_REAL,001,45,
,,,,,,,,,,,,,,,,,,,,,,,,,,,,,,,,,,,,,,,,,,,4,,,,,,,,2019_Sep_03_1819,60.890066638865704,Cloud_Experiment_FR_REAL,001,45,
,,,,,,,,,,,,,,,,,,,,,,,,,,,,,,,,,,,,,,,,,,,,space,2.40038950001,,,,,,2019_Sep_03_1819,60.890066638865704,Cloud_Experiment_FR_REAL,001,45,
images/fcloud_D1.7_1.tif,1.7,0,,,,,0,0,0,27,,,,,,,,,,,,,,,,,,,2,space,3,4.749,5.90280880001,,,,,,,,,,,,,,,,,,2019_Sep_03_1819,60.890066638865704,Cloud_Experiment_FR_REAL,001,45,
images/fcloud_D1.7_3.tif,1.7,0,,,,,0,1,1,29,,,,,,,,,,,,,,,,,,,2,None,3,1.684,,,,,,,,,,,,,,,,,,,2019_Sep_03_1819,60.890066638865704,Cloud_Experiment_FR_REAL,001,45,
images/fcloud65-35_D1.7_3.tif,1.7,1,,,,,0,2,2,65,,,,,,,,,,,,,,,,,,,None,None,None,10.477,,,,,,,,,,,,,,,,,,,2019_Sep_03_1819,60.890066638865704,Cloud_Experiment_FR_REAL,001,45,
images/fcloud_D1.8_3.tif,1.8,0,,,,,0,3,3,32,,,,,,,,,,,,,,,,,,,1,space,3,1.418,7.59441229999,,,,,,,,,,,,,,,,,,2019_Sep_03_1819,60.890066638865704,Cloud_Experiment_FR_REAL,001,45,
images/fcloud65-35_D1.9_2.tif,1.9,1,,,,,0,4,4,70,,,,,,,,,,,,,,,,,,,1,space,2,1.084,5.3554186,,,,,,,,,,,,,,,,,,2019_Sep_03_1819,60.890066638865704,Cloud_Experiment_FR_REAL,001,45,
images/fcloud65-35_D1.4_3.tif,1.4,1,,,,,0,5,5,56,,,,,,,,,,,,,,,,,,,1,space,5,1.802,5.77568709999,,,,,,,,,,,,,,,,,,2019_Sep_03_1819,60.890066638865704,Cloud_Experiment_FR_REAL,001,45,
images/fcloud_D1.1_3.tif,1.1,0,,,,,0,6,6,11,,,,,,,,,,,,,,,,,,,None,None,None,12.276,,,,,,,,,,,,,,,,,,,2019_Sep_03_1819,60.890066638865704,Cloud_Experiment_FR_REAL,001,45,
images/fcloud_D1_2.tif,1.0,0,,,,,0,7,7,7,,,,,,,,,,,,,,,,,,,2,space,2,1.085,4.6311991,,,,,,,,,,,,,,,,,,2019_Sep_03_1819,60.890066638865704,Cloud_Experiment_FR_REAL,001,45,
images/fcloud80-20_D1.1_3.tif,1.1,2,,,,,0,8,8,83,,,,,,,,,,,,,,,,,,,None,None,None,12.474,,,,,,,,,,,,,,,,,,,2019_Sep_03_1819,60.890066638865704,Cloud_Experiment_FR_REAL,001,45,
images/fcloud65-35_D1.5_2.tif,1.5,1,,,,,0,9,9,58,,,,,,,,,,,,,,,,,,,1,None,4,2.984,,,,,,,,,,,,,,,,,,,2019_Sep_03_1819,60.890066638865704,Cloud_Experiment_FR_REAL,001,45,
images/fcloud65-35_D1.3_1.tif,1.3,1,,,,,0,10,10,51,,,,,,,,,,,,,,,,,,,1,space,1,1.069,6.93298239999,,,,,,,,,,,,,,,,,,2019_Sep_03_1819,60.890066638865704,Cloud_Experiment_FR_REAL,001,45,
images/fcloud65-35_D0.8_1.tif,0.8,1,,,,,0,11,11,36,,,,,,,,,,,,,,,,,,,None,None,None,9.477,,,,,,,,,,,,,,,,,,,2019_Sep_03_1819,60.890066638865704,Cloud_Experiment_FR_REAL,001,45,
images/fcloud80-20_D1.2_2.tif,1.2,2,,,,,0,12,12,85,,,,,,,,,,,,,,,,,,,1,space,3,1.219,5.38613439999,,,,,,,,,,,,,,,,,,2019_Sep_03_1819,60.890066638865704,Cloud_Experiment_FR_REAL,001,45,
images/fcloud65-35_D0.9_1.tif,0.9,1,,,,,0,13,13,39,,,,,,,,,,,,,,,,,,,None,None,None,9.892,,,,,,,,,,,,,,,,,,,2019_Sep_03_1819,60.890066638865704,Cloud_Experiment_FR_REAL,001,45,
images/fcloud80-20_D1_1.tif,1.0,2,,,,,0,14,14,78,,,,,,,,,,,,,,,,,,,None,None,None,19.368,,,,,,,,,,,,,,,,,,,2019_Sep_03_1819,60.890066638865704,Cloud_Experiment_FR_REAL,001,45,
images/fcloud80-20_D0.8_3.tif,0.8,2,,,,,0,15,15,74,,,,,,,,,,,,,,,,,,,1,space,1,2.3,6.6784491,,,,,,,,,,,,,,,,,,2019_Sep_03_1819,60.890066638865704,Cloud_Experiment_FR_REAL,001,45,
images/fcloud80-20_D1.7_3.tif,1.7,2,,,,,0,16,16,101,,,,,,,,,,,,,,,,,,,None,None,None,12.322,,,,,,,,,,,,,,,,,,,2019_Sep_03_1819,60.890066638865704,Cloud_Experiment_FR_REAL,001,45,
images/fcloud80-20_D1.2_3.tif,1.2,2,,,,,0,17,17,86,,,,,,,,,,,,,,,,,,,2,space,1,0.736,5.810518,,,,,,,,,,,,,,,,,,2019_Sep_03_1819,60.890066638865704,Cloud_Experiment_FR_REAL,001,45,
images/fcloud80-20_D1.3_3.tif,1.3,2,,,,,0,18,18,89,,,,,,,,,,,,,,,,,,,1,None,1,1.951,,,,,,,,,,,,,,,,,,,2019_Sep_03_1819,60.890066638865704,Cloud_Experiment_FR_REAL,001,45,
images/fcloud80-20_D1.5_2.tif,1.5,2,,,,,0,19,19,94,,,,,,,,,,,,,,,,,,,2,space,2,1.152,5.4905999,,,,,,,,,,,,,,,,,,2019_Sep_03_1819,60.890066638865704,Cloud_Experiment_FR_REAL,001,45,
images/fcloud_D1.6_2.tif,1.6,0,,,,,0,20,20,25,,,,,,,,,,,,,,,,,,,1,space,1,2.884,4.6728745,,,,,,,,,,,,,,,,,,2019_Sep_03_1819,60.890066638865704,Cloud_Experiment_FR_REAL,001,45,
images/fcloud_D1.1_1.tif,1.1,0,,,,,0,21,21,9,,,,,,,,,,,,,,,,,,,1,space,1,1.85,6.6832173,,,,,,,,,,,,,,,,,,2019_Sep_03_1819,60.890066638865704,Cloud_Experiment_FR_REAL,001,45,
images/fcloud65-35_D1.1_3.tif,1.1,1,,,,,0,22,22,47,,,,,,,,,,,,,,,,,,,None,None,None,10.343,,,,,,,,,,,,,,,,,,,2019_Sep_03_1819,60.890066638865704,Cloud_Experiment_FR_REAL,001,45,
images/fcloud80-20_D1.6_3.tif,1.6,2,,,,,0,23,23,98,,,,,,,,,,,,,,,,,,,1,space,1,3.116,5.675007,,,,,,,,,,,,,,,,,,2019_Sep_03_1819,60.890066638865704,Cloud_Experiment_FR_REAL,001,45,
images/fcloud80-20_D0.9_3.tif,0.9,2,,,,,0,24,24,77,,,,,,,,,,,,,,,,,,,None,None,None,12.109,,,,,,,,,,,,,,,,,,,2019_Sep_03_1819,60.890066638865704,Cloud_Experiment_FR_REAL,001,45,
images/fcloud_D1.3_3.tif,1.3,0,,,,,0,25,25,17,,,,,,,,,,,,,,,,,,,2,space,3,0.919,2.9584317,,,,,,,,,,,,,,,,,,2019_Sep_03_1819,60.890066638865704,Cloud_Experiment_FR_REAL,001,45,
images/fcloud65-35_D1.9_1.tif,1.9,1,,,,,0,26,26,69,,,,,,,,,,,,,,,,,,,2,space,2,0.819,4.89586230001,,,,,,,,,,,,,,,,,,2019_Sep_03_1819,60.890066638865704,Cloud_Experiment_FR_REAL,001,45,
images/fcloud_D1_1.tif,1.0,0,,,,,0,27,27,6,,,,,,,,,,,,,,,,,,,None,None,None,12.973,,,,,,,,,,,,,,,,,,,2019_Sep_03_1819,60.890066638865704,Cloud_Experiment_FR_REAL,001,45,
images/fcloud80-20_D1_3.tif,1.0,2,,,,,0,28,28,80,,,,,,,,,,,,,,,,,,,2,space,2,1.685,3.47799889999,,,,,,,,,,,,,,,,,,2019_Sep_03_1819,60.890066638865704,Cloud_Experiment_FR_REAL,001,45,
images/fcloud80-20_D0.8_1.tif,0.8,2,,,,,0,29,29,72,,,,,,,,,,,,,,,,,,,2,space,2,1.019,5.5502079,,,,,,,,,,,,,,,,,,2019_Sep_03_1819,60.890066638865704,Cloud_Experiment_FR_REAL,001,45,
images/fcloud65-35_D1.1_1.tif,1.1,1,,,,,0,30,30,45,,,,,,,,,,,,,,,,,,,1,space,2,1.153,5.3527547,,,,,,,,,,,,,,,,,,2019_Sep_03_1819,60.890066638865704,Cloud_Experiment_FR_REAL,001,45,
images/fcloud80-20_D1.9_2.tif,1.9,2,,,,,0,31,31,106,,,,,,,,,,,,,,,,,,,2,None,3,0.885,,,,,,,,,,,,,,,,,,,2019_Sep_03_1819,60.890066638865704,Cloud_Experiment_FR_REAL,001,45,
images/fcloud65-35_D1.7_2.tif,1.7,1,,,,,0,32,32,64,,,,,,,,,,,,,,,,,,,3,space,2,0.569,4.6810518,,,,,,,,,,,,,,,,,,2019_Sep_03_1819,60.890066638865704,Cloud_Experiment_FR_REAL,001,45,
images/fcloud80-20_D0.9_2.tif,0.9,2,,,,,0,33,33,76,,,,,,,,,,,,,,,,,,,2,space,1,0.552,2.4109496,,,,,,,,,,,,,,,,,,2019_Sep_03_1819,60.890066638865704,Cloud_Experiment_FR_REAL,001,45,
images/fcloud65-35_D1.7_1.tif,1.7,1,,,,,0,34,34,63,,,,,,,,,,,,,,,,,,,1,space,2,0.953,5.19075579999,,,,,,,,,,,,,,,,,,2019_Sep_03_1819,60.890066638865704,Cloud_Experiment_FR_REAL,001,45,
images/fcloud65-35_D1.8_1.tif,1.8,1,,,,,0,35,35,66,,,,,,,,,,,,,,,,,,,None,None,None,10.36,,,,,,,,,,,,,,,,,,,2019_Sep_03_1819,60.890066638865704,Cloud_Experiment_FR_REAL,001,45,
images/fcloud_D1.5_1.tif,1.5,0,,,,,0,36,36,21,,,,,,,,,,,,,,,,,,,1,None,2,1.4,,,,,,,,,,,,,,,,,,,2019_Sep_03_1819,60.890066638865704,Cloud_Experiment_FR_REAL,001,45,
images/fcloud80-20_D1.1_2.tif,1.1,2,,,,,0,37,37,82,,,,,,,,,,,,,,,,,,,None,None,None,9.778,,,,,,,,,,,,,,,,,,,2019_Sep_03_1819,60.890066638865704,Cloud_Experiment_FR_REAL,001,45,
images/fcloud65-35_D1.2_2.tif,1.2,1,,,,,0,38,38,49,,,,,,,,,,,,,,,,,,,1,space,2,1.252,3.3088492,,,,,,,,,,,,,,,,,,2019_Sep_03_1819,60.890066638865704,Cloud_Experiment_FR_REAL,001,45,
images/fcloud_D1.3_1.tif,1.3,0,,,,,0,39,39,15,,,,,,,,,,,,,,,,,,,1,None,1,0.552,,,,,,,,,,,,,,,,,,,2019_Sep_03_1819,60.890066638865704,Cloud_Experiment_FR_REAL,001,45,
images/fcloud65-35_D1.3_3.tif,1.3,1,,,,,0,40,40,53,,,,,,,,,,,,,,,,,,,1,space,1,1.118,6.3166388,,,,,,,,,,,,,,,,,,2019_Sep_03_1819,60.890066638865704,Cloud_Experiment_FR_REAL,001,45,
images/fcloud65-35_D1.6_3.tif,1.6,1,,,,,0,41,41,62,,,,,,,,,,,,,,,,,,,None,None,None,9.476,,,,,,,,,,,,,,,,,,,2019_Sep_03_1819,60.890066638865704,Cloud_Experiment_FR_REAL,001,45,
images/fcloud_D1.4_2.tif,1.4,0,,,,,0,42,42,19,,,,,,,,,,,,,,,,,,,1,space,4,0.953,3.15430879999,,,,,,,,,,,,,,,,,,2019_Sep_03_1819,60.890066638865704,Cloud_Experiment_FR_REAL,001,45,
images/fcloud80-20_D1.8_1.tif,1.8,2,,,,,0,43,43,102,,,,,,,,,,,,,,,,,,,None,None,None,9.594,,,,,,,,,,,,,,,,,,,2019_Sep_03_1819,60.890066638865704,Cloud_Experiment_FR_REAL,001,45,
images/fcloud65-35_D1_1.tif,1.0,1,,,,,0,44,44,42,,,,,,,,,,,,,,,,,,,1,space,2,1.302,6.60908279999,,,,,,,,,,,,,,,,,,2019_Sep_03_1819,60.890066638865704,Cloud_Experiment_FR_REAL,001,45,
images/fcloud80-20_D1.4_2.tif,1.4,2,,,,,0,45,45,91,,,,,,,,,,,,,,,,,,,2,space,2,0.453,1.81464160001,,,,,,,,,,,,,,,,,,2019_Sep_03_1819,60.890066638865704,Cloud_Experiment_FR_REAL,001,45,
images/fcloud_D0.9_1.tif,0.9,0,,,,,0,46,46,3,,,,,,,,,,,,,,,,,,,2,space,2,0.484,2.63196310001,,,,,,,,,,,,,,,,,,2019_Sep_03_1819,60.890066638865704,Cloud_Experiment_FR_REAL,001,45,
images/fcloud65-35_D0.8_3.tif,0.8,1,,,,,0,47,47,38,,,,,,,,,,,,,,,,,,,1,space,2,2.468,3.56978039999,,,,,,,,,,,,,,,,,,2019_Sep_03_1819,60.890066638865704,Cloud_Experiment_FR_REAL,001,45,
images/fcloud_D1.4_3.tif,1.4,0,,,,,0,48,48,20,,,,,,,,,,,,,,,,,,,2,space,2,0.504,0.348643799996,,,,,,,,,,,,,,,,,,2019_Sep_03_1819,60.890066638865704,Cloud_Experiment_FR_REAL,001,45,
images/fcloud_D1_3.tif,1.0,0,,,,,0,49,49,8,,,,,,,,,,,,,,,,,,,1,space,5,0.884,6.09289870001,,,,,,,,,,,,,,,,,,2019_Sep_03_1819,60.890066638865704,Cloud_Experiment_FR_REAL,001,45,
images/fcloud_D1.8_1.tif,1.8,0,,,,,0,50,50,30,,,,,,,,,,,,,,,,,,,None,space,None,10.096,0.640132,,,,,,,,,,,,,,,,,,2019_Sep_03_1819,60.890066638865704,Cloud_Experiment_FR_REAL,001,45,
images/fcloud80-20_D0.8_2.tif,0.8,2,,,,,0,51,51,73,,,,,,,,,,,,,,,,,,,2,space,3,1.068,3.5457508,,,,,,,,,,,,,,,,,,2019_Sep_03_1819,60.890066638865704,Cloud_Experiment_FR_REAL,001,45,
images/fcloud_D1.1_2.tif,1.1,0,,,,,0,52,52,10,,,,,,,,,,,,,,,,,,,1,None,1,1.584,,,,,,,,,,,,,,,,,,,2019_Sep_03_1819,60.890066638865704,Cloud_Experiment_FR_REAL,001,45,
images/fcloud_D1.7_2.tif,1.7,0,,,,,0,53,53,28,,,,,,,,,,,,,,,,,,,None,None,None,10.043,,,,,,,,,,,,,,,,,,,2019_Sep_03_1819,60.890066638865704,Cloud_Experiment_FR_REAL,001,45,
images/fcloud_D1.6_3.tif,1.6,0,,,,,0,54,54,26,,,,,,,,,,,,,,,,,,,1,space,2,1.068,5.1285966,,,,,,,,,,,,,,,,,,2019_Sep_03_1819,60.890066638865704,Cloud_Experiment_FR_REAL,001,45,
images/fcloud_D1.9_3.tif,1.9,0,,,,,0,55,55,35,,,,,,,,,,,,,,,,,,,None,None,None,11.94,,,,,,,,,,,,,,,,,,,2019_Sep_03_1819,60.890066638865704,Cloud_Experiment_FR_REAL,001,45,
images/fcloud_D1.9_1.tif,1.9,0,,,,,0,56,56,33,,,,,,,,,,,,,,,,,,,None,None,None,20.718,,,,,,,,,,,,,,,,,,,2019_Sep_03_1819,60.890066638865704,Cloud_Experiment_FR_REAL,001,45,
images/fcloud_D1.6_1.tif,1.6,0,,,,,0,57,57,24,,,,,,,,,,,,,,,,,,,1,space,4,0.669,6.5847654,,,,,,,,,,,,,,,,,,2019_Sep_03_1819,60.890066638865704,Cloud_Experiment_FR_REAL,001,45,
images/fcloud_D0.9_3.tif,0.9,0,,,,,0,58,58,5,,,,,,,,,,,,,,,,,,,3,space,2,0.603,1.0384399,,,,,,,,,,,,,,,,,,2019_Sep_03_1819,60.890066638865704,Cloud_Experiment_FR_REAL,001,45,
images/fcloud80-20_D1.6_1.tif,1.6,2,,,,,0,59,59,96,,,,,,,,,,,,,,,,,,,3,space,2,0.953,1.8201923,,,,,,,,,,,,,,,,,,2019_Sep_03_1819,60.890066638865704,Cloud_Experiment_FR_REAL,001,45,
images/fcloud80-20_D1.8_2.tif,1.8,2,,,,,0,60,60,103,,,,,,,,,,,,,,,,,,,2,space,3,1.485,1.71086019999,,,,,,,,,,,,,,,,,,2019_Sep_03_1819,60.890066638865704,Cloud_Experiment_FR_REAL,001,45,
images/fcloud_D0.8_1.tif,0.8,0,,,,,0,61,61,0,,,,,,,,,,,,,,,,,,,None,None,None,11.108,,,,,,,,,,,,,,,,,,,2019_Sep_03_1819,60.890066638865704,Cloud_Experiment_FR_REAL,001,45,
images/fcloud_D1.8_2.tif,1.8,0,,,,,0,62,62,31,,,,,,,,,,,,,,,,,,,None,None,None,19.485,,,,,,,,,,,,,,,,,,,2019_Sep_03_1819,60.890066638865704,Cloud_Experiment_FR_REAL,001,45,
images/fcloud65-35_D1.2_3.tif,1.2,1,,,,,0,63,63,50,,,,,,,,,,,,,,,,,,,1,space,1,0.419,4.31941700001,,,,,,,,,,,,,,,,,,2019_Sep_03_1819,60.890066638865704,Cloud_Experiment_FR_REAL,001,45,
images/fcloud80-20_D1.5_3.tif,1.5,2,,,,,0,64,64,95,,,,,,,,,,,,,,,,,,,1,None,2,0.953,,,,,,,,,,,,,,,,,,,2019_Sep_03_1819,60.890066638865704,Cloud_Experiment_FR_REAL,001,45,
images/fcloud80-20_D1.9_1.tif,1.9,2,,,,,0,65,65,105,,,,,,,,,,,,,,,,,,,2,space,2,2.883,3.6030759,,,,,,,,,,,,,,,,,,2019_Sep_03_1819,60.890066638865704,Cloud_Experiment_FR_REAL,001,45,
images/fcloud_D1.4_1.tif,1.4,0,,,,,0,66,66,18,,,,,,,,,,,,,,,,,,,2,space,3,0.886,4.6452225,,,,,,,,,,,,,,,,,,2019_Sep_03_1819,60.890066638865704,Cloud_Experiment_FR_REAL,001,45,
images/fcloud80-20_D1.3_1.tif,1.3,2,,,,,0,67,67,87,,,,,,,,,,,,,,,,,,,None,None,None,9.277,,,,,,,,,,,,,,,,,,,2019_Sep_03_1819,60.890066638865704,Cloud_Experiment_FR_REAL,001,45,
images/fcloud65-35_D1.8_2.tif,1.8,1,,,,,0,68,68,67,,,,,,,,,,,,,,,,,,,4,space,3,0.836,2.74828650001,,,,,,,,,,,,,,,,,,2019_Sep_03_1819,60.890066638865704,Cloud_Experiment_FR_REAL,001,45,
images/fcloud80-20_D1.4_1.tif,1.4,2,,,,,0,69,69,90,,,,,,,,,,,,,,,,,,,1,space,3,1.119,6.71415839999,,,,,,,,,,,,,,,,,,2019_Sep_03_1819,60.890066638865704,Cloud_Experiment_FR_REAL,001,45,
images/fcloud_D1.5_3.tif,1.5,0,,,,,0,70,70,23,,,,,,,,,,,,,,,,,,,3,space,4,1.819,2.3375884,,,,,,,,,,,,,,,,,,2019_Sep_03_1819,60.890066638865704,Cloud_Experiment_FR_REAL,001,45,
images/fcloud65-35_D1.5_3.tif,1.5,1,,,,,0,71,71,59,,,,,,,,,,,,,,,,,,,1,space,3,0.985,4.9813558,,,,,,,,,,,,,,,,,,2019_Sep_03_1819,60.890066638865704,Cloud_Experiment_FR_REAL,001,45,
images/fcloud65-35_D0.9_3.tif,0.9,1,,,,,0,72,72,41,,,,,,,,,,,,,,,,,,,2,space,2,0.719,5.70514149999,,,,,,,,,,,,,,,,,,2019_Sep_03_1819,60.890066638865704,Cloud_Experiment_FR_REAL,001,45,
images/fcloud65-35_D0.9_2.tif,0.9,1,,,,,0,73,73,40,,,,,,,,,,,,,,,,,,,1,space,2,1.7,0.317430200012,,,,,,,,,,,,,,,,,,2019_Sep_03_1819,60.890066638865704,Cloud_Experiment_FR_REAL,001,45,
images/fcloud80-20_D1_2.tif,1.0,2,,,,,0,74,74,79,,,,,,,,,,,,,,,,,,,1,space,1,0.651,1.20094699999,,,,,,,,,,,,,,,,,,2019_Sep_03_1819,60.890066638865704,Cloud_Experiment_FR_REAL,001,45,
images/fcloud65-35_D1.9_3.tif,1.9,1,,,,,0,75,75,71,,,,,,,,,,,,,,,,,,,1,space,2,1.885,2.38507490001,,,,,,,,,,,,,,,,,,2019_Sep_03_1819,60.890066638865704,Cloud_Experiment_FR_REAL,001,45,
images/fcloud80-20_D1.8_3.tif,1.8,2,,,,,0,76,76,104,,,,,,,,,,,,,,,,,,,1,space,1,0.886,6.4902387,,,,,,,,,,,,,,,,,,2019_Sep_03_1819,60.890066638865704,Cloud_Experiment_FR_REAL,001,45,
images/fcloud_D1.2_3.tif,1.2,0,,,,,0,77,77,14,,,,,,,,,,,,,,,,,,,2,space,2,1.119,5.0019526,,,,,,,,,,,,,,,,,,2019_Sep_03_1819,60.890066638865704,Cloud_Experiment_FR_REAL,001,45,
images/fcloud65-35_D1.6_2.tif,1.6,1,,,,,0,78,78,61,,,,,,,,,,,,,,,,,,,None,None,None,10.227,,,,,,,,,,,,,,,,,,,2019_Sep_03_1819,60.890066638865704,Cloud_Experiment_FR_REAL,001,45,
images/fcloud80-20_D1.6_2.tif,1.6,2,,,,,0,79,79,97,,,,,,,,,,,,,,,,,,,1,space,4,0.853,4.4072567,,,,,,,,,,,,,,,,,,2019_Sep_03_1819,60.890066638865704,Cloud_Experiment_FR_REAL,001,45,
images/fcloud_D1.9_2.tif,1.9,0,,,,,0,80,80,34,,,,,,,,,,,,,,,,,,,1,None,2,1.734,,,,,,,,,,,,,,,,,,,2019_Sep_03_1819,60.890066638865704,Cloud_Experiment_FR_REAL,001,45,
images/fcloud65-35_D0.8_2.tif,0.8,1,,,,,0,81,81,37,,,,,,,,,,,,,,,,,,,1,space,3,0.786,4.1183246,,,,,,,,,,,,,,,,,,2019_Sep_03_1819,60.890066638865704,Cloud_Experiment_FR_REAL,001,45,
images/fcloud80-20_D1.5_1.tif,1.5,2,,,,,0,82,82,93,,,,,,,,,,,,,,,,,,,1,space,4,0.686,4.4947546,,,,,,,,,,,,,,,,,,2019_Sep_03_1819,60.890066638865704,Cloud_Experiment_FR_REAL,001,45,
images/fcloud65-35_D1.1_2.tif,1.1,1,,,,,0,83,83,46,,,,,,,,,,,,,,,,,,,None,None,None,13.289,,,,,,,,,,,,,,,,,,,2019_Sep_03_1819,60.890066638865704,Cloud_Experiment_FR_REAL,001,45,
images/fcloud_D1.2_2.tif,1.2,0,,,,,0,84,84,13,,,,,,,,,,,,,,,,,,,1,space,2,2.351,6.48690820001,,,,,,,,,,,,,,,,,,2019_Sep_03_1819,60.890066638865704,Cloud_Experiment_FR_REAL,001,45,
images/fcloud65-35_D1.5_1.tif,1.5,1,,,,,0,85,85,57,,,,,,,,,,,,,,,,,,,None,None,None,11.707,,,,,,,,,,,,,,,,,,,2019_Sep_03_1819,60.890066638865704,Cloud_Experiment_FR_REAL,001,45,
images/fcloud80-20_D1.7_1.tif,1.7,2,,,,,0,86,86,99,,,,,,,,,,,,,,,,,,,2,space,2,0.786,2.1047824,,,,,,,,,,,,,,,,,,2019_Sep_03_1819,60.890066638865704,Cloud_Experiment_FR_REAL,001,45,
images/fcloud80-20_D1.4_3.tif,1.4,2,,,,,0,87,87,92,,,,,,,,,,,,,,,,,,,2,None,4,0.753,,,,,,,,,,,,,,,,,,,2019_Sep_03_1819,60.890066638865704,Cloud_Experiment_FR_REAL,001,45,
images/fcloud80-20_D1.1_1.tif,1.1,2,,,,,0,88,88,81,,,,,,,,,,,,,,,,,,,1,space,3,0.686,6.68573319999,,,,,,,,,,,,,,,,,,2019_Sep_03_1819,60.890066638865704,Cloud_Experiment_FR_REAL,001,45,
images/fcloud_D0.8_2.tif,0.8,0,,,,,0,89,89,1,,,,,,,,,,,,,,,,,,,1,space,2,0.835,7.6230548,,,,,,,,,,,,,,,,,,2019_Sep_03_1819,60.890066638865704,Cloud_Experiment_FR_REAL,001,45,
images/fcloud_D0.8_3.tif,0.8,0,,,,,0,90,90,2,,,,,,,,,,,,,,,,,,,None,None,None,10.11,,,,,,,,,,,,,,,,,,,2019_Sep_03_1819,60.890066638865704,Cloud_Experiment_FR_REAL,001,45,
images/fcloud65-35_D1_2.tif,1.0,1,,,,,0,91,91,43,,,,,,,,,,,,,,,,,,,1,space,1,0.652,6.8356017,,,,,,,,,,,,,,,,,,2019_Sep_03_1819,60.890066638865704,Cloud_Experiment_FR_REAL,001,45,
images/fcloud_D1.2_1.tif,1.2,0,,,,,0,92,92,12,,,,,,,,,,,,,,,,,,,None,None,None,10.628,,,,,,,,,,,,,,,,,,,2019_Sep_03_1819,60.890066638865704,Cloud_Experiment_FR_REAL,001,45,
images/fcloud65-35_D1_3.tif,1.0,1,,,,,0,93,93,44,,,,,,,,,,,,,,,,,,,1,space,3,0.469,5.02740800001,,,,,,,,,,,,,,,,,,2019_Sep_03_1819,60.890066638865704,Cloud_Experiment_FR_REAL,001,45,
images/fcloud80-20_D1.2_1.tif,1.2,2,,,,,0,94,94,84,,,,,,,,,,,,,,,,,,,1,None,1,1.286,,,,,,,,,,,,,,,,,,,2019_Sep_03_1819,60.890066638865704,Cloud_Experiment_FR_REAL,001,45,
images/fcloud_D0.9_2.tif,0.9,0,,,,,0,95,95,4,,,,,,,,,,,,,,,,,,,None,None,None,13.241,,,,,,,,,,,,,,,,,,,2019_Sep_03_1819,60.890066638865704,Cloud_Experiment_FR_REAL,001,45,
images/fcloud80-20_D1.9_3.tif,1.9,2,,,,,0,96,96,107,,,,,,,,,,,,,,,,,,,None,None,None,23.182,,,,,,,,,,,,,,,,,,,2019_Sep_03_1819,60.890066638865704,Cloud_Experiment_FR_REAL,001,45,
images/fcloud65-35_D1.3_2.tif,1.3,1,,,,,0,97,97,52,,,,,,,,,,,,,,,,,,,None,None,None,31.908,,,,,,,,,,,,,,,,,,,2019_Sep_03_1819,60.890066638865704,Cloud_Experiment_FR_REAL,001,45,
images/fcloud80-20_D0.9_1.tif,0.9,2,,,,,0,98,98,75,,,,,,,,,,,,,,,,,,,None,None,None,41.198,,,,,,,,,,,,,,,,,,,2019_Sep_03_1819,60.890066638865704,Cloud_Experiment_FR_REAL,001,45,
images/fcloud80-20_D1.3_2.tif,1.3,2,,,,,0,99,99,88,,,,,,,,,,,,,,,,,,,2,None,1,0.752,,,,,,,,,,,,,,,,,,,2019_Sep_03_1819,60.890066638865704,Cloud_Experiment_FR_REAL,001,45,
images/fcloud65-35_D1.4_1.tif,1.4,1,,,,,0,100,100,54,,,,,,,,,,,,,,,,,,,2,space,3,1.385,1.71723920001,,,,,,,,,,,,,,,,,,2019_Sep_03_1819,60.890066638865704,Cloud_Experiment_FR_REAL,001,45,
images/fcloud65-35_D1.2_1.tif,1.2,1,,,,,0,101,101,48,,,,,,,,,,,,,,,,,,,1,space,3,0.568,3.51234470001,,,,,,,,,,,,,,,,,,2019_Sep_03_1819,60.890066638865704,Cloud_Experiment_FR_REAL,001,45,
images/fcloud65-35_D1.4_2.tif,1.4,1,,,,,0,102,102,55,,,,,,,,,,,,,,,,,,,2,space,2,0.885,6.0421323,,,,,,,,,,,,,,,,,,2019_Sep_03_1819,60.890066638865704,Cloud_Experiment_FR_REAL,001,45,
images/fcloud65-35_D1.6_1.tif,1.6,1,,,,,0,103,103,60,,,,,,,,,,,,,,,,,,,1,space,1,0.703,3.9259419,,,,,,,,,,,,,,,,,,2019_Sep_03_1819,60.890066638865704,Cloud_Experiment_FR_REAL,001,45,
images/fcloud_D1.3_2.tif,1.3,0,,,,,0,104,104,16,,,,,,,,,,,,,,,,,,,2,space,3,0.719,5.5244098,,,,,,,,,,,,,,,,,,2019_Sep_03_1819,60.890066638865704,Cloud_Experiment_FR_REAL,001,45,
images/fcloud_D1.5_2.tif,1.5,0,,,,,0,105,105,22,,,,,,,,,,,,,,,,,,,2,space,2,2.752,6.03450909999,,,,,,,,,,,,,,,,,,2019_Sep_03_1819,60.890066638865704,Cloud_Experiment_FR_REAL,001,45,
images/fcloud65-35_D1.8_3.tif,1.8,1,,,,,0,106,106,68,,,,,,,,,,,,,,,,,,,None,None,None,12.008,,,,,,,,,,,,,,,,,,,2019_Sep_03_1819,60.890066638865704,Cloud_Experiment_FR_REAL,001,45,
images/fcloud80-20_D1.7_2.tif,1.7,2,,,,,0,107,107,100,,,,,,,,,,,,,,,,,,,3,space,2,1.053,3.4533184,,,,,,,,,,,,,,,,,,2019_Sep_03_1819,60.890066638865704,Cloud_Experiment_FR_REAL,001,45,
,,,,,,,,,,,,,,,,,,,,,,,,,,,,,,,,,,,,,,,,,,,,,,space,4.1824129,,,,2019_Sep_03_1819,60.890066638865704,Cloud_Experiment_FR_REAL,001,45,
,,,,,,,,,,,,,,,,,,,,,,,,,6,13.431,,,,,,,,,,,,,,,,,,,,,,,,,2019_Sep_03_1819,60.890066638865704,Cloud_Experiment_FR_REAL,001,45,
,,,,,,,,,,,,,,,,,,,,,,,,,,,,,,,,,,4,,,,,,,,,,,,,,,,,2019_Sep_03_1819,60.890066638865704,Cloud_Experiment_FR_REAL,001,45,
,,,,,,,,,,,,,,,,,,,,,,,,,,,,,,,,,,,4,,,,,,,,,,,,,,,,2019_Sep_03_1819,60.890066638865704,Cloud_Experiment_FR_REAL,001,45,
,,,,,,,,,,,,,,,,,,,,,,,,,,,,,,,,,,,,2,,,,,,,,,,,,,,,2019_Sep_03_1819,60.890066638865704,Cloud_Experiment_FR_REAL,001,45,
,,,,,,,,,,,,,,,,,,,,,,,,,,,,,,,,,,,,,5,,,,,,,,,,,,,,2019_Sep_03_1819,60.890066638865704,Cloud_Experiment_FR_REAL,001,45,
,,,,,,,,,,,,,,,,,,,,,,,,,,,,,,,,,,,,,,4,,,,,,,,,,,,,2019_Sep_03_1819,60.890066638865704,Cloud_Experiment_FR_REAL,001,45,
,,,,,,,,,,,,,,,,,,,,,,,,,,,,,,,,,,,,,,,3,,,,,,,,,,,,2019_Sep_03_1819,60.890066638865704,Cloud_Experiment_FR_REAL,001,45,
,,,,,,,,,,,,,,,,,,,,,,,,,,,,,,,,,,,,,,,,4,,,,,,,,,,,2019_Sep_03_1819,60.890066638865704,Cloud_Experiment_FR_REAL,001,45,
,,,,,,,,,,,,,,,,,,,,,,,,,,,,,,,,,,,,,,,,,7,,,,,,,,,,2019_Sep_03_1819,60.890066638865704,Cloud_Experiment_FR_REAL,001,45,
,,,,,,,,,,,,,,,,,,,,,,,,,,,,,,,,,,,,,,,,,,6,,,,,,,,,2019_Sep_03_1819,60.890066638865704,Cloud_Experiment_FR_REAL,001,45,
,,,,,,,,,,,,,,,,,,,,,,,,,,,,,,,,,,,,,,,,,,,3,,,,,,,,2019_Sep_03_1819,60.890066638865704,Cloud_Experiment_FR_REAL,001,45,
,,,,,,,,,,,,,,,,,,,,,,,,,,,,,,,,,,,,,,,,,,,,,,,,space,82.2798025,,2019_Sep_03_1819,60.890066638865704,Cloud_Experiment_FR_REAL,001,45,
images/fcloud_D1_4.tif,1.0,0,,,,,,,,,0,0,0,6,,,,,,,,,,,,,,,1,space,1,2.168,6.0541122,,,,,,,,,,,,,,,,,,2019_Sep_03_1819,60.890066638865704,Cloud_Experiment_FR_REAL,001,45,
images/fcloud_D1.9_4.tif,1.9,0,,,,,,,,,0,1,1,33,,,,,,,,,,,,,,,None,None,None,10.724,,,,,,,,,,,,,,,,,,,2019_Sep_03_1819,60.890066638865704,Cloud_Experiment_FR_REAL,001,45,
images/fcloud65-35_D1.9_4.tif,1.9,1,,,,,,,,,0,2,2,69,,,,,,,,,,,,,,,1,space,4,1.402,4.97421840001,,,,,,,,,,,,,,,,,,2019_Sep_03_1819,60.890066638865704,Cloud_Experiment_FR_REAL,001,45,
images/fcloud80-20_D1.7_4.tif,1.7,2,,,,,,,,,0,3,3,99,,,,,,,,,,,,,,,3,space,2,0.585,3.65079849999,,,,,,,,,,,,,,,,,,2019_Sep_03_1819,60.890066638865704,Cloud_Experiment_FR_REAL,001,45,
images/fcloud_D1.8_6.tif,1.8,0,,,,,,,,,0,4,4,32,,,,,,,,,,,,,,,1,space,2,0.686,1.78186469999,,,,,,,,,,,,,,,,,,2019_Sep_03_1819,60.890066638865704,Cloud_Experiment_FR_REAL,001,45,
images/fcloud65-35_D1.2_6.tif,1.2,1,,,,,,,,,0,5,5,50,,,,,,,,,,,,,,,None,None,None,14.155,,,,,,,,,,,,,,,,,,,2019_Sep_03_1819,60.890066638865704,Cloud_Experiment_FR_REAL,001,45,
images/fcloud_D1.7_5.tif,1.7,0,,,,,,,,,0,6,6,28,,,,,,,,,,,,,,,None,None,None,22.483,,,,,,,,,,,,,,,,,,,2019_Sep_03_1819,60.890066638865704,Cloud_Experiment_FR_REAL,001,45,
images/fcloud65-35_D1.3_4.tif,1.3,1,,,,,,,,,0,7,7,51,,,,,,,,,,,,,,,2,space,2,0.769,3.0560539,,,,,,,,,,,,,,,,,,2019_Sep_03_1819,60.890066638865704,Cloud_Experiment_FR_REAL,001,45,
images/fcloud_D1_6.tif,1.0,0,,,,,,,,,0,8,8,8,,,,,,,,,,,,,,,2,space,2,4.965,3.54985749999,,,,,,,,,,,,,,,,,,2019_Sep_03_1819,60.890066638865704,Cloud_Experiment_FR_REAL,001,45,
images/fcloud80-20_D1.3_6.tif,1.3,2,,,,,,,,,0,9,9,89,,,,,,,,,,,,,,,1,space,1,2.716,3.93733999999,,,,,,,,,,,,,,,,,,2019_Sep_03_1819,60.890066638865704,Cloud_Experiment_FR_REAL,001,45,
images/fcloud65-35_D1.4_5.tif,1.4,1,,,,,,,,,0,10,10,55,,,,,,,,,,,,,,,1,space,1,1.517,6.215763,,,,,,,,,,,,,,,,,,2019_Sep_03_1819,60.890066638865704,Cloud_Experiment_FR_REAL,001,45,
images/fcloud80-20_D1_4.tif,1.0,2,,,,,,,,,0,11,11,78,,,,,,,,,,,,,,,1,space,1,0.919,6.008719,,,,,,,,,,,,,,,,,,2019_Sep_03_1819,60.890066638865704,Cloud_Experiment_FR_REAL,001,45,
images/fcloud_D0.8_5.tif,0.8,0,,,,,,,,,0,12,12,1,,,,,,,,,,,,,,,1,space,1,0.935,5.8547234,,,,,,,,,,,,,,,,,,2019_Sep_03_1819,60.890066638865704,Cloud_Experiment_FR_REAL,001,45,
images/fcloud80-20_D1_5.tif,1.0,2,,,,,,,,,0,13,13,79,,,,,,,,,,,,,,,1,space,2,1.219,3.06194670001,,,,,,,,,,,,,,,,,,2019_Sep_03_1819,60.890066638865704,Cloud_Experiment_FR_REAL,001,45,
images/fcloud65-35_D1.5_4.tif,1.5,1,,,,,,,,,0,14,14,57,,,,,,,,,,,,,,,1,space,3,0.769,5.33535759999,,,,,,,,,,,,,,,,,,2019_Sep_03_1819,60.890066638865704,Cloud_Experiment_FR_REAL,001,45,
images/fcloud65-35_D1.3_6.tif,1.3,1,,,,,,,,,0,15,15,53,,,,,,,,,,,,,,,1,space,2,1.318,5.17072760001,,,,,,,,,,,,,,,,,,2019_Sep_03_1819,60.890066638865704,Cloud_Experiment_FR_REAL,001,45,
images/fcloud80-20_D1.5_5.tif,1.5,2,,,,,,,,,0,16,16,94,,,,,,,,,,,,,,,1,space,3,2.118,4.2814413,,,,,,,,,,,,,,,,,,2019_Sep_03_1819,60.890066638865704,Cloud_Experiment_FR_REAL,001,45,
images/fcloud80-20_D1.8_6.tif,1.8,2,,,,,,,,,0,17,17,104,,,,,,,,,,,,,,,None,None,None,13.324,,,,,,,,,,,,,,,,,,,2019_Sep_03_1819,60.890066638865704,Cloud_Experiment_FR_REAL,001,45,
images/fcloud65-35_D0.9_4.tif,0.9,1,,,,,,,,,0,18,18,39,,,,,,,,,,,,,,,None,None,None,22.333,,,,,,,,,,,,,,,,,,,2019_Sep_03_1819,60.890066638865704,Cloud_Experiment_FR_REAL,001,45,
images/fcloud_D1.5_6.tif,1.5,0,,,,,,,,,0,19,19,23,,,,,,,,,,,,,,,1,space,3,1.902,5.6231772,,,,,,,,,,,,,,,,,,2019_Sep_03_1819,60.890066638865704,Cloud_Experiment_FR_REAL,001,45,
images/fcloud_D0.8_6.tif,0.8,0,,,,,,,,,0,20,20,2,,,,,,,,,,,,,,,None,None,None,10.859,,,,,,,,,,,,,,,,,,,2019_Sep_03_1819,60.890066638865704,Cloud_Experiment_FR_REAL,001,45,
images/fcloud80-20_D1.5_4.tif,1.5,2,,,,,,,,,0,21,21,93,,,,,,,,,,,,,,,None,None,None,22.731,,,,,,,,,,,,,,,,,,,2019_Sep_03_1819,60.890066638865704,Cloud_Experiment_FR_REAL,001,45,
images/fcloud80-20_D0.8_6.tif,0.8,2,,,,,,,,,0,22,22,74,,,,,,,,,,,,,,,1,space,3,0.687,3.576862,,,,,,,,,,,,,,,,,,2019_Sep_03_1819,60.890066638865704,Cloud_Experiment_FR_REAL,001,45,
images/fcloud65-35_D1.4_6.tif,1.4,1,,,,,,,,,0,23,23,56,,,,,,,,,,,,,,,None,None,None,9.977,,,,,,,,,,,,,,,,,,,2019_Sep_03_1819,60.890066638865704,Cloud_Experiment_FR_REAL,001,45,
images/fcloud80-20_D1.4_4.tif,1.4,2,,,,,,,,,0,24,24,90,,,,,,,,,,,,,,,None,None,None,18.386,,,,,,,,,,,,,,,,,,,2019_Sep_03_1819,60.890066638865704,Cloud_Experiment_FR_REAL,001,45,
images/fcloud65-35_D1.9_5.tif,1.9,1,,,,,,,,,0,25,25,70,,,,,,,,,,,,,,,4,space,3,0.953,3.35466340001,,,,,,,,,,,,,,,,,,2019_Sep_03_1819,60.890066638865704,Cloud_Experiment_FR_REAL,001,45,
images/fcloud80-20_D0.9_6.tif,0.9,2,,,,,,,,,0,26,26,77,,,,,,,,,,,,,,,None,None,None,12.44,,,,,,,,,,,,,,,,,,,2019_Sep_03_1819,60.890066638865704,Cloud_Experiment_FR_REAL,001,45,
images/fcloud80-20_D0.8_5.tif,0.8,2,,,,,,,,,0,27,27,73,,,,,,,,,,,,,,,3,space,3,1.568,2.6919112,,,,,,,,,,,,,,,,,,2019_Sep_03_1819,60.890066638865704,Cloud_Experiment_FR_REAL,001,45,
images/fcloud_D0.8_4.tif,0.8,0,,,,,,,,,0,28,28,0,,,,,,,,,,,,,,,None,None,None,11.259,,,,,,,,,,,,,,,,,,,2019_Sep_03_1819,60.890066638865704,Cloud_Experiment_FR_REAL,001,45,
images/fcloud65-35_D1.1_4.tif,1.1,1,,,,,,,,,0,29,29,45,,,,,,,,,,,,,,,2,space,2,0.536,3.5254858,,,,,,,,,,,,,,,,,,2019_Sep_03_1819,60.890066638865704,Cloud_Experiment_FR_REAL,001,45,
images/fcloud65-35_D1.7_6.tif,1.7,1,,,,,,,,,0,30,30,65,,,,,,,,,,,,,,,None,None,None,11.909,,,,,,,,,,,,,,,,,,,2019_Sep_03_1819,60.890066638865704,Cloud_Experiment_FR_REAL,001,45,
images/fcloud_D0.9_6.tif,0.9,0,,,,,,,,,0,31,31,5,,,,,,,,,,,,,,,2,space,3,0.602,3.8403459,,,,,,,,,,,,,,,,,,2019_Sep_03_1819,60.890066638865704,Cloud_Experiment_FR_REAL,001,45,
images/fcloud80-20_D1.5_6.tif,1.5,2,,,,,,,,,0,32,32,95,,,,,,,,,,,,,,,2,space,2,0.652,5.8508131,,,,,,,,,,,,,,,,,,2019_Sep_03_1819,60.890066638865704,Cloud_Experiment_FR_REAL,001,45,
images/fcloud80-20_D1.3_5.tif,1.3,2,,,,,,,,,0,33,33,88,,,,,,,,,,,,,,,None,None,None,10.227,,,,,,,,,,,,,,,,,,,2019_Sep_03_1819,60.890066638865704,Cloud_Experiment_FR_REAL,001,45,
images/fcloud_D1.4_6.tif,1.4,0,,,,,,,,,0,34,34,20,,,,,,,,,,,,,,,2,space,1,0.469,4.7100738,,,,,,,,,,,,,,,,,,2019_Sep_03_1819,60.890066638865704,Cloud_Experiment_FR_REAL,001,45,
images/fcloud65-35_D1.6_4.tif,1.6,1,,,,,,,,,0,35,35,60,,,,,,,,,,,,,,,None,None,None,12.092,,,,,,,,,,,,,,,,,,,2019_Sep_03_1819,60.890066638865704,Cloud_Experiment_FR_REAL,001,45,
images/fcloud65-35_D1.7_5.tif,1.7,1,,,,,,,,,0,36,36,64,,,,,,,,,,,,,,,1,None,2,0.869,,,,,,,,,,,,,,,,,,,2019_Sep_03_1819,60.890066638865704,Cloud_Experiment_FR_REAL,001,45,
images/fcloud80-20_D1.4_5.tif,1.4,2,,,,,,,,,0,37,37,91,,,,,,,,,,,,,,,2,space,2,1.053,4.3373457,,,,,,,,,,,,,,,,,,2019_Sep_03_1819,60.890066638865704,Cloud_Experiment_FR_REAL,001,45,
images/fcloud_D1.2_4.tif,1.2,0,,,,,,,,,0,38,38,12,,,,,,,,,,,,,,,1,None,1,0.67,,,,,,,,,,,,,,,,,,,2019_Sep_03_1819,60.890066638865704,Cloud_Experiment_FR_REAL,001,45,
images/fcloud_D1.8_4.tif,1.8,0,,,,,,,,,0,39,39,30,,,,,,,,,,,,,,,None,None,None,9.928,,,,,,,,,,,,,,,,,,,2019_Sep_03_1819,60.890066638865704,Cloud_Experiment_FR_REAL,001,45,
images/fcloud65-35_D1.3_5.tif,1.3,1,,,,,,,,,0,40,40,52,,,,,,,,,,,,,,,None,None,None,19.02,,,,,,,,,,,,,,,,,,,2019_Sep_03_1819,60.890066638865704,Cloud_Experiment_FR_REAL,001,45,
images/fcloud65-35_D1.7_4.tif,1.7,1,,,,,,,,,0,41,41,63,,,,,,,,,,,,,,,1,space,3,0.701,6.03982619999,,,,,,,,,,,,,,,,,,2019_Sep_03_1819,60.890066638865704,Cloud_Experiment_FR_REAL,001,45,
images/fcloud_D1.7_6.tif,1.7,0,,,,,,,,,0,42,42,29,,,,,,,,,,,,,,,None,None,None,11.11,,,,,,,,,,,,,,,,,,,2019_Sep_03_1819,60.890066638865704,Cloud_Experiment_FR_REAL,001,45,
images/fcloud_D1.3_4.tif,1.3,0,,,,,,,,,0,43,43,15,,,,,,,,,,,,,,,1,space,4,1.068,6.98377750001,,,,,,,,,,,,,,,,,,2019_Sep_03_1819,60.890066638865704,Cloud_Experiment_FR_REAL,001,45,
images/fcloud_D1.2_5.tif,1.2,0,,,,,,,,,0,44,44,13,,,,,,,,,,,,,,,None,None,None,18.469,,,,,,,,,,,,,,,,,,,2019_Sep_03_1819,60.890066638865704,Cloud_Experiment_FR_REAL,001,45,
images/fcloud80-20_D1.9_6.tif,1.9,2,,,,,,,,,0,45,45,107,,,,,,,,,,,,,,,1,space,3,1.002,6.3417378,,,,,,,,,,,,,,,,,,2019_Sep_03_1819,60.890066638865704,Cloud_Experiment_FR_REAL,001,45,
images/fcloud80-20_D1.2_5.tif,1.2,2,,,,,,,,,0,46,46,85,,,,,,,,,,,,,,,None,None,None,9.292,,,,,,,,,,,,,,,,,,,2019_Sep_03_1819,60.890066638865704,Cloud_Experiment_FR_REAL,001,45,
images/fcloud65-35_D1.1_5.tif,1.1,1,,,,,,,,,0,47,47,46,,,,,,,,,,,,,,,2,space,4,1.169,3.06467929999,,,,,,,,,,,,,,,,,,2019_Sep_03_1819,60.890066638865704,Cloud_Experiment_FR_REAL,001,45,
images/fcloud65-35_D0.8_4.tif,0.8,1,,,,,,,,,0,48,48,36,,,,,,,,,,,,,,,None,None,None,12.275,,,,,,,,,,,,,,,,,,,2019_Sep_03_1819,60.890066638865704,Cloud_Experiment_FR_REAL,001,45,
images/fcloud65-35_D1.4_4.tif,1.4,1,,,,,,,,,0,49,49,54,,,,,,,,,,,,,,,None,None,None,23.531,,,,,,,,,,,,,,,,,,,2019_Sep_03_1819,60.890066638865704,Cloud_Experiment_FR_REAL,001,45,
images/fcloud80-20_D0.9_5.tif,0.9,2,,,,,,,,,0,50,50,76,,,,,,,,,,,,,,,None,None,None,32.59,,,,,,,,,,,,,,,,,,,2019_Sep_03_1819,60.890066638865704,Cloud_Experiment_FR_REAL,001,45,
images/fcloud65-35_D1_4.tif,1.0,1,,,,,,,,,0,51,51,42,,,,,,,,,,,,,,,None,None,None,41.332,,,,,,,,,,,,,,,,,,,2019_Sep_03_1819,60.890066638865704,Cloud_Experiment_FR_REAL,001,45,
images/fcloud_D0.9_5.tif,0.9,0,,,,,,,,,0,52,52,4,,,,,,,,,,,,,,,None,None,None,49.725,,,,,,,,,,,,,,,,,,,2019_Sep_03_1819,60.890066638865704,Cloud_Experiment_FR_REAL,001,45,
images/fcloud65-35_D1.8_5.tif,1.8,1,,,,,,,,,0,53,53,67,,,,,,,,,,,,,,,1,space,2,0.536,5.08158889999,,,,,,,,,,,,,,,,,,2019_Sep_03_1819,60.890066638865704,Cloud_Experiment_FR_REAL,001,45,
images/fcloud_D1.1_5.tif,1.1,0,,,,,,,,,0,54,54,10,,,,,,,,,,,,,,,1,space,3,0.602,6.88747179999,,,,,,,,,,,,,,,,,,2019_Sep_03_1819,60.890066638865704,Cloud_Experiment_FR_REAL,001,45,
images/fcloud_D1_5.tif,1.0,0,,,,,,,,,0,55,55,7,,,,,,,,,,,,,,,3,None,2,1.135,,,,,,,,,,,,,,,,,,,2019_Sep_03_1819,60.890066638865704,Cloud_Experiment_FR_REAL,001,45,
images/fcloud_D0.9_4.tif,0.9,0,,,,,,,,,0,56,56,3,,,,,,,,,,,,,,,None,None,None,9.826,,,,,,,,,,,,,,,,,,,2019_Sep_03_1819,60.890066638865704,Cloud_Experiment_FR_REAL,001,45,
images/fcloud_D1.5_5.tif,1.5,0,,,,,,,,,0,57,57,22,,,,,,,,,,,,,,,None,None,None,19.552,,,,,,,,,,,,,,,,,,,2019_Sep_03_1819,60.890066638865704,Cloud_Experiment_FR_REAL,001,45,
images/fcloud80-20_D0.9_4.tif,0.9,2,,,,,,,,,0,58,58,75,,,,,,,,,,,,,,,1,space,3,1.102,4.3180439,,,,,,,,,,,,,,,,,,2019_Sep_03_1819,60.890066638865704,Cloud_Experiment_FR_REAL,001,45,
images/fcloud80-20_D1.1_5.tif,1.1,2,,,,,,,,,0,59,59,82,,,,,,,,,,,,,,,1,space,1,1.269,6.5029626,,,,,,,,,,,,,,,,,,2019_Sep_03_1819,60.890066638865704,Cloud_Experiment_FR_REAL,001,45,
images/fcloud_D1.4_4.tif,1.4,0,,,,,,,,,0,60,60,18,,,,,,,,,,,,,,,None,None,None,10.943,,,,,,,,,,,,,,,,,,,2019_Sep_03_1819,60.890066638865704,Cloud_Experiment_FR_REAL,001,45,
images/fcloud_D1.1_4.tif,1.1,0,,,,,,,,,0,61,61,9,,,,,,,,,,,,,,,2,space,4,1.135,4.8451071,,,,,,,,,,,,,,,,,,2019_Sep_03_1819,60.890066638865704,Cloud_Experiment_FR_REAL,001,45,
images/fcloud65-35_D1.6_6.tif,1.6,1,,,,,,,,,0,62,62,62,,,,,,,,,,,,,,,2,space,4,2.618,3.02835360001,,,,,,,,,,,,,,,,,,2019_Sep_03_1819,60.890066638865704,Cloud_Experiment_FR_REAL,001,45,
images/fcloud_D1.4_5.tif,1.4,0,,,,,,,,,0,63,63,19,,,,,,,,,,,,,,,3,space,2,0.586,4.3595797,,,,,,,,,,,,,,,,,,2019_Sep_03_1819,60.890066638865704,Cloud_Experiment_FR_REAL,001,45,
images/fcloud80-20_D1.7_6.tif,1.7,2,,,,,,,,,0,64,64,101,,,,,,,,,,,,,,,1,space,2,1.102,5.2626321,,,,,,,,,,,,,,,,,,2019_Sep_03_1819,60.890066638865704,Cloud_Experiment_FR_REAL,001,45,
images/fcloud80-20_D1.8_5.tif,1.8,2,,,,,,,,,0,65,65,103,,,,,,,,,,,,,,,1,None,3,2.051,,,,,,,,,,,,,,,,,,,2019_Sep_03_1819,60.890066638865704,Cloud_Experiment_FR_REAL,001,45,
images/fcloud65-35_D1.8_4.tif,1.8,1,,,,,,,,,0,66,66,66,,,,,,,,,,,,,,,None,None,None,10.976,,,,,,,,,,,,,,,,,,,2019_Sep_03_1819,60.890066638865704,Cloud_Experiment_FR_REAL,001,45,
images/fcloud65-35_D0.9_6.tif,0.9,1,,,,,,,,,0,67,67,41,,,,,,,,,,,,,,,1,space,1,0.669,6.6613963,,,,,,,,,,,,,,,,,,2019_Sep_03_1819,60.890066638865704,Cloud_Experiment_FR_REAL,001,45,
images/fcloud65-35_D1_6.tif,1.0,1,,,,,,,,,0,68,68,44,,,,,,,,,,,,,,,2,space,3,0.769,2.6459132,,,,,,,,,,,,,,,,,,2019_Sep_03_1819,60.890066638865704,Cloud_Experiment_FR_REAL,001,45,
images/fcloud_D1.7_4.tif,1.7,0,,,,,,,,,0,69,69,27,,,,,,,,,,,,,,,1,None,2,0.919,,,,,,,,,,,,,,,,,,,2019_Sep_03_1819,60.890066638865704,Cloud_Experiment_FR_REAL,001,45,
images/fcloud_D1.6_5.tif,1.6,0,,,,,,,,,0,70,70,25,,,,,,,,,,,,,,,1,space,1,2.584,7.1401761,,,,,,,,,,,,,,,,,,2019_Sep_03_1819,60.890066638865704,Cloud_Experiment_FR_REAL,001,45,
images/fcloud80-20_D1.8_4.tif,1.8,2,,,,,,,,,0,71,71,102,,,,,,,,,,,,,,,None,None,None,10.959,,,,,,,,,,,,,,,,,,,2019_Sep_03_1819,60.890066638865704,Cloud_Experiment_FR_REAL,001,45,
images/fcloud_D1.1_6.tif,1.1,0,,,,,,,,,0,72,72,11,,,,,,,,,,,,,,,2,space,2,0.969,1.89205810001,,,,,,,,,,,,,,,,,,2019_Sep_03_1819,60.890066638865704,Cloud_Experiment_FR_REAL,001,45,
images/fcloud_D1.9_5.tif,1.9,0,,,,,,,,,0,73,73,34,,,,,,,,,,,,,,,1,space,5,1.885,2.4800749,,,,,,,,,,,,,,,,,,2019_Sep_03_1819,60.890066638865704,Cloud_Experiment_FR_REAL,001,45,
images/fcloud65-35_D0.9_5.tif,0.9,1,,,,,,,,,0,74,74,40,,,,,,,,,,,,,,,None,None,None,10.21,,,,,,,,,,,,,,,,,,,2019_Sep_03_1819,60.890066638865704,Cloud_Experiment_FR_REAL,001,45,
images/fcloud_D1.2_6.tif,1.2,0,,,,,,,,,0,75,75,14,,,,,,,,,,,,,,,2,space,3,0.769,1.42075439999,,,,,,,,,,,,,,,,,,2019_Sep_03_1819,60.890066638865704,Cloud_Experiment_FR_REAL,001,45,
images/fcloud65-35_D1.2_5.tif,1.2,1,,,,,,,,,0,76,76,49,,,,,,,,,,,,,,,2,space,2,0.586,4.62094960001,,,,,,,,,,,,,,,,,,2019_Sep_03_1819,60.890066638865704,Cloud_Experiment_FR_REAL,001,45,
images/fcloud_D1.8_5.tif,1.8,0,,,,,,,,,0,77,77,31,,,,,,,,,,,,,,,2,space,1,0.636,5.07344810001,,,,,,,,,,,,,,,,,,2019_Sep_03_1819,60.890066638865704,Cloud_Experiment_FR_REAL,001,45,
images/fcloud_D1.6_6.tif,1.6,0,,,,,,,,,0,78,78,26,,,,,,,,,,,,,,,None,None,None,8.961,,,,,,,,,,,,,,,,,,,2019_Sep_03_1819,60.890066638865704,Cloud_Experiment_FR_REAL,001,45,
images/fcloud80-20_D1.9_4.tif,1.9,2,,,,,,,,,0,79,79,105,,,,,,,,,,,,,,,1,space,3,0.703,7.30066410001,,,,,,,,,,,,,,,,,,2019_Sep_03_1819,60.890066638865704,Cloud_Experiment_FR_REAL,001,45,
images/fcloud65-35_D0.8_6.tif,0.8,1,,,,,,,,,0,80,80,38,,,,,,,,,,,,,,,1,space,1,1.185,5.14687390001,,,,,,,,,,,,,,,,,,2019_Sep_03_1819,60.890066638865704,Cloud_Experiment_FR_REAL,001,45,
images/fcloud65-35_D1.5_6.tif,1.5,1,,,,,,,,,0,81,81,59,,,,,,,,,,,,,,,1,space,1,0.969,4.3611235,,,,,,,,,,,,,,,,,,2019_Sep_03_1819,60.890066638865704,Cloud_Experiment_FR_REAL,001,45,
images/fcloud80-20_D1.7_5.tif,1.7,2,,,,,,,,,0,82,82,100,,,,,,,,,,,,,,,2,space,2,0.586,1.6865292,,,,,,,,,,,,,,,,,,2019_Sep_03_1819,60.890066638865704,Cloud_Experiment_FR_REAL,001,45,
images/fcloud80-20_D1.6_4.tif,1.6,2,,,,,,,,,0,83,83,96,,,,,,,,,,,,,,,None,None,None,13.738,,,,,,,,,,,,,,,,,,,2019_Sep_03_1819,60.890066638865704,Cloud_Experiment_FR_REAL,001,45,
images/fcloud65-35_D1.6_5.tif,1.6,1,,,,,,,,,0,84,84,61,,,,,,,,,,,,,,,2,space,2,0.686,6.4606627,,,,,,,,,,,,,,,,,,2019_Sep_03_1819,60.890066638865704,Cloud_Experiment_FR_REAL,001,45,
images/fcloud_D1.5_4.tif,1.5,0,,,,,,,,,0,85,85,21,,,,,,,,,,,,,,,2,space,3,2.201,0.254429100009,,,,,,,,,,,,,,,,,,2019_Sep_03_1819,60.890066638865704,Cloud_Experiment_FR_REAL,001,45,
images/fcloud65-35_D1.2_4.tif,1.2,1,,,,,,,,,0,86,86,48,,,,,,,,,,,,,,,None,space,None,16.52,1.9135423,,,,,,,,,,,,,,,,,,2019_Sep_03_1819,60.890066638865704,Cloud_Experiment_FR_REAL,001,45,
images/fcloud65-35_D1_5.tif,1.0,1,,,,,,,,,0,87,87,43,,,,,,,,,,,,,,,1,space,4,0.952,2.4713477,,,,,,,,,,,,,,,,,,2019_Sep_03_1819,60.890066638865704,Cloud_Experiment_FR_REAL,001,45,
images/fcloud65-35_D0.8_5.tif,0.8,1,,,,,,,,,0,88,88,37,,,,,,,,,,,,,,,1,space,3,1.169,2.8363214,,,,,,,,,,,,,,,,,,2019_Sep_03_1819,60.890066638865704,Cloud_Experiment_FR_REAL,001,45,
images/fcloud65-35_D1.8_6.tif,1.8,1,,,,,,,,,0,89,89,68,,,,,,,,,,,,,,,3,space,2,0.919,6.4500276,,,,,,,,,,,,,,,,,,2019_Sep_03_1819,60.890066638865704,Cloud_Experiment_FR_REAL,001,45,
images/fcloud80-20_D1.1_4.tif,1.1,2,,,,,,,,,0,90,90,81,,,,,,,,,,,,,,,1,space,1,1.285,3.6449882,,,,,,,,,,,,,,,,,,2019_Sep_03_1819,60.890066638865704,Cloud_Experiment_FR_REAL,001,45,
images/fcloud80-20_D1.9_5.tif,1.9,2,,,,,,,,,0,91,91,106,,,,,,,,,,,,,,,None,None,None,10.526,,,,,,,,,,,,,,,,,,,2019_Sep_03_1819,60.890066638865704,Cloud_Experiment_FR_REAL,001,45,
images/fcloud80-20_D1.6_5.tif,1.6,2,,,,,,,,,0,92,92,97,,,,,,,,,,,,,,,None,None,None,19.468,,,,,,,,,,,,,,,,,,,2019_Sep_03_1819,60.890066638865704,Cloud_Experiment_FR_REAL,001,45,
images/fcloud_D1.6_4.tif,1.6,0,,,,,,,,,0,93,93,24,,,,,,,,,,,,,,,2,space,2,1.034,6.9641688,,,,,,,,,,,,,,,,,,2019_Sep_03_1819,60.890066638865704,Cloud_Experiment_FR_REAL,001,45,
images/fcloud80-20_D0.8_4.tif,0.8,2,,,,,,,,,0,94,94,72,,,,,,,,,,,,,,,None,None,None,11.042,,,,,,,,,,,,,,,,,,,2019_Sep_03_1819,60.890066638865704,Cloud_Experiment_FR_REAL,001,45,
images/fcloud80-20_D1.3_4.tif,1.3,2,,,,,,,,,0,95,95,87,,,,,,,,,,,,,,,None,None,None,20.051,,,,,,,,,,,,,,,,,,,2019_Sep_03_1819,60.890066638865704,Cloud_Experiment_FR_REAL,001,45,
images/fcloud_D1.3_5.tif,1.3,0,,,,,,,,,0,96,96,16,,,,,,,,,,,,,,,None,None,None,29.325,,,,,,,,,,,,,,,,,,,2019_Sep_03_1819,60.890066638865704,Cloud_Experiment_FR_REAL,001,45,
images/fcloud80-20_D1.2_4.tif,1.2,2,,,,,,,,,0,97,97,84,,,,,,,,,,,,,,,None,None,None,37.935,,,,,,,,,,,,,,,,,,,2019_Sep_03_1819,60.890066638865704,Cloud_Experiment_FR_REAL,001,45,
images/fcloud80-20_D1.6_6.tif,1.6,2,,,,,,,,,0,98,98,98,,,,,,,,,,,,,,,2,space,None,None,3.35544850001,,,,,,,,,,,,,,,,,,2019_Sep_03_1819,60.890066638865704,Cloud_Experiment_FR_REAL,001,45,
images/fcloud80-20_D1_6.tif,1.0,2,,,,,,,,,0,99,99,80,,,,,,,,,,,,,,,None,None,None,9.428,,,,,,,,,,,,,,,,,,,2019_Sep_03_1819,60.890066638865704,Cloud_Experiment_FR_REAL,001,45,
images/fcloud80-20_D1.2_6.tif,1.2,2,,,,,,,,,0,100,100,86,,,,,,,,,,,,,,,None,None,None,18.252,,,,,,,,,,,,,,,,,,,2019_Sep_03_1819,60.890066638865704,Cloud_Experiment_FR_REAL,001,45,
images/fcloud65-35_D1.9_6.tif,1.9,1,,,,,,,,,0,101,101,71,,,,,,,,,,,,,,,5,space,4,1.435,3.2369524,,,,,,,,,,,,,,,,,,2019_Sep_03_1819,60.890066638865704,Cloud_Experiment_FR_REAL,001,45,
images/fcloud65-35_D1.5_5.tif,1.5,1,,,,,,,,,0,102,102,58,,,,,,,,,,,,,,,2,space,3,1.252,2.12659560001,,,,,,,,,,,,,,,,,,2019_Sep_03_1819,60.890066638865704,Cloud_Experiment_FR_REAL,001,45,
images/fcloud80-20_D1.4_6.tif,1.4,2,,,,,,,,,0,103,103,92,,,,,,,,,,,,,,,None,space,None,15.421,5.4272426,,,,,,,,,,,,,,,,,,2019_Sep_03_1819,60.890066638865704,Cloud_Experiment_FR_REAL,001,45,
images/fcloud_D1.3_6.tif,1.3,0,,,,,,,,,0,104,104,17,,,,,,,,,,,,,,,1,space,1,0.752,7.07689110001,,,,,,,,,,,,,,,,,,2019_Sep_03_1819,60.890066638865704,Cloud_Experiment_FR_REAL,001,45,
images/fcloud65-35_D1.1_6.tif,1.1,1,,,,,,,,,0,105,105,47,,,,,,,,,,,,,,,None,None,None,9.877,,,,,,,,,,,,,,,,,,,2019_Sep_03_1819,60.890066638865704,Cloud_Experiment_FR_REAL,001,45,
images/fcloud_D1.9_6.tif,1.9,0,,,,,,,,,0,106,106,35,,,,,,,,,,,,,,,None,None,None,18.752,,,,,,,,,,,,,,,,,,,2019_Sep_03_1819,60.890066638865704,Cloud_Experiment_FR_REAL,001,45,
images/fcloud80-20_D1.1_6.tif,1.1,2,,,,,,,,,0,107,107,83,,,,,,,,,,,,,,,None,None,None,27.328,,,,,,,,,,,,,,,,,,,2019_Sep_03_1819,60.890066638865704,Cloud_Experiment_FR_REAL,001,45,
,,,,,,,,,,,,,,,,,,,,,,,,,,,,,,,,,,,,,,,,,,,,,,space,12.0561055,,,,2019_Sep_03_1819,60.890066638865704,Cloud_Experiment_FR_REAL,001,45,
,,,,,,,,,,,,,,,,,,,,,,,,,5,6.093,,,,,,,,,,,,,,,,,,,,,,,,,2019_Sep_03_1819,60.890066638865704,Cloud_Experiment_FR_REAL,001,45,
,,,,,,,,,,,,,,,,,,,,,,,,,,,,,,,,,,5,,,,,,,,,,,,,,,,,2019_Sep_03_1819,60.890066638865704,Cloud_Experiment_FR_REAL,001,45,
,,,,,,,,,,,,,,,,,,,,,,,,,,,,,,,,,,,6,,,,,,,,,,,,,,,,2019_Sep_03_1819,60.890066638865704,Cloud_Experiment_FR_REAL,001,45,
,,,,,,,,,,,,,,,,,,,,,,,,,,,,,,,,,,,,5,,,,,,,,,,,,,,,2019_Sep_03_1819,60.890066638865704,Cloud_Experiment_FR_REAL,001,45,
,,,,,,,,,,,,,,,,,,,,,,,,,,,,,,,,,,,,,4,,,,,,,,,,,,,,2019_Sep_03_1819,60.890066638865704,Cloud_Experiment_FR_REAL,001,45,
,,,,,,,,,,,,,,,,,,,,,,,,,,,,,,,,,,,,,,6,,,,,,,,,,,,,2019_Sep_03_1819,60.890066638865704,Cloud_Experiment_FR_REAL,001,45,
,,,,,,,,,,,,,,,,,,,,,,,,,,,,,,,,,,,,,,,5,,,,,,,,,,,,2019_Sep_03_1819,60.890066638865704,Cloud_Experiment_FR_REAL,001,45,
,,,,,,,,,,,,,,,,,,,,,,,,,,,,,,,,,,,,,,,,4,,,,,,,,,,,2019_Sep_03_1819,60.890066638865704,Cloud_Experiment_FR_REAL,001,45,
,,,,,,,,,,,,,,,,,,,,,,,,,,,,,,,,,,,,,,,,,7,,,,,,,,,,2019_Sep_03_1819,60.890066638865704,Cloud_Experiment_FR_REAL,001,45,
,,,,,,,,,,,,,,,,,,,,,,,,,,,,,,,,,,,,,,,,,,7,,,,,,,,,2019_Sep_03_1819,60.890066638865704,Cloud_Experiment_FR_REAL,001,45,
,,,,,,,,,,,,,,,,,,,,,,,,,,,,,,,,,,,,,,,,,,,6,,,,,,,,2019_Sep_03_1819,60.890066638865704,Cloud_Experiment_FR_REAL,001,45,
,,,,,,,,,,,,,,,,,,,,,,,,,,,,,,,,,,,,,,,,,,,,,,,,space,213.5997611,,2019_Sep_03_1819,60.890066638865704,Cloud_Experiment_FR_REAL,001,45,
images/fcloud_D1.5_7.tif,1.5,0,,,,,,,,,,,,,0,0,0,28,,,,,,,,,,,None,None,None,301.873,,,,,,,,,,,,,,,,,,,2019_Sep_03_1819,60.890066638865704,Cloud_Experiment_FR_REAL,001,45,
images/fcloud65-35_D1.9_10.tif,1.9,1,,,,,,,,,,,,,0,1,1,95,,,,,,,,,,,1,space,2,0.519,6.09953529999,,,,,,,,,,,,,,,,,,2019_Sep_03_1819,60.890066638865704,Cloud_Experiment_FR_REAL,001,45,
images/fcloud_D1.5_9.tif,1.5,0,,,,,,,,,,,,,0,2,2,30,,,,,,,,,,,None,None,None,8.894,,,,,,,,,,,,,,,,,,,2019_Sep_03_1819,60.890066638865704,Cloud_Experiment_FR_REAL,001,45,
images/fcloud65-35_D1.2_10.tif,1.2,1,,,,,,,,,,,,,0,3,3,67,,,,,,,,,,,3,space,2,3.117,6.9372608,,,,,,,,,,,,,,,,,,2019_Sep_03_1819,60.890066638865704,Cloud_Experiment_FR_REAL,001,45,
images/fcloud80-20_D1.6_9.tif,1.6,2,,,,,,,,,,,,,0,4,4,130,,,,,,,,,,,None,None,None,12.29,,,,,,,,,,,,,,,,,,,2019_Sep_03_1819,60.890066638865704,Cloud_Experiment_FR_REAL,001,45,
images/fcloud80-20_D1.8_7.tif,1.8,2,,,,,,,,,,,,,0,5,5,136,,,,,,,,,,,2,space,3,1.334,2.94170729999,,,,,,,,,,,,,,,,,,2019_Sep_03_1819,60.890066638865704,Cloud_Experiment_FR_REAL,001,45,
images/fcloud80-20_D1.1_7.tif,1.1,2,,,,,,,,,,,,,0,6,6,108,,,,,,,,,,,1,space,3,3.949,0.0778431999934,,,,,,,,,,,,,,,,,,2019_Sep_03_1819,60.890066638865704,Cloud_Experiment_FR_REAL,001,45,
images/fcloud_D1.5_10.tif,1.5,0,,,,,,,,,,,,,0,7,7,31,,,,,,,,,,,1,None,4,1.202,,,,,,,,,,,,,,,,,,,2019_Sep_03_1819,60.890066638865704,Cloud_Experiment_FR_REAL,001,45,
images/fcloud_D0.9_10.tif,0.9,0,,,,,,,,,,,,,0,8,8,7,,,,,,,,,,,1,space,4,2.201,2.2462625,,,,,,,,,,,,,,,,,,2019_Sep_03_1819,60.890066638865704,Cloud_Experiment_FR_REAL,001,45,
images/fcloud80-20_D1_7.tif,1.0,2,,,,,,,,,,,,,0,9,9,104,,,,,,,,,,,None,None,None,14.638,,,,,,,,,,,,,,,,,,,2019_Sep_03_1819,60.890066638865704,Cloud_Experiment_FR_REAL,001,45,
images/fcloud65-35_D1.8_10.tif,1.8,1,,,,,,,,,,,,,0,10,10,91,,,,,,,,,,,None,None,None,24.498,,,,,,,,,,,,,,,,,,,2019_Sep_03_1819,60.890066638865704,Cloud_Experiment_FR_REAL,001,45,
images/fcloud80-20_D1.2_7.tif,1.2,2,,,,,,,,,,,,,0,11,11,112,,,,,,,,,,,1,space,3,0.886,7.50918040001,,,,,,,,,,,,,,,,,,2019_Sep_03_1819,60.890066638865704,Cloud_Experiment_FR_REAL,001,45,
images/fcloud80-20_D1.9_7.tif,1.9,2,,,,,,,,,,,,,0,12,12,140,,,,,,,,,,,1,space,5,1.119,4.8673271,,,,,,,,,,,,,,,,,,2019_Sep_03_1819,60.890066638865704,Cloud_Experiment_FR_REAL,001,45,
images/fcloud80-20_D1.7_8.tif,1.7,2,,,,,,,,,,,,,0,13,13,133,,,,,,,,,,,None,None,None,10.427,,,,,,,,,,,,,,,,,,,2019_Sep_03_1819,60.890066638865704,Cloud_Experiment_FR_REAL,001,45,
images/fcloud_D1.3_10.tif,1.3,0,,,,,,,,,,,,,0,14,14,23,,,,,,,,,,,None,None,None,19.233,,,,,,,,,,,,,,,,,,,2019_Sep_03_1819,60.890066638865704,Cloud_Experiment_FR_REAL,001,45,
images/fcloud_D1.7_9.tif,1.7,0,,,,,,,,,,,,,0,15,15,38,,,,,,,,,,,None,None,None,28.728,,,,,,,,,,,,,,,,,,,2019_Sep_03_1819,60.890066638865704,Cloud_Experiment_FR_REAL,001,45,
images/fcloud65-35_D1.8_7.tif,1.8,1,,,,,,,,,,,,,0,16,16,88,,,,,,,,,,,None,None,None,37.686,,,,,,,,,,,,,,,,,,,2019_Sep_03_1819,60.890066638865704,Cloud_Experiment_FR_REAL,001,45,
images/fcloud_D1.1_10.tif,1.1,0,,,,,,,,,,,,,0,17,17,15,,,,,,,,,,,1,space,2,2.635,6.8432097,,,,,,,,,,,,,,,,,,2019_Sep_03_1819,60.890066638865704,Cloud_Experiment_FR_REAL,001,45,
images/fcloud_D1.7_7.tif,1.7,0,,,,,,,,,,,,,0,18,18,36,,,,,,,,,,,3,space,2,0.869,6.6450468,,,,,,,,,,,,,,,,,,2019_Sep_03_1819,60.890066638865704,Cloud_Experiment_FR_REAL,001,45,
images/fcloud80-20_D0.9_7.tif,0.9,2,,,,,,,,,,,,,0,19,19,100,,,,,,,,,,,None,None,None,10.558,,,,,,,,,,,,,,,,,,,2019_Sep_03_1819,60.890066638865704,Cloud_Experiment_FR_REAL,001,45,
images/fcloud65-35_D0.9_9.tif,0.9,1,,,,,,,,,,,,,0,20,20,54,,,,,,,,,,,1,space,2,0.536,4.00386879999,,,,,,,,,,,,,,,,,,2019_Sep_03_1819,60.890066638865704,Cloud_Experiment_FR_REAL,001,45,
images/fcloud65-35_D1.5_7.tif,1.5,1,,,,,,,,,,,,,0,21,21,76,,,,,,,,,,,None,None,None,9.094,,,,,,,,,,,,,,,,,,,2019_Sep_03_1819,60.890066638865704,Cloud_Experiment_FR_REAL,001,45,
images/fcloud_D1.3_9.tif,1.3,0,,,,,,,,,,,,,0,22,22,22,,,,,,,,,,,1,None,2,1.102,,,,,,,,,,,,,,,,,,,2019_Sep_03_1819,60.890066638865704,Cloud_Experiment_FR_REAL,001,45,
images/fcloud_D1_9.tif,1.0,0,,,,,,,,,,,,,0,23,23,10,,,,,,,,,,,2,space,1,1.319,6.3655721,,,,,,,,,,,,,,,,,,2019_Sep_03_1819,60.890066638865704,Cloud_Experiment_FR_REAL,001,45,
images/fcloud80-20_D1.1_8.tif,1.1,2,,,,,,,,,,,,,0,24,24,109,,,,,,,,,,,None,None,None,9.877,,,,,,,,,,,,,,,,,,,2019_Sep_03_1819,60.890066638865704,Cloud_Experiment_FR_REAL,001,45,
images/fcloud65-35_D0.9_8.tif,0.9,1,,,,,,,,,,,,,0,25,25,53,,,,,,,,,,,None,space,None,19.07,4.4943049,,,,,,,,,,,,,,,,,,2019_Sep_03_1819,60.890066638865704,Cloud_Experiment_FR_REAL,001,45,
images/fcloud80-20_D1.3_9.tif,1.3,2,,,,,,,,,,,,,0,26,26,118,,,,,,,,,,,None,None,None,28.045,,,,,,,,,,,,,,,,,,,2019_Sep_03_1819,60.890066638865704,Cloud_Experiment_FR_REAL,001,45,
images/fcloud80-20_D1.9_8.tif,1.9,2,,,,,,,,,,,,,0,27,27,141,,,,,,,,,,,None,None,None,36.803,,,,,,,,,,,,,,,,,,,2019_Sep_03_1819,60.890066638865704,Cloud_Experiment_FR_REAL,001,45,
images/fcloud_D1_8.tif,1.0,0,,,,,,,,,,,,,0,28,28,9,,,,,,,,,,,1,space,1,0.769,7.75432379999,,,,,,,,,,,,,,,,,,2019_Sep_03_1819,60.890066638865704,Cloud_Experiment_FR_REAL,001,45,
images/fcloud_D1.4_9.tif,1.4,0,,,,,,,,,,,,,0,29,29,26,,,,,,,,,,,None,None,None,9.894,,,,,,,,,,,,,,,,,,,2019_Sep_03_1819,60.890066638865704,Cloud_Experiment_FR_REAL,001,45,
images/fcloud_D1.7_10.tif,1.7,0,,,,,,,,,,,,,0,30,30,39,,,,,,,,,,,None,None,None,18.601,,,,,,,,,,,,,,,,,,,2019_Sep_03_1819,60.890066638865704,Cloud_Experiment_FR_REAL,001,45,
images/fcloud_D1.6_8.tif,1.6,0,,,,,,,,,,,,,0,31,31,33,,,,,,,,,,,1,None,1,0.634,,,,,,,,,,,,,,,,,,,2019_Sep_03_1819,60.890066638865704,Cloud_Experiment_FR_REAL,001,45,
images/fcloud80-20_D0.8_7.tif,0.8,2,,,,,,,,,,,,,0,32,32,96,,,,,,,,,,,1,space,3,1.109,6.89301540001,,,,,,,,,,,,,,,,,,2019_Sep_03_1819,60.890066638865704,Cloud_Experiment_FR_REAL,001,45,
images/fcloud_D1.4_7.tif,1.4,0,,,,,,,,,,,,,0,33,33,24,,,,,,,,,,,None,space,None,11.076,0.0710402000113,,,,,,,,,,,,,,,,,,2019_Sep_03_1819,60.890066638865704,Cloud_Experiment_FR_REAL,001,45,
images/fcloud65-35_D1.2_8.tif,1.2,1,,,,,,,,,,,,,0,34,34,65,,,,,,,,,,,None,None,None,19.87,,,,,,,,,,,,,,,,,,,2019_Sep_03_1819,60.890066638865704,Cloud_Experiment_FR_REAL,001,45,
images/fcloud80-20_D1.6_8.tif,1.6,2,,,,,,,,,,,,,0,35,35,129,,,,,,,,,,,None,None,None,29.209,,,,,,,,,,,,,,,,,,,2019_Sep_03_1819,60.890066638865704,Cloud_Experiment_FR_REAL,001,45,
images/fcloud65-35_D1.3_9.tif,1.3,1,,,,,,,,,,,,,0,36,36,70,,,,,,,,,,,1,None,1,0.819,,,,,,,,,,,,,,,,,,,2019_Sep_03_1819,60.890066638865704,Cloud_Experiment_FR_REAL,001,45,
images/fcloud_D1.5_8.tif,1.5,0,,,,,,,,,,,,,0,37,37,29,,,,,,,,,,,None,space,None,10.111,2.573216,,,,,,,,,,,,,,,,,,2019_Sep_03_1819,60.890066638865704,Cloud_Experiment_FR_REAL,001,45,
images/fcloud80-20_D1_9.tif,1.0,2,,,,,,,,,,,,,0,38,38,106,,,,,,,,,,,None,None,None,19.468,,,,,,,,,,,,,,,,,,,2019_Sep_03_1819,60.890066638865704,Cloud_Experiment_FR_REAL,001,45,
images/fcloud80-20_D0.8_9.tif,0.8,2,,,,,,,,,,,,,0,39,39,98,,,,,,,,,,,None,None,None,32.174,,,,,,,,,,,,,,,,,,,2019_Sep_03_1819,60.890066638865704,Cloud_Experiment_FR_REAL,001,45,
images/fcloud80-20_D1.4_8.tif,1.4,2,,,,,,,,,,,,,0,40,40,121,,,,,,,,,,,None,None,None,41.2,,,,,,,,,,,,,,,,,,,2019_Sep_03_1819,60.890066638865704,Cloud_Experiment_FR_REAL,001,45,
images/fcloud80-20_D0.9_10.tif,0.9,2,,,,,,,,,,,,,0,41,41,103,,,,,,,,,,,None,None,None,50.225,,,,,,,,,,,,,,,,,,,2019_Sep_03_1819,60.890066638865704,Cloud_Experiment_FR_REAL,001,45,
images/fcloud80-20_D1.6_7.tif,1.6,2,,,,,,,,,,,,,0,42,42,128,,,,,,,,,,,None,None,None,59.45,,,,,,,,,,,,,,,,,,,2019_Sep_03_1819,60.890066638865704,Cloud_Experiment_FR_REAL,001,45,
images/fcloud80-20_D1.4_9.tif,1.4,2,,,,,,,,,,,,,0,43,43,122,,,,,,,,,,,None,None,None,68.759,,,,,,,,,,,,,,,,,,,2019_Sep_03_1819,60.890066638865704,Cloud_Experiment_FR_REAL,001,45,
images/fcloud_D1.4_8.tif,1.4,0,,,,,,,,,,,,,0,44,44,25,,,,,,,,,,,None,None,None,77.783,,,,,,,,,,,,,,,,,,,2019_Sep_03_1819,60.890066638865704,Cloud_Experiment_FR_REAL,001,45,
images/fcloud80-20_D1.7_9.tif,1.7,2,,,,,,,,,,,,,0,45,45,134,,,,,,,,,,,None,None,None,86.81,,,,,,,,,,,,,,,,,,,2019_Sep_03_1819,60.890066638865704,Cloud_Experiment_FR_REAL,001,45,
images/fcloud80-20_D0.8_8.tif,0.8,2,,,,,,,,,,,,,0,46,46,97,,,,,,,,,,,None,None,None,96.135,,,,,,,,,,,,,,,,,,,2019_Sep_03_1819,60.890066638865704,Cloud_Experiment_FR_REAL,001,45,
images/fcloud_D1.2_9.tif,1.2,0,,,,,,,,,,,,,0,47,47,18,,,,,,,,,,,None,None,None,105.212,,,,,,,,,,,,,,,,,,,2019_Sep_03_1819,60.890066638865704,Cloud_Experiment_FR_REAL,001,45,
images/fcloud65-35_D0.9_7.tif,0.9,1,,,,,,,,,,,,,0,48,48,52,,,,,,,,,,,None,None,None,114.203,,,,,,,,,,,,,,,,,,,2019_Sep_03_1819,60.890066638865704,Cloud_Experiment_FR_REAL,001,45,
images/fcloud65-35_D0.8_8.tif,0.8,1,,,,,,,,,,,,,0,49,49,49,,,,,,,,,,,1,space,1,1.468,6.8395824,,,,,,,,,,,,,,,,,,2019_Sep_03_1819,60.890066638865704,Cloud_Experiment_FR_REAL,001,45,
images/fcloud65-35_D1.6_10.tif,1.6,1,,,,,,,,,,,,,0,50,50,83,,,,,,,,,,,None,None,None,12.84,,,,,,,,,,,,,,,,,,,2019_Sep_03_1819,60.890066638865704,Cloud_Experiment_FR_REAL,001,45,
images/fcloud65-35_D1.7_7.tif,1.7,1,,,,,,,,,,,,,0,51,51,84,,,,,,,,,,,None,None,None,21.815,,,,,,,,,,,,,,,,,,,2019_Sep_03_1819,60.890066638865704,Cloud_Experiment_FR_REAL,001,45,
images/fcloud65-35_D1_9.tif,1.0,1,,,,,,,,,,,,,0,52,52,58,,,,,,,,,,,None,None,None,31.14,,,,,,,,,,,,,,,,,,,2019_Sep_03_1819,60.890066638865704,Cloud_Experiment_FR_REAL,001,45,
images/fcloud_D0.8_8.tif,0.8,0,,,,,,,,,,,,,0,53,53,1,,,,,,,,,,,1,None,2,0.768,,,,,,,,,,,,,,,,,,,2019_Sep_03_1819,60.890066638865704,Cloud_Experiment_FR_REAL,001,45,
images/fcloud80-20_D0.9_8.tif,0.9,2,,,,,,,,,,,,,0,54,54,101,,,,,,,,,,,None,None,None,13.957,,,,,,,,,,,,,,,,,,,2019_Sep_03_1819,60.890066638865704,Cloud_Experiment_FR_REAL,001,45,
images/fcloud80-20_D1.3_7.tif,1.3,2,,,,,,,,,,,,,0,55,55,116,,,,,,,,,,,None,None,None,22.582,,,,,,,,,,,,,,,,,,,2019_Sep_03_1819,60.890066638865704,Cloud_Experiment_FR_REAL,001,45,
images/fcloud_D1.6_9.tif,1.6,0,,,,,,,,,,,,,0,56,56,34,,,,,,,,,,,1,space,2,0.869,7.5955612,,,,,,,,,,,,,,,,,,2019_Sep_03_1819,60.890066638865704,Cloud_Experiment_FR_REAL,001,45,
images/fcloud_D1.7_8.tif,1.7,0,,,,,,,,,,,,,0,57,57,37,,,,,,,,,,,None,None,None,9.911,,,,,,,,,,,,,,,,,,,2019_Sep_03_1819,60.890066638865704,Cloud_Experiment_FR_REAL,001,45,
images/fcloud80-20_D1.1_10.tif,1.1,2,,,,,,,,,,,,,0,58,58,111,,,,,,,,,,,None,None,None,18.802,,,,,,,,,,,,,,,,,,,2019_Sep_03_1819,60.890066638865704,Cloud_Experiment_FR_REAL,001,45,
images/fcloud65-35_D1.9_7.tif,1.9,1,,,,,,,,,,,,,0,59,59,92,,,,,,,,,,,3,space,3,0.835,5.09148269999,,,,,,,,,,,,,,,,,,2019_Sep_03_1819,60.890066638865704,Cloud_Experiment_FR_REAL,001,45,
images/fcloud80-20_D1.7_7.tif,1.7,2,,,,,,,,,,,,,0,60,60,132,,,,,,,,,,,None,None,None,10.21,,,,,,,,,,,,,,,,,,,2019_Sep_03_1819,60.890066638865704,Cloud_Experiment_FR_REAL,001,45,
images/fcloud80-20_D1.2_9.tif,1.2,2,,,,,,,,,,,,,0,61,61,114,,,,,,,,,,,None,None,None,19.018,,,,,,,,,,,,,,,,,,,2019_Sep_03_1819,60.890066638865704,Cloud_Experiment_FR_REAL,001,45,
images/fcloud65-35_D1.3_8.tif,1.3,1,,,,,,,,,,,,,0,62,62,69,,,,,,,,,,,None,None,None,27.86,,,,,,,,,,,,,,,,,,,2019_Sep_03_1819,60.890066638865704,Cloud_Experiment_FR_REAL,001,45,
images/fcloud65-35_D1.4_10.tif,1.4,1,,,,,,,,,,,,,0,63,63,75,,,,,,,,,,,3,space,3,0.836,5.1217281,,,,,,,,,,,,,,,,,,2019_Sep_03_1819,60.890066638865704,Cloud_Experiment_FR_REAL,001,45,
images/fcloud_D0.9_9.tif,0.9,0,,,,,,,,,,,,,0,64,64,6,,,,,,,,,,,2,space,3,0.619,3.5548939,,,,,,,,,,,,,,,,,,2019_Sep_03_1819,60.890066638865704,Cloud_Experiment_FR_REAL,001,45,
images/fcloud80-20_D1.8_10.tif,1.8,2,,,,,,,,,,,,,0,65,65,139,,,,,,,,,,,None,None,None,10.076,,,,,,,,,,,,,,,,,,,2019_Sep_03_1819,60.890066638865704,Cloud_Experiment_FR_REAL,001,45,
images/fcloud_D1.1_7.tif,1.1,0,,,,,,,,,,,,,0,66,66,12,,,,,,,,,,,1,None,None,None,,,,,,,,,,,,,,,,,,,2019_Sep_03_1819,60.890066638865704,Cloud_Experiment_FR_REAL,001,45,
images/fcloud65-35_D1_8.tif,1.0,1,,,,,,,,,,,,,0,67,67,57,,,,,,,,,,,None,None,None,9.193,,,,,,,,,,,,,,,,,,,2019_Sep_03_1819,60.890066638865704,Cloud_Experiment_FR_REAL,001,45,
images/fcloud_D0.9_8.tif,0.9,0,,,,,,,,,,,,,0,68,68,5,,,,,,,,,,,1,None,2,0.669,,,,,,,,,,,,,,,,,,,2019_Sep_03_1819,60.890066638865704,Cloud_Experiment_FR_REAL,001,45,
images/fcloud80-20_D0.9_9.tif,0.9,2,,,,,,,,,,,,,0,69,69,102,,,,,,,,,,,None,None,None,11.091,,,,,,,,,,,,,,,,,,,2019_Sep_03_1819,60.890066638865704,Cloud_Experiment_FR_REAL,001,45,
images/fcloud80-20_D1.3_8.tif,1.3,2,,,,,,,,,,,,,0,70,70,117,,,,,,,,,,,None,None,None,20.101,,,,,,,,,,,,,,,,,,,2019_Sep_03_1819,60.890066638865704,Cloud_Experiment_FR_REAL,001,45,
images/fcloud65-35_D1.5_8.tif,1.5,1,,,,,,,,,,,,,0,71,71,77,,,,,,,,,,,None,None,None,29.31,,,,,,,,,,,,,,,,,,,2019_Sep_03_1819,60.890066638865704,Cloud_Experiment_FR_REAL,001,45,
images/fcloud80-20_D1.8_8.tif,1.8,2,,,,,,,,,,,,,0,72,72,137,,,,,,,,,,,None,None,None,43.847,,,,,,,,,,,,,,,,,,,2019_Sep_03_1819,60.890066638865704,Cloud_Experiment_FR_REAL,001,45,
images/fcloud_D1.8_10.tif,1.8,0,,,,,,,,,,,,,0,73,73,43,,,,,,,,,,,None,None,None,52.124,,,,,,,,,,,,,,,,,,,2019_Sep_03_1819,60.890066638865704,Cloud_Experiment_FR_REAL,001,45,
images/fcloud65-35_D1.3_7.tif,1.3,1,,,,,,,,,,,,,0,74,74,68,,,,,,,,,,,1,space,1,0.552,7.49527480001,,,,,,,,,,,,,,,,,,2019_Sep_03_1819,60.890066638865704,Cloud_Experiment_FR_REAL,001,45,
images/fcloud_D1.2_8.tif,1.2,0,,,,,,,,,,,,,0,75,75,17,,,,,,,,,,,1,space,4,0.536,3.2156248,,,,,,,,,,,,,,,,,,2019_Sep_03_1819,60.890066638865704,Cloud_Experiment_FR_REAL,001,45,
images/fcloud_D1.1_9.tif,1.1,0,,,,,,,,,,,,,0,76,76,14,,,,,,,,,,,None,None,None,9.259,,,,,,,,,,,,,,,,,,,2019_Sep_03_1819,60.890066638865704,Cloud_Experiment_FR_REAL,001,45,
images/fcloud80-20_D1.5_7.tif,1.5,2,,,,,,,,,,,,,0,77,77,124,,,,,,,,,,,2,None,4,1.718,,,,,,,,,,,,,,,,,,,2019_Sep_03_1819,60.890066638865704,Cloud_Experiment_FR_REAL,001,45,
images/fcloud65-35_D1.7_10.tif,1.7,1,,,,,,,,,,,,,0,78,78,87,,,,,,,,,,,None,None,None,10.775,,,,,,,,,,,,,,,,,,,2019_Sep_03_1819,60.890066638865704,Cloud_Experiment_FR_REAL,001,45,
images/fcloud80-20_D1_8.tif,1.0,2,,,,,,,,,,,,,0,79,79,105,,,,,,,,,,,None,space,None,19.602,3.019718,,,,,,,,,,,,,,,,,,2019_Sep_03_1819,60.890066638865704,Cloud_Experiment_FR_REAL,001,45,
images/fcloud_D1.1_8.tif,1.1,0,,,,,,,,,,,,,0,80,80,13,,,,,,,,,,,None,None,None,28.726,,,,,,,,,,,,,,,,,,,2019_Sep_03_1819,60.890066638865704,Cloud_Experiment_FR_REAL,001,45,
images/fcloud80-20_D1.7_10.tif,1.7,2,,,,,,,,,,,,,0,81,81,135,,,,,,,,,,,None,None,None,37.069,,,,,,,,,,,,,,,,,,,2019_Sep_03_1819,60.890066638865704,Cloud_Experiment_FR_REAL,001,45,
images/fcloud_D1.8_8.tif,1.8,0,,,,,,,,,,,,,0,82,82,41,,,,,,,,,,,None,space,None,46.994,2.1450223,,,,,,,,,,,,,,,,,,2019_Sep_03_1819,60.890066638865704,Cloud_Experiment_FR_REAL,001,45,
images/fcloud65-35_D0.9_10.tif,0.9,1,,,,,,,,,,,,,0,83,83,55,,,,,,,,,,,3,None,2,0.452,,,,,,,,,,,,,,,,,,,2019_Sep_03_1819,60.890066638865704,Cloud_Experiment_FR_REAL,001,45,
images/fcloud65-35_D1.6_7.tif,1.6,1,,,,,,,,,,,,,0,84,84,80,,,,,,,,,,,None,None,None,8.894,,,,,,,,,,,,,,,,,,,2019_Sep_03_1819,60.890066638865704,Cloud_Experiment_FR_REAL,001,45,
images/fcloud_D1.9_7.tif,1.9,0,,,,,,,,,,,,,0,85,85,44,,,,,,,,,,,None,None,None,18.202,,,,,,,,,,,,,,,,,,,2019_Sep_03_1819,60.890066638865704,Cloud_Experiment_FR_REAL,001,45,
images/fcloud_D1.4_10.tif,1.4,0,,,,,,,,,,,,,0,86,86,27,,,,,,,,,,,2,None,3,0.62,,,,,,,,,,,,,,,,,,,2019_Sep_03_1819,60.890066638865704,Cloud_Experiment_FR_REAL,001,45,
images/fcloud80-20_D1_10.tif,1.0,2,,,,,,,,,,,,,0,87,87,107,,,,,,,,,,,1,None,None,None,,,,,,,,,,,,,,,,,,,2019_Sep_03_1819,60.890066638865704,Cloud_Experiment_FR_REAL,001,45,
images/fcloud_D1.9_9.tif,1.9,0,,,,,,,,,,,,,0,88,88,46,,,,,,,,,,,1,None,3,0.486,,,,,,,,,,,,,,,,,,,2019_Sep_03_1819,60.890066638865704,Cloud_Experiment_FR_REAL,001,45,
images/fcloud65-35_D1.4_8.tif,1.4,1,,,,,,,,,,,,,0,89,89,73,,,,,,,,,,,None,None,None,9.577,,,,,,,,,,,,,,,,,,,2019_Sep_03_1819,60.890066638865704,Cloud_Experiment_FR_REAL,001,45,
images/fcloud65-35_D1.9_8.tif,1.9,1,,,,,,,,,,,,,0,90,90,93,,,,,,,,,,,None,None,None,18.569,,,,,,,,,,,,,,,,,,,2019_Sep_03_1819,60.890066638865704,Cloud_Experiment_FR_REAL,001,45,
images/fcloud65-35_D1.6_9.tif,1.6,1,,,,,,,,,,,,,0,91,91,82,,,,,,,,,,,None,None,None,26.877,,,,,,,,,,,,,,,,,,,2019_Sep_03_1819,60.890066638865704,Cloud_Experiment_FR_REAL,001,45,
images/fcloud_D1.8_7.tif,1.8,0,,,,,,,,,,,,,0,92,92,40,,,,,,,,,,,2,None,2,0.619,,,,,,,,,,,,,,,,,,,2019_Sep_03_1819,60.890066638865704,Cloud_Experiment_FR_REAL,001,45,
images/fcloud80-20_D1.5_9.tif,1.5,2,,,,,,,,,,,,,0,93,93,126,,,,,,,,,,,1,space,2,0.469,6.8543283,,,,,,,,,,,,,,,,,,2019_Sep_03_1819,60.890066638865704,Cloud_Experiment_FR_REAL,001,45,
images/fcloud65-35_D0.8_7.tif,0.8,1,,,,,,,,,,,,,0,94,94,48,,,,,,,,,,,None,None,None,9.178,,,,,,,,,,,,,,,,,,,2019_Sep_03_1819,60.890066638865704,Cloud_Experiment_FR_REAL,001,45,
images/fcloud80-20_D1.5_10.tif,1.5,2,,,,,,,,,,,,,0,95,95,127,,,,,,,,,,,None,None,None,17.554,,,,,,,,,,,,,,,,,,,2019_Sep_03_1819,60.890066638865704,Cloud_Experiment_FR_REAL,001,45,
images/fcloud65-35_D0.8_10.tif,0.8,1,,,,,,,,,,,,,0,96,96,51,,,,,,,,,,,None,None,None,26.246,,,,,,,,,,,,,,,,,,,2019_Sep_03_1819,60.890066638865704,Cloud_Experiment_FR_REAL,001,45,
images/fcloud65-35_D1.6_8.tif,1.6,1,,,,,,,,,,,,,0,97,97,81,,,,,,,,,,,1,space,2,0.852,2.73249539999,,,,,,,,,,,,,,,,,,2019_Sep_03_1819,60.890066638865704,Cloud_Experiment_FR_REAL,001,45,
images/fcloud65-35_D0.8_9.tif,0.8,1,,,,,,,,,,,,,0,98,98,50,,,,,,,,,,,3,space,3,0.669,5.48026359999,,,,,,,,,,,,,,,,,,2019_Sep_03_1819,60.890066638865704,Cloud_Experiment_FR_REAL,001,45,
images/fcloud_D1.9_10.tif,1.9,0,,,,,,,,,,,,,0,99,99,47,,,,,,,,,,,None,None,None,9.926,,,,,,,,,,,,,,,,,,,2019_Sep_03_1819,60.890066638865704,Cloud_Experiment_FR_REAL,001,45,
images/fcloud65-35_D1.4_9.tif,1.4,1,,,,,,,,,,,,,0,100,100,74,,,,,,,,,,,None,None,None,18.919,,,,,,,,,,,,,,,,,,,2019_Sep_03_1819,60.890066638865704,Cloud_Experiment_FR_REAL,001,45,
images/fcloud_D0.8_7.tif,0.8,0,,,,,,,,,,,,,0,101,101,0,,,,,,,,,,,1,space,1,0.552,7.16592110001,,,,,,,,,,,,,,,,,,2019_Sep_03_1819,60.890066638865704,Cloud_Experiment_FR_REAL,001,45,
images/fcloud_D1.3_8.tif,1.3,0,,,,,,,,,,,,,0,102,102,21,,,,,,,,,,,None,None,None,10.508,,,,,,,,,,,,,,,,,,,2019_Sep_03_1819,60.890066638865704,Cloud_Experiment_FR_REAL,001,45,
images/fcloud65-35_D1.7_9.tif,1.7,1,,,,,,,,,,,,,0,103,103,86,,,,,,,,,,,None,None,None,19.585,,,,,,,,,,,,,,,,,,,2019_Sep_03_1819,60.890066638865704,Cloud_Experiment_FR_REAL,001,45,
images/fcloud_D0.8_10.tif,0.8,0,,,,,,,,,,,,,0,104,104,3,,,,,,,,,,,None,None,None,28.811,,,,,,,,,,,,,,,,,,,2019_Sep_03_1819,60.890066638865704,Cloud_Experiment_FR_REAL,001,45,
images/fcloud65-35_D1.1_9.tif,1.1,1,,,,,,,,,,,,,0,105,105,62,,,,,,,,,,,1,space,2,0.669,6.1041783,,,,,,,,,,,,,,,,,,2019_Sep_03_1819,60.890066638865704,Cloud_Experiment_FR_REAL,001,45,
images/fcloud80-20_D1.1_9.tif,1.1,2,,,,,,,,,,,,,0,106,106,110,,,,,,,,,,,None,None,None,9.827,,,,,,,,,,,,,,,,,,,2019_Sep_03_1819,60.890066638865704,Cloud_Experiment_FR_REAL,001,45,
images/fcloud65-35_D1.2_9.tif,1.2,1,,,,,,,,,,,,,0,107,107,66,,,,,,,,,,,1,space,1,1.668,7.478248,,,,,,,,,,,,,,,,,,2019_Sep_03_1819,60.890066638865704,Cloud_Experiment_FR_REAL,001,45,
images/fcloud_D1.3_7.tif,1.3,0,,,,,,,,,,,,,0,108,108,20,,,,,,,,,,,None,None,None,10.027,,,,,,,,,,,,,,,,,,,2019_Sep_03_1819,60.890066638865704,Cloud_Experiment_FR_REAL,001,45,
images/fcloud80-20_D1.4_10.tif,1.4,2,,,,,,,,,,,,,0,109,109,123,,,,,,,,,,,None,None,None,18.403,,,,,,,,,,,,,,,,,,,2019_Sep_03_1819,60.890066638865704,Cloud_Experiment_FR_REAL,001,45,
images/fcloud80-20_D1.6_10.tif,1.6,2,,,,,,,,,,,,,0,110,110,131,,,,,,,,,,,None,None,None,27.46,,,,,,,,,,,,,,,,,,,2019_Sep_03_1819,60.890066638865704,Cloud_Experiment_FR_REAL,001,45,
images/fcloud65-35_D1.1_8.tif,1.1,1,,,,,,,,,,,,,0,111,111,61,,,,,,,,,,,1,space,2,1.119,4.6968286,,,,,,,,,,,,,,,,,,2019_Sep_03_1819,60.890066638865704,Cloud_Experiment_FR_REAL,001,45,
images/fcloud_D1.6_10.tif,1.6,0,,,,,,,,,,,,,0,112,112,35,,,,,,,,,,,None,None,None,10.242,,,,,,,,,,,,,,,,,,,2019_Sep_03_1819,60.890066638865704,Cloud_Experiment_FR_REAL,001,45,
images/fcloud65-35_D1_7.tif,1.0,1,,,,,,,,,,,,,0,113,113,56,,,,,,,,,,,1,None,1,14.707,,,,,,,,,,,,,,,,,,,2019_Sep_03_1819,60.890066638865704,Cloud_Experiment_FR_REAL,001,45,
images/fcloud_D1_10.tif,1.0,0,,,,,,,,,,,,,0,114,114,11,,,,,,,,,,,3,space,2,0.702,1.56466439999,,,,,,,,,,,,,,,,,,2019_Sep_03_1819,60.890066638865704,Cloud_Experiment_FR_REAL,001,45,
images/fcloud65-35_D1_10.tif,1.0,1,,,,,,,,,,,,,0,115,115,59,,,,,,,,,,,None,None,None,12.573,,,,,,,,,,,,,,,,,,,2019_Sep_03_1819,60.890066638865704,Cloud_Experiment_FR_REAL,001,45,
images/fcloud65-35_D1.8_8.tif,1.8,1,,,,,,,,,,,,,0,116,116,89,,,,,,,,,,,None,None,None,22.149,,,,,,,,,,,,,,,,,,,2019_Sep_03_1819,60.890066638865704,Cloud_Experiment_FR_REAL,001,45,
images/fcloud65-35_D1.3_10.tif,1.3,1,,,,,,,,,,,,,0,117,117,71,,,,,,,,,,,None,None,None,34.989,,,,,,,,,,,,,,,,,,,2019_Sep_03_1819,60.890066638865704,Cloud_Experiment_FR_REAL,001,45,
images/fcloud_D0.8_9.tif,0.8,0,,,,,,,,,,,,,0,118,118,2,,,,,,,,,,,1,space,2,0.553,3.4764116,,,,,,,,,,,,,,,,,,2019_Sep_03_1819,60.890066638865704,Cloud_Experiment_FR_REAL,001,45,
images/fcloud65-35_D1.1_7.tif,1.1,1,,,,,,,,,,,,,0,119,119,60,,,,,,,,,,,None,None,None,9.444,,,,,,,,,,,,,,,,,,,2019_Sep_03_1819,60.890066638865704,Cloud_Experiment_FR_REAL,001,45,
images/fcloud80-20_D1.5_8.tif,1.5,2,,,,,,,,,,,,,0,120,120,125,,,,,,,,,,,None,None,None,18.387,,,,,,,,,,,,,,,,,,,2019_Sep_03_1819,60.890066638865704,Cloud_Experiment_FR_REAL,001,45,
images/fcloud_D1.8_9.tif,1.8,0,,,,,,,,,,,,,0,121,121,42,,,,,,,,,,,None,space,None,27.361,4.92250320001,,,,,,,,,,,,,,,,,,2019_Sep_03_1819,60.890066638865704,Cloud_Experiment_FR_REAL,001,45,
images/fcloud65-35_D1.5_10.tif,1.5,1,,,,,,,,,,,,,0,122,122,79,,,,,,,,,,,2,None,2,2.784,,,,,,,,,,,,,,,,,,,2019_Sep_03_1819,60.890066638865704,Cloud_Experiment_FR_REAL,001,45,
images/fcloud80-20_D1.8_9.tif,1.8,2,,,,,,,,,,,,,0,123,123,138,,,,,,,,,,,None,None,None,12.142,,,,,,,,,,,,,,,,,,,2019_Sep_03_1819,60.890066638865704,Cloud_Experiment_FR_REAL,001,45,
images/fcloud80-20_D1.3_10.tif,1.3,2,,,,,,,,,,,,,0,124,124,119,,,,,,,,,,,1,space,3,0.702,3.2265093,,,,,,,,,,,,,,,,,,2019_Sep_03_1819,60.890066638865704,Cloud_Experiment_FR_REAL,001,45,
images/fcloud_D1.9_8.tif,1.9,0,,,,,,,,,,,,,0,125,125,45,,,,,,,,,,,None,None,None,12.774,,,,,,,,,,,,,,,,,,,2019_Sep_03_1819,60.890066638865704,Cloud_Experiment_FR_REAL,001,45,
images/fcloud65-35_D1.2_7.tif,1.2,1,,,,,,,,,,,,,0,126,126,64,,,,,,,,,,,None,None,None,22.748,,,,,,,,,,,,,,,,,,,2019_Sep_03_1819,60.890066638865704,Cloud_Experiment_FR_REAL,001,45,
images/fcloud65-35_D1.4_7.tif,1.4,1,,,,,,,,,,,,,0,127,127,72,,,,,,,,,,,None,None,None,31.908,,,,,,,,,,,,,,,,,,,2019_Sep_03_1819,60.890066638865704,Cloud_Experiment_FR_REAL,001,45,
images/fcloud65-35_D1.5_9.tif,1.5,1,,,,,,,,,,,,,0,128,128,78,,,,,,,,,,,None,None,None,40.265,,,,,,,,,,,,,,,,,,,2019_Sep_03_1819,60.890066638865704,Cloud_Experiment_FR_REAL,001,45,
images/fcloud65-35_D1.8_9.tif,1.8,1,,,,,,,,,,,,,0,129,129,90,,,,,,,,,,,None,None,None,52.656,,,,,,,,,,,,,,,,,,,2019_Sep_03_1819,60.890066638865704,Cloud_Experiment_FR_REAL,001,45,
images/fcloud80-20_D1.9_10.tif,1.9,2,,,,,,,,,,,,,0,130,130,143,,,,,,,,,,,1,None,None,None,,,,,,,,,,,,,,,,,,,2019_Sep_03_1819,60.890066638865704,Cloud_Experiment_FR_REAL,001,45,
images/fcloud65-35_D1.7_8.tif,1.7,1,,,,,,,,,,,,,0,131,131,85,,,,,,,,,,,1,space,1,1.202,7.1203337,,,,,,,,,,,,,,,,,,2019_Sep_03_1819,60.890066638865704,Cloud_Experiment_FR_REAL,001,45,
images/fcloud65-35_D1.1_10.tif,1.1,1,,,,,,,,,,,,,0,132,132,63,,,,,,,,,,,None,None,None,10.142,,,,,,,,,,,,,,,,,,,2019_Sep_03_1819,60.890066638865704,Cloud_Experiment_FR_REAL,001,45,
images/fcloud_D0.9_7.tif,0.9,0,,,,,,,,,,,,,0,133,133,4,,,,,,,,,,,None,None,None,20.102,,,,,,,,,,,,,,,,,,,2019_Sep_03_1819,60.890066638865704,Cloud_Experiment_FR_REAL,001,45,
images/fcloud80-20_D1.2_10.tif,1.2,2,,,,,,,,,,,,,0,134,134,115,,,,,,,,,,,None,None,None,28.561,,,,,,,,,,,,,,,,,,,2019_Sep_03_1819,60.890066638865704,Cloud_Experiment_FR_REAL,001,45,
images/fcloud80-20_D1.2_8.tif,1.2,2,,,,,,,,,,,,,0,135,135,113,,,,,,,,,,,2,space,2,0.719,7.11368140001,,,,,,,,,,,,,,,,,,2019_Sep_03_1819,60.890066638865704,Cloud_Experiment_FR_REAL,001,45,
images/fcloud80-20_D1.4_7.tif,1.4,2,,,,,,,,,,,,,0,136,136,120,,,,,,,,,,,None,None,None,9.994,,,,,,,,,,,,,,,,,,,2019_Sep_03_1819,60.890066638865704,Cloud_Experiment_FR_REAL,001,45,
images/fcloud65-35_D1.9_9.tif,1.9,1,,,,,,,,,,,,,0,137,137,94,,,,,,,,,,,1,None,2,0.569,,,,,,,,,,,,,,,,,,,2019_Sep_03_1819,60.890066638865704,Cloud_Experiment_FR_REAL,001,45,
images/fcloud_D1.6_7.tif,1.6,0,,,,,,,,,,,,,0,138,138,32,,,,,,,,,,,None,None,None,8.893,,,,,,,,,,,,,,,,,,,2019_Sep_03_1819,60.890066638865704,Cloud_Experiment_FR_REAL,001,45,
images/fcloud80-20_D1.9_9.tif,1.9,2,,,,,,,,,,,,,0,139,139,142,,,,,,,,,,,None,None,None,17.837,,,,,,,,,,,,,,,,,,,2019_Sep_03_1819,60.890066638865704,Cloud_Experiment_FR_REAL,001,45,
images/fcloud_D1_7.tif,1.0,0,,,,,,,,,,,,,0,140,140,8,,,,,,,,,,,1,space,1,1.086,2.34503149999,,,,,,,,,,,,,,,,,,2019_Sep_03_1819,60.890066638865704,Cloud_Experiment_FR_REAL,001,45,
images/fcloud_D1.2_7.tif,1.2,0,,,,,,,,,,,,,0,141,141,16,,,,,,,,,,,None,None,None,10.375,,,,,,,,,,,,,,,,,,,2019_Sep_03_1819,60.890066638865704,Cloud_Experiment_FR_REAL,001,45,
images/fcloud80-20_D0.8_10.tif,0.8,2,,,,,,,,,,,,,0,142,142,99,,,,,,,,,,,None,None,None,19.302,,,,,,,,,,,,,,,,,,,2019_Sep_03_1819,60.890066638865704,Cloud_Experiment_FR_REAL,001,45,
images/fcloud_D1.2_10.tif,1.2,0,,,,,,,,,,,,,0,143,143,19,,,,,,,,,,,None,None,None,27.762,,,,,,,,,,,,,,,,,,,2019_Sep_03_1819,60.890066638865704,Cloud_Experiment_FR_REAL,001,45,
,,,,,,,,,,,,,,,,,,,,,,,,,3,7.575,,,,,,,,,,,,,,,,,,,,,,,,,2019_Sep_03_1819,60.890066638865704,Cloud_Experiment_FR_REAL,001,45,
,,,,,,,,,,,,,,,,,,,,,,,,,,,,,,,,,,3,,,,,,,,,,,,,,,,,2019_Sep_03_1819,60.890066638865704,Cloud_Experiment_FR_REAL,001,45,
,,,,,,,,,,,,,,,,,,,,,,,,,,,,,,,,,,,6,,,,,,,,,,,,,,,,2019_Sep_03_1819,60.890066638865704,Cloud_Experiment_FR_REAL,001,45,
,,,,,,,,,,,,,,,,,,,,,,,,,,,,,,,,,,,,2,,,,,,,,,,,,,,,2019_Sep_03_1819,60.890066638865704,Cloud_Experiment_FR_REAL,001,45,
,,,,,,,,,,,,,,,,,,,,,,,,,,,,,,,,,,,,,2,,,,,,,,,,,,,,2019_Sep_03_1819,60.890066638865704,Cloud_Experiment_FR_REAL,001,45,
,,,,,,,,,,,,,,,,,,,,,,,,,,,,,,,,,,,,,,5,,,,,,,,,,,,,2019_Sep_03_1819,60.890066638865704,Cloud_Experiment_FR_REAL,001,45,
,,,,,,,,,,,,,,,,,,,,,,,,,,,,,,,,,,,,,,,2,,,,,,,,,,,,2019_Sep_03_1819,60.890066638865704,Cloud_Experiment_FR_REAL,001,45,
,,,,,,,,,,,,,,,,,,,,,,,,,,,,,,,,,,,,,,,,4,,,,,,,,,,,2019_Sep_03_1819,60.890066638865704,Cloud_Experiment_FR_REAL,001,45,
,,,,,,,,,,,,,,,,,,,,,,,,,,,,,,,,,,,,,,,,,5,,,,,,,,,,2019_Sep_03_1819,60.890066638865704,Cloud_Experiment_FR_REAL,001,45,
,,,,,,,,,,,,,,,,,,,,,,,,,,,,,,,,,,,,,,,,,,6,,,,,,,,,2019_Sep_03_1819,60.890066638865704,Cloud_Experiment_FR_REAL,001,45,
,,,,,,,,,,,,,,,,,,,,,,,,,,,,,,,,,,,,,,,,,,,7,,,,,,,,2019_Sep_03_1819,60.890066638865704,Cloud_Experiment_FR_REAL,001,45,
,,,,,,,,,,,,,,,,,,,,,,,,,,,,,,,,,,,,,,,,,,,,,,,,,,3,2019_Sep_03_1819,60.890066638865704,Cloud_Experiment_FR_REAL,001,45,
