ImageFile,FD,Contrast,trials_4.thisRepN,trials_4.thisTrialN,trials_4.thisN,trials_4.thisIndex,trials.thisRepN,trials.thisTrialN,trials.thisN,trials.thisIndex,trials_2.thisRepN,trials_2.thisTrialN,trials_2.thisN,trials_2.thisIndex,trials_3.thisRepN,trials_3.thisTrialN,trials_3.thisN,trials_3.thisIndex,end_instructions.keys,end_instructions.rt,key_resp_4.keys,key_resp_4.rt,key_resp_6.keys,key_resp_6.rt,Fatigue.response,Fatigue.rt,key_resp_5.keys,key_resp_5.rt,n_objets.response,reaction_time.keys,reaction_time.rt,vividness.response,vividness.rt,Flow01.response,Flow02.response,Flow03.response,Flow04.response,Flow05.response,Flow06.response,Flow07.response,Flow08.response,Flow09.response,Flow10.response,key_resp_2.keys,key_resp_2.rt,key_resp_8.keys,key_resp_8.rt,key_resp_3.keys,key_resp_3.rt,Redondance_question.response,date,frameRate,expName,session,participant,
,,,,,,,,,,,,,,,,,,,space,8.66857550002,,,,,,,,,,,,,,,,,,,,,,,,,,,,,,,2019_Sep_09_1842,59.88432742727087,Cloud_Experiment_FR_REAL,001,46,
,,,,,,,,,,,,,,,,,,,,,space,29.6931977,,,,,,,,,,,,,,,,,,,,,,,,,,,,,2019_Sep_09_1842,59.88432742727087,Cloud_Experiment_FR_REAL,001,46,
,,,,,,,,,,,,,,,,,,,,,,,space,16.2702022,,,,,,,,,,,,,,,,,,,,,,,,,,,2019_Sep_09_1842,59.88432742727087,Cloud_Experiment_FR_REAL,001,46,
,,,,,,,,,,,,,,,,,,,,,,,,,9,7.442,,,,,,,,,,,,,,,,,,,,,,,,,2019_Sep_09_1842,59.88432742727087,Cloud_Experiment_FR_REAL,001,46,
,,,,,,,,,,,,,,,,,,,,,,,,,,,space,135.4333884,,,,,,,,,,,,,,,,,,,,,,,2019_Sep_09_1842,59.88432742727087,Cloud_Experiment_FR_REAL,001,46,
pratique/fcloud65-35_D1.6_30,1.6,1,0,0,0,2,,,,,,,,,,,,,,,,,,,,,,,1,space,6.61745299998,2,5.198,,,,,,,,,,,,,,,,,,2019_Sep_09_1842,59.88432742727087,Cloud_Experiment_FR_REAL,001,46,
pratique/fcloud_D1.4_30,1.4,0,0,1,1,1,,,,,,,,,,,,,,,,,,,,,,,1,space,5.37310639999,4,3.3,,,,,,,,,,,,,,,,,,2019_Sep_09_1842,59.88432742727087,Cloud_Experiment_FR_REAL,001,46,
pratique/fcloud80-20_D1.8_30,1.8,2,0,2,2,4,,,,,,,,,,,,,,,,,,,,,,,2,space,4.83961149998,3,3.732,,,,,,,,,,,,,,,,,,2019_Sep_09_1842,59.88432742727087,Cloud_Experiment_FR_REAL,001,46,
pratique/fcloud65-35_D1.9_29,1.9,1,0,3,3,7,,,,,,,,,,,,,,,,,,,,,,,None,None,,None,13.808,,,,,,,,,,,,,,,,,,2019_Sep_09_1842,59.88432742727087,Cloud_Experiment_FR_REAL,001,46,
pratique/fcloud65-35_D1.3_30,1.3,1,0,4,4,6,,,,,,,,,,,,,,,,,,,,,,,None,None,,None,23.613,,,,,,,,,,,,,,,,,,2019_Sep_09_1842,59.88432742727087,Cloud_Experiment_FR_REAL,001,46,
pratique/fcloud80-20_D1.5_30,1.5,2,0,5,5,8,,,,,,,,,,,,,,,,,,,,,,,2,space,3.98196559999,3,1.883,,,,,,,,,,,,,,,,,,2019_Sep_09_1842,59.88432742727087,Cloud_Experiment_FR_REAL,001,46,
pratique/fcloud_D0.8_30,0.8,0,0,6,6,0,,,,,,,,,,,,,,,,,,,,,,,2,space,6.66895820003,4,1.985,,,,,,,,,,,,,,,,,,2019_Sep_09_1842,59.88432742727087,Cloud_Experiment_FR_REAL,001,46,
pratique/fcloud80-20_D1_30,1.0,2,0,7,7,9,,,,,,,,,,,,,,,,,,,,,,,1,space,5.92951749999,4,1.984,,,,,,,,,,,,,,,,,,2019_Sep_09_1842,59.88432742727087,Cloud_Experiment_FR_REAL,001,46,
pratique/fcloud_D1.6_28,1.6,0,0,8,8,5,,,,,,,,,,,,,,,,,,,,,,,1,space,6.76025799999,3,1.501,,,,,,,,,,,,,,,,,,2019_Sep_09_1842,59.88432742727087,Cloud_Experiment_FR_REAL,001,46,
pratique/fcloud65-35_D1.2_30,1.2,1,0,9,9,3,,,,,,,,,,,,,,,,,,,,,,,1,space,6.79714899999,4,2.418,,,,,,,,,,,,,,,,,,2019_Sep_09_1842,59.88432742727087,Cloud_Experiment_FR_REAL,001,46,
,,,,,,,,,,,,,,,,,,,,,,,,,,,,,,,,,,7,,,,,,,,,,,,,,,,,2019_Sep_09_1842,59.88432742727087,Cloud_Experiment_FR_REAL,001,46,
,,,,,,,,,,,,,,,,,,,,,,,,,,,,,,,,,,,7,,,,,,,,,,,,,,,,2019_Sep_09_1842,59.88432742727087,Cloud_Experiment_FR_REAL,001,46,
,,,,,,,,,,,,,,,,,,,,,,,,,,,,,,,,,,,,5,,,,,,,,,,,,,,,2019_Sep_09_1842,59.88432742727087,Cloud_Experiment_FR_REAL,001,46,
,,,,,,,,,,,,,,,,,,,,,,,,,,,,,,,,,,,,,5,,,,,,,,,,,,,,2019_Sep_09_1842,59.88432742727087,Cloud_Experiment_FR_REAL,001,46,
,,,,,,,,,,,,,,,,,,,,,,,,,,,,,,,,,,,,,,6,,,,,,,,,,,,,2019_Sep_09_1842,59.88432742727087,Cloud_Experiment_FR_REAL,001,46,
,,,,,,,,,,,,,,,,,,,,,,,,,,,,,,,,,,,,,,,6,,,,,,,,,,,,2019_Sep_09_1842,59.88432742727087,Cloud_Experiment_FR_REAL,001,46,
,,,,,,,,,,,,,,,,,,,,,,,,,,,,,,,,,,,,,,,,7,,,,,,,,,,,2019_Sep_09_1842,59.88432742727087,Cloud_Experiment_FR_REAL,001,46,
,,,,,,,,,,,,,,,,,,,,,,,,,,,,,,,,,,,,,,,,,7,,,,,,,,,,2019_Sep_09_1842,59.88432742727087,Cloud_Experiment_FR_REAL,001,46,
,,,,,,,,,,,,,,,,,,,,,,,,,,,,,,,,,,,,,,,,,,7,,,,,,,,,2019_Sep_09_1842,59.88432742727087,Cloud_Experiment_FR_REAL,001,46,
,,,,,,,,,,,,,,,,,,,,,,,,,,,,,,,,,,,,,,,,,,,2,,,,,,,,2019_Sep_09_1842,59.88432742727087,Cloud_Experiment_FR_REAL,001,46,
,,,,,,,,,,,,,,,,,,,,,,,,,,,,,,,,,,,,,,,,,,,,space,1.28409979999,,,,,,2019_Sep_09_1842,59.88432742727087,Cloud_Experiment_FR_REAL,001,46,
images/fcloud_D1.4_1.tif,1.4,0,,,,,0,0,0,18,,,,,,,,,,,,,,,,,,,1,None,,2,2.335,,,,,,,,,,,,,,,,,,2019_Sep_09_1842,59.88432742727087,Cloud_Experiment_FR_REAL,001,46,
images/fcloud_D1.8_2.tif,1.8,0,,,,,0,1,1,31,,,,,,,,,,,,,,,,,,,1,space,4.16170569998,3,1.935,,,,,,,,,,,,,,,,,,2019_Sep_09_1842,59.88432742727087,Cloud_Experiment_FR_REAL,001,46,
images/fcloud80-20_D1.6_3.tif,1.6,2,,,,,0,2,2,98,,,,,,,,,,,,,,,,,,,1,space,3.14828749999,4,1.601,,,,,,,,,,,,,,,,,,2019_Sep_09_1842,59.88432742727087,Cloud_Experiment_FR_REAL,001,46,
images/fcloud_D1.1_2.tif,1.1,0,,,,,0,3,3,10,,,,,,,,,,,,,,,,,,,2,space,4.6345855,3,2.235,,,,,,,,,,,,,,,,,,2019_Sep_09_1842,59.88432742727087,Cloud_Experiment_FR_REAL,001,46,
images/fcloud_D1.8_3.tif,1.8,0,,,,,0,4,4,32,,,,,,,,,,,,,,,,,,,1,space,6.4480226,1,0.735,,,,,,,,,,,,,,,,,,2019_Sep_09_1842,59.88432742727087,Cloud_Experiment_FR_REAL,001,46,
images/fcloud_D1.6_3.tif,1.6,0,,,,,0,5,5,26,,,,,,,,,,,,,,,,,,,1,space,7.52049329999,4,2.001,,,,,,,,,,,,,,,,,,2019_Sep_09_1842,59.88432742727087,Cloud_Experiment_FR_REAL,001,46,
images/fcloud_D1.5_3.tif,1.5,0,,,,,0,6,6,23,,,,,,,,,,,,,,,,,,,None,None,,None,11.075,,,,,,,,,,,,,,,,,,2019_Sep_09_1842,59.88432742727087,Cloud_Experiment_FR_REAL,001,46,
images/fcloud80-20_D1.5_1.tif,1.5,2,,,,,0,7,7,93,,,,,,,,,,,,,,,,,,,1,None,,5,2.052,,,,,,,,,,,,,,,,,,2019_Sep_09_1842,59.88432742727087,Cloud_Experiment_FR_REAL,001,46,
images/fcloud_D1.8_1.tif,1.8,0,,,,,0,8,8,30,,,,,,,,,,,,,,,,,,,1,None,,2,1.485,,,,,,,,,,,,,,,,,,2019_Sep_09_1842,59.88432742727087,Cloud_Experiment_FR_REAL,001,46,
images/fcloud80-20_D1.5_3.tif,1.5,2,,,,,0,9,9,95,,,,,,,,,,,,,,,,,,,1,space,5.951619,2,1.635,,,,,,,,,,,,,,,,,,2019_Sep_09_1842,59.88432742727087,Cloud_Experiment_FR_REAL,001,46,
images/fcloud80-20_D1_1.tif,1.0,2,,,,,0,10,10,78,,,,,,,,,,,,,,,,,,,None,None,,None,11.191,,,,,,,,,,,,,,,,,,2019_Sep_09_1842,59.88432742727087,Cloud_Experiment_FR_REAL,001,46,
images/fcloud65-35_D0.8_2.tif,0.8,1,,,,,0,11,11,37,,,,,,,,,,,,,,,,,,,2,space,5.83933079999,4,1.352,,,,,,,,,,,,,,,,,,2019_Sep_09_1842,59.88432742727087,Cloud_Experiment_FR_REAL,001,46,
images/fcloud80-20_D1.9_2.tif,1.9,2,,,,,0,12,12,106,,,,,,,,,,,,,,,,,,,2,space,5.410856,3,1.367,,,,,,,,,,,,,,,,,,2019_Sep_09_1842,59.88432742727087,Cloud_Experiment_FR_REAL,001,46,
images/fcloud65-35_D1.5_2.tif,1.5,1,,,,,0,13,13,58,,,,,,,,,,,,,,,,,,,None,None,,None,12.59,,,,,,,,,,,,,,,,,,2019_Sep_09_1842,59.88432742727087,Cloud_Experiment_FR_REAL,001,46,
images/fcloud80-20_D0.9_1.tif,0.9,2,,,,,0,14,14,75,,,,,,,,,,,,,,,,,,,2,space,2.21911459998,4,1.168,,,,,,,,,,,,,,,,,,2019_Sep_09_1842,59.88432742727087,Cloud_Experiment_FR_REAL,001,46,
images/fcloud80-20_D1.8_1.tif,1.8,2,,,,,0,15,15,102,,,,,,,,,,,,,,,,,,,1,space,7.31199400002,3,0.602,,,,,,,,,,,,,,,,,,2019_Sep_09_1842,59.88432742727087,Cloud_Experiment_FR_REAL,001,46,
images/fcloud65-35_D1.6_2.tif,1.6,1,,,,,0,16,16,61,,,,,,,,,,,,,,,,,,,2,space,5.70210350002,2,1.002,,,,,,,,,,,,,,,,,,2019_Sep_09_1842,59.88432742727087,Cloud_Experiment_FR_REAL,001,46,
images/fcloud65-35_D1.8_1.tif,1.8,1,,,,,0,17,17,66,,,,,,,,,,,,,,,,,,,1,space,4.26856330002,4,2.267,,,,,,,,,,,,,,,,,,2019_Sep_09_1842,59.88432742727087,Cloud_Experiment_FR_REAL,001,46,
images/fcloud_D1.9_2.tif,1.9,0,,,,,0,18,18,34,,,,,,,,,,,,,,,,,,,1,space,7.60162870001,2,1.584,,,,,,,,,,,,,,,,,,2019_Sep_09_1842,59.88432742727087,Cloud_Experiment_FR_REAL,001,46,
images/fcloud_D1.7_1.tif,1.7,0,,,,,0,19,19,27,,,,,,,,,,,,,,,,,,,3,space,3.6350714,5,1.65,,,,,,,,,,,,,,,,,,2019_Sep_09_1842,59.88432742727087,Cloud_Experiment_FR_REAL,001,46,
images/fcloud65-35_D1.3_1.tif,1.3,1,,,,,0,20,20,51,,,,,,,,,,,,,,,,,,,1,space,4.50359349998,4,1.101,,,,,,,,,,,,,,,,,,2019_Sep_09_1842,59.88432742727087,Cloud_Experiment_FR_REAL,001,46,
images/fcloud65-35_D1_1.tif,1.0,1,,,,,0,21,21,42,,,,,,,,,,,,,,,,,,,None,None,,None,20.284,,,,,,,,,,,,,,,,,,2019_Sep_09_1842,59.88432742727087,Cloud_Experiment_FR_REAL,001,46,
images/fcloud_D1.2_2.tif,1.2,0,,,,,0,22,22,13,,,,,,,,,,,,,,,,,,,3,space,3.84494079999,4,0.869,,,,,,,,,,,,,,,,,,2019_Sep_09_1842,59.88432742727087,Cloud_Experiment_FR_REAL,001,46,
images/fcloud65-35_D1.4_2.tif,1.4,1,,,,,0,23,23,55,,,,,,,,,,,,,,,,,,,2,None,,1,0.485,,,,,,,,,,,,,,,,,,2019_Sep_09_1842,59.88432742727087,Cloud_Experiment_FR_REAL,001,46,
images/fcloud80-20_D0.9_2.tif,0.9,2,,,,,0,24,24,76,,,,,,,,,,,,,,,,,,,1,space,4.36556060001,4,0.601,,,,,,,,,,,,,,,,,,2019_Sep_09_1842,59.88432742727087,Cloud_Experiment_FR_REAL,001,46,
images/fcloud80-20_D1.1_2.tif,1.1,2,,,,,0,25,25,82,,,,,,,,,,,,,,,,,,,2,space,2.16309859999,4,0.819,,,,,,,,,,,,,,,,,,2019_Sep_09_1842,59.88432742727087,Cloud_Experiment_FR_REAL,001,46,
images/fcloud_D1.2_1.tif,1.2,0,,,,,0,26,26,12,,,,,,,,,,,,,,,,,,,2,space,5.7546015,2,1.202,,,,,,,,,,,,,,,,,,2019_Sep_09_1842,59.88432742727087,Cloud_Experiment_FR_REAL,001,46,
images/fcloud65-35_D1.2_2.tif,1.2,1,,,,,0,27,27,49,,,,,,,,,,,,,,,,,,,1,space,3.1088022,4,0.502,,,,,,,,,,,,,,,,,,2019_Sep_09_1842,59.88432742727087,Cloud_Experiment_FR_REAL,001,46,
images/fcloud80-20_D1.8_3.tif,1.8,2,,,,,0,28,28,104,,,,,,,,,,,,,,,,,,,2,space,4.0045518,3,2.717,,,,,,,,,,,,,,,,,,2019_Sep_09_1842,59.88432742727087,Cloud_Experiment_FR_REAL,001,46,
images/fcloud65-35_D1.2_3.tif,1.2,1,,,,,0,29,29,50,,,,,,,,,,,,,,,,,,,1,space,2.5817067,4,3.7,,,,,,,,,,,,,,,,,,2019_Sep_09_1842,59.88432742727087,Cloud_Experiment_FR_REAL,001,46,
images/fcloud80-20_D1.4_3.tif,1.4,2,,,,,0,30,30,92,,,,,,,,,,,,,,,,,,,2,space,6.30857970001,4,1.568,,,,,,,,,,,,,,,,,,2019_Sep_09_1842,59.88432742727087,Cloud_Experiment_FR_REAL,001,46,
images/fcloud_D1.5_1.tif,1.5,0,,,,,0,31,31,21,,,,,,,,,,,,,,,,,,,1,space,3.43335479998,5,1.318,,,,,,,,,,,,,,,,,,2019_Sep_09_1842,59.88432742727087,Cloud_Experiment_FR_REAL,001,46,
images/fcloud65-35_D1.9_1.tif,1.9,1,,,,,0,32,32,69,,,,,,,,,,,,,,,,,,,2,space,4.0358671,3,2.101,,,,,,,,,,,,,,,,,,2019_Sep_09_1842,59.88432742727087,Cloud_Experiment_FR_REAL,001,46,
images/fcloud65-35_D1.6_3.tif,1.6,1,,,,,0,33,33,62,,,,,,,,,,,,,,,,,,,1,space,4.3019318,5,1.019,,,,,,,,,,,,,,,,,,2019_Sep_09_1842,59.88432742727087,Cloud_Experiment_FR_REAL,001,46,
images/fcloud65-35_D1.1_2.tif,1.1,1,,,,,0,34,34,46,,,,,,,,,,,,,,,,,,,1,None,,4,1.586,,,,,,,,,,,,,,,,,,2019_Sep_09_1842,59.88432742727087,Cloud_Experiment_FR_REAL,001,46,
images/fcloud_D1.3_2.tif,1.3,0,,,,,0,35,35,16,,,,,,,,,,,,,,,,,,,2,space,2.86808769999,4,1.286,,,,,,,,,,,,,,,,,,2019_Sep_09_1842,59.88432742727087,Cloud_Experiment_FR_REAL,001,46,
images/fcloud65-35_D1.3_2.tif,1.3,1,,,,,0,36,36,52,,,,,,,,,,,,,,,,,,,2,space,2.16972749998,5,1.135,,,,,,,,,,,,,,,,,,2019_Sep_09_1842,59.88432742727087,Cloud_Experiment_FR_REAL,001,46,
images/fcloud_D1.5_2.tif,1.5,0,,,,,0,37,37,22,,,,,,,,,,,,,,,,,,,3,space,2.9738521,3,2.516,,,,,,,,,,,,,,,,,,2019_Sep_09_1842,59.88432742727087,Cloud_Experiment_FR_REAL,001,46,
images/fcloud80-20_D1.9_3.tif,1.9,2,,,,,0,38,38,107,,,,,,,,,,,,,,,,,,,None,None,,None,11.591,,,,,,,,,,,,,,,,,,2019_Sep_09_1842,59.88432742727087,Cloud_Experiment_FR_REAL,001,46,
images/fcloud65-35_D1.5_1.tif,1.5,1,,,,,0,39,39,57,,,,,,,,,,,,,,,,,,,1,None,,2,0.585,,,,,,,,,,,,,,,,,,2019_Sep_09_1842,59.88432742727087,Cloud_Experiment_FR_REAL,001,46,
images/fcloud80-20_D1.7_1.tif,1.7,2,,,,,0,40,40,99,,,,,,,,,,,,,,,,,,,1,space,4.37009070002,4,0.951,,,,,,,,,,,,,,,,,,2019_Sep_09_1842,59.88432742727087,Cloud_Experiment_FR_REAL,001,46,
images/fcloud_D1.4_3.tif,1.4,0,,,,,0,41,41,20,,,,,,,,,,,,,,,,,,,4,space,3.71896680002,2,0.82,,,,,,,,,,,,,,,,,,2019_Sep_09_1842,59.88432742727087,Cloud_Experiment_FR_REAL,001,46,
images/fcloud65-35_D1.7_2.tif,1.7,1,,,,,0,42,42,64,,,,,,,,,,,,,,,,,,,2,space,4.57021749998,3,9.277,,,,,,,,,,,,,,,,,,2019_Sep_09_1842,59.88432742727087,Cloud_Experiment_FR_REAL,001,46,
images/fcloud80-20_D0.8_2.tif,0.8,2,,,,,0,43,43,73,,,,,,,,,,,,,,,,,,,1,space,6.84005650002,2,0.585,,,,,,,,,,,,,,,,,,2019_Sep_09_1842,59.88432742727087,Cloud_Experiment_FR_REAL,001,46,
images/fcloud_D0.8_2.tif,0.8,0,,,,,0,44,44,1,,,,,,,,,,,,,,,,,,,2,space,1.5640895,5,0.486,,,,,,,,,,,,,,,,,,2019_Sep_09_1842,59.88432742727087,Cloud_Experiment_FR_REAL,001,46,
images/fcloud65-35_D1.9_2.tif,1.9,1,,,,,0,45,45,70,,,,,,,,,,,,,,,,,,,2,space,4.60129680001,2,0.585,,,,,,,,,,,,,,,,,,2019_Sep_09_1842,59.88432742727087,Cloud_Experiment_FR_REAL,001,46,
images/fcloud65-35_D1_3.tif,1.0,1,,,,,0,46,46,44,,,,,,,,,,,,,,,,,,,1,space,3.61680979998,4,0.602,,,,,,,,,,,,,,,,,,2019_Sep_09_1842,59.88432742727087,Cloud_Experiment_FR_REAL,001,46,
images/fcloud80-20_D1.6_2.tif,1.6,2,,,,,0,47,47,97,,,,,,,,,,,,,,,,,,,2,space,5.19628989999,3,0.95,,,,,,,,,,,,,,,,,,2019_Sep_09_1842,59.88432742727087,Cloud_Experiment_FR_REAL,001,46,
images/fcloud_D1.1_1.tif,1.1,0,,,,,0,48,48,9,,,,,,,,,,,,,,,,,,,1,space,4.15536490001,4,1.551,,,,,,,,,,,,,,,,,,2019_Sep_09_1842,59.88432742727087,Cloud_Experiment_FR_REAL,001,46,
images/fcloud80-20_D1.3_3.tif,1.3,2,,,,,0,49,49,89,,,,,,,,,,,,,,,,,,,1,space,4.34827829999,3,1.302,,,,,,,,,,,,,,,,,,2019_Sep_09_1842,59.88432742727087,Cloud_Experiment_FR_REAL,001,46,
images/fcloud65-35_D1.4_1.tif,1.4,1,,,,,0,50,50,54,,,,,,,,,,,,,,,,,,,2,space,6.04152229999,3,2.116,,,,,,,,,,,,,,,,,,2019_Sep_09_1842,59.88432742727087,Cloud_Experiment_FR_REAL,001,46,
images/fcloud_D1_3.tif,1.0,0,,,,,0,51,51,8,,,,,,,,,,,,,,,,,,,3,space,1.6003279,4,0.736,,,,,,,,,,,,,,,,,,2019_Sep_09_1842,59.88432742727087,Cloud_Experiment_FR_REAL,001,46,
images/fcloud65-35_D1.2_1.tif,1.2,1,,,,,0,52,52,48,,,,,,,,,,,,,,,,,,,1,space,2.70830300002,3,0.851,,,,,,,,,,,,,,,,,,2019_Sep_09_1842,59.88432742727087,Cloud_Experiment_FR_REAL,001,46,
images/fcloud80-20_D1.7_2.tif,1.7,2,,,,,0,53,53,100,,,,,,,,,,,,,,,,,,,2,None,,3,0.735,,,,,,,,,,,,,,,,,,2019_Sep_09_1842,59.88432742727087,Cloud_Experiment_FR_REAL,001,46,
images/fcloud65-35_D0.8_1.tif,0.8,1,,,,,0,54,54,36,,,,,,,,,,,,,,,,,,,2,space,2.26320280001,3,1.335,,,,,,,,,,,,,,,,,,2019_Sep_09_1842,59.88432742727087,Cloud_Experiment_FR_REAL,001,46,
images/fcloud_D1.6_1.tif,1.6,0,,,,,0,55,55,24,,,,,,,,,,,,,,,,,,,1,space,3.17952569999,1,0.651,,,,,,,,,,,,,,,,,,2019_Sep_09_1842,59.88432742727087,Cloud_Experiment_FR_REAL,001,46,
images/fcloud_D1.7_3.tif,1.7,0,,,,,0,56,56,29,,,,,,,,,,,,,,,,,,,None,None,,None,9.909,,,,,,,,,,,,,,,,,,2019_Sep_09_1842,59.88432742727087,Cloud_Experiment_FR_REAL,001,46,
images/fcloud65-35_D1.6_1.tif,1.6,1,,,,,0,57,57,60,,,,,,,,,,,,,,,,,,,2,space,5.9470633,5,1.351,,,,,,,,,,,,,,,,,,2019_Sep_09_1842,59.88432742727087,Cloud_Experiment_FR_REAL,001,46,
images/fcloud80-20_D1.6_1.tif,1.6,2,,,,,0,58,58,96,,,,,,,,,,,,,,,,,,,1,space,5.36394500002,4,1.185,,,,,,,,,,,,,,,,,,2019_Sep_09_1842,59.88432742727087,Cloud_Experiment_FR_REAL,001,46,
images/fcloud_D0.9_3.tif,0.9,0,,,,,0,59,59,5,,,,,,,,,,,,,,,,,,,None,None,,None,10.993,,,,,,,,,,,,,,,,,,2019_Sep_09_1842,59.88432742727087,Cloud_Experiment_FR_REAL,001,46,
images/fcloud_D1.1_3.tif,1.1,0,,,,,0,60,60,11,,,,,,,,,,,,,,,,,,,1,None,,2,1.137,,,,,,,,,,,,,,,,,,2019_Sep_09_1842,59.88432742727087,Cloud_Experiment_FR_REAL,001,46,
images/fcloud_D1.6_2.tif,1.6,0,,,,,0,61,61,25,,,,,,,,,,,,,,,,,,,1,None,,3,1.019,,,,,,,,,,,,,,,,,,2019_Sep_09_1842,59.88432742727087,Cloud_Experiment_FR_REAL,001,46,
images/fcloud80-20_D1.1_3.tif,1.1,2,,,,,0,62,62,83,,,,,,,,,,,,,,,,,,,2,space,6.78400760001,2,2.584,,,,,,,,,,,,,,,,,,2019_Sep_09_1842,59.88432742727087,Cloud_Experiment_FR_REAL,001,46,
images/fcloud80-20_D1.2_1.tif,1.2,2,,,,,0,63,63,84,,,,,,,,,,,,,,,,,,,1,space,3.99881009999,2,1.501,,,,,,,,,,,,,,,,,,2019_Sep_09_1842,59.88432742727087,Cloud_Experiment_FR_REAL,001,46,
images/fcloud65-35_D1.9_3.tif,1.9,1,,,,,0,64,64,71,,,,,,,,,,,,,,,,,,,1,None,,3,1.436,,,,,,,,,,,,,,,,,,2019_Sep_09_1842,59.88432742727087,Cloud_Experiment_FR_REAL,001,46,
images/fcloud65-35_D0.9_2.tif,0.9,1,,,,,0,65,65,40,,,,,,,,,,,,,,,,,,,None,None,,None,15.82,,,,,,,,,,,,,,,,,,2019_Sep_09_1842,59.88432742727087,Cloud_Experiment_FR_REAL,001,46,
images/fcloud80-20_D1.1_1.tif,1.1,2,,,,,0,66,66,81,,,,,,,,,,,,,,,,,,,2,space,6.66285119997,3,0.985,,,,,,,,,,,,,,,,,,2019_Sep_09_1842,59.88432742727087,Cloud_Experiment_FR_REAL,001,46,
images/fcloud80-20_D0.9_3.tif,0.9,2,,,,,0,67,67,77,,,,,,,,,,,,,,,,,,,2,space,4.80780429998,4,0.918,,,,,,,,,,,,,,,,,,2019_Sep_09_1842,59.88432742727087,Cloud_Experiment_FR_REAL,001,46,
images/fcloud80-20_D1.7_3.tif,1.7,2,,,,,0,68,68,101,,,,,,,,,,,,,,,,,,,2,space,2.80031179998,4,0.968,,,,,,,,,,,,,,,,,,2019_Sep_09_1842,59.88432742727087,Cloud_Experiment_FR_REAL,001,46,
images/fcloud80-20_D1.2_3.tif,1.2,2,,,,,0,69,69,86,,,,,,,,,,,,,,,,,,,1,space,7.67403239998,4,1.319,,,,,,,,,,,,,,,,,,2019_Sep_09_1842,59.88432742727087,Cloud_Experiment_FR_REAL,001,46,
images/fcloud80-20_D1.9_1.tif,1.9,2,,,,,0,70,70,105,,,,,,,,,,,,,,,,,,,1,None,,1,1.153,,,,,,,,,,,,,,,,,,2019_Sep_09_1842,59.88432742727087,Cloud_Experiment_FR_REAL,001,46,
images/fcloud65-35_D1.7_3.tif,1.7,1,,,,,0,71,71,65,,,,,,,,,,,,,,,,,,,3,space,3.7664313,4,0.97,,,,,,,,,,,,,,,,,,2019_Sep_09_1842,59.88432742727087,Cloud_Experiment_FR_REAL,001,46,
images/fcloud65-35_D1.3_3.tif,1.3,1,,,,,0,72,72,53,,,,,,,,,,,,,,,,,,,1,None,,2,1.118,,,,,,,,,,,,,,,,,,2019_Sep_09_1842,59.88432742727087,Cloud_Experiment_FR_REAL,001,46,
images/fcloud65-35_D0.8_3.tif,0.8,1,,,,,0,73,73,38,,,,,,,,,,,,,,,,,,,2,space,6.6244005,2,1.552,,,,,,,,,,,,,,,,,,2019_Sep_09_1842,59.88432742727087,Cloud_Experiment_FR_REAL,001,46,
images/fcloud65-35_D1.1_1.tif,1.1,1,,,,,0,74,74,45,,,,,,,,,,,,,,,,,,,1,space,4.32629549998,3,1.451,,,,,,,,,,,,,,,,,,2019_Sep_09_1842,59.88432742727087,Cloud_Experiment_FR_REAL,001,46,
images/fcloud80-20_D0.8_3.tif,0.8,2,,,,,0,75,75,74,,,,,,,,,,,,,,,,,,,1,space,5.04343610001,4,0.935,,,,,,,,,,,,,,,,,,2019_Sep_09_1842,59.88432742727087,Cloud_Experiment_FR_REAL,001,46,
images/fcloud80-20_D1.4_1.tif,1.4,2,,,,,0,76,76,90,,,,,,,,,,,,,,,,,,,2,space,4.0345445,3,0.635,,,,,,,,,,,,,,,,,,2019_Sep_09_1842,59.88432742727087,Cloud_Experiment_FR_REAL,001,46,
images/fcloud65-35_D1.5_3.tif,1.5,1,,,,,0,77,77,59,,,,,,,,,,,,,,,,,,,1,None,,4,0.902,,,,,,,,,,,,,,,,,,2019_Sep_09_1842,59.88432742727087,Cloud_Experiment_FR_REAL,001,46,
images/fcloud80-20_D1_2.tif,1.0,2,,,,,0,78,78,79,,,,,,,,,,,,,,,,,,,None,None,,None,9.876,,,,,,,,,,,,,,,,,,2019_Sep_09_1842,59.88432742727087,Cloud_Experiment_FR_REAL,001,46,
images/fcloud65-35_D1.8_3.tif,1.8,1,,,,,0,79,79,68,,,,,,,,,,,,,,,,,,,2,None,,2,1.351,,,,,,,,,,,,,,,,,,2019_Sep_09_1842,59.88432742727087,Cloud_Experiment_FR_REAL,001,46,
images/fcloud65-35_D1.7_1.tif,1.7,1,,,,,0,80,80,63,,,,,,,,,,,,,,,,,,,2,space,2.37183799999,4,1.302,,,,,,,,,,,,,,,,,,2019_Sep_09_1842,59.88432742727087,Cloud_Experiment_FR_REAL,001,46,
images/fcloud80-20_D0.8_1.tif,0.8,2,,,,,0,81,81,72,,,,,,,,,,,,,,,,,,,None,None,,None,10.609,,,,,,,,,,,,,,,,,,2019_Sep_09_1842,59.88432742727087,Cloud_Experiment_FR_REAL,001,46,
images/fcloud_D1.2_3.tif,1.2,0,,,,,0,82,82,14,,,,,,,,,,,,,,,,,,,2,space,3.9498803,5,0.536,,,,,,,,,,,,,,,,,,2019_Sep_09_1842,59.88432742727087,Cloud_Experiment_FR_REAL,001,46,
images/fcloud80-20_D1_3.tif,1.0,2,,,,,0,83,83,80,,,,,,,,,,,,,,,,,,,1,space,8.21377159999,2,1.168,,,,,,,,,,,,,,,,,,2019_Sep_09_1842,59.88432742727087,Cloud_Experiment_FR_REAL,001,46,
images/fcloud80-20_D1.3_1.tif,1.3,2,,,,,0,84,84,87,,,,,,,,,,,,,,,,,,,1,space,5.5962723,2,0.569,,,,,,,,,,,,,,,,,,2019_Sep_09_1842,59.88432742727087,Cloud_Experiment_FR_REAL,001,46,
images/fcloud_D1.3_1.tif,1.3,0,,,,,0,85,85,15,,,,,,,,,,,,,,,,,,,2,space,7.1013026,2,1.784,,,,,,,,,,,,,,,,,,2019_Sep_09_1842,59.88432742727087,Cloud_Experiment_FR_REAL,001,46,
images/fcloud80-20_D1.8_2.tif,1.8,2,,,,,0,86,86,103,,,,,,,,,,,,,,,,,,,2,space,7.6592199,5,1.235,,,,,,,,,,,,,,,,,,2019_Sep_09_1842,59.88432742727087,Cloud_Experiment_FR_REAL,001,46,
images/fcloud_D1.7_2.tif,1.7,0,,,,,0,87,87,28,,,,,,,,,,,,,,,,,,,1,space,3.06254720001,5,1.068,,,,,,,,,,,,,,,,,,2019_Sep_09_1842,59.88432742727087,Cloud_Experiment_FR_REAL,001,46,
images/fcloud65-35_D0.9_1.tif,0.9,1,,,,,0,88,88,39,,,,,,,,,,,,,,,,,,,1,space,6.93503980001,2,1.219,,,,,,,,,,,,,,,,,,2019_Sep_09_1842,59.88432742727087,Cloud_Experiment_FR_REAL,001,46,
images/fcloud80-20_D1.3_2.tif,1.3,2,,,,,0,89,89,88,,,,,,,,,,,,,,,,,,,2,space,5.792407,2,6.08,,,,,,,,,,,,,,,,,,2019_Sep_09_1842,59.88432742727087,Cloud_Experiment_FR_REAL,001,46,
images/fcloud_D1.4_2.tif,1.4,0,,,,,0,90,90,19,,,,,,,,,,,,,,,,,,,1,space,7.50136719999,2,1.251,,,,,,,,,,,,,,,,,,2019_Sep_09_1842,59.88432742727087,Cloud_Experiment_FR_REAL,001,46,
images/fcloud80-20_D1.5_2.tif,1.5,2,,,,,0,91,91,94,,,,,,,,,,,,,,,,,,,2,space,6.03666370001,3,1.251,,,,,,,,,,,,,,,,,,2019_Sep_09_1842,59.88432742727087,Cloud_Experiment_FR_REAL,001,46,
images/fcloud_D0.8_1.tif,0.8,0,,,,,0,92,92,0,,,,,,,,,,,,,,,,,,,2,None,,3,3.5,,,,,,,,,,,,,,,,,,2019_Sep_09_1842,59.88432742727087,Cloud_Experiment_FR_REAL,001,46,
images/fcloud65-35_D1.4_3.tif,1.4,1,,,,,0,93,93,56,,,,,,,,,,,,,,,,,,,1,space,2.08063300001,4,1.45,,,,,,,,,,,,,,,,,,2019_Sep_09_1842,59.88432742727087,Cloud_Experiment_FR_REAL,001,46,
images/fcloud_D1.3_3.tif,1.3,0,,,,,0,94,94,17,,,,,,,,,,,,,,,,,,,2,space,5.2557369,2,1.235,,,,,,,,,,,,,,,,,,2019_Sep_09_1842,59.88432742727087,Cloud_Experiment_FR_REAL,001,46,
images/fcloud_D1.9_1.tif,1.9,0,,,,,0,95,95,33,,,,,,,,,,,,,,,,,,,1,None,,2,1.485,,,,,,,,,,,,,,,,,,2019_Sep_09_1842,59.88432742727087,Cloud_Experiment_FR_REAL,001,46,
images/fcloud65-35_D1_2.tif,1.0,1,,,,,0,96,96,43,,,,,,,,,,,,,,,,,,,1,None,,1,4.731,,,,,,,,,,,,,,,,,,2019_Sep_09_1842,59.88432742727087,Cloud_Experiment_FR_REAL,001,46,
images/fcloud65-35_D0.9_3.tif,0.9,1,,,,,0,97,97,41,,,,,,,,,,,,,,,,,,,1,space,1.6413016,5,1.018,,,,,,,,,,,,,,,,,,2019_Sep_09_1842,59.88432742727087,Cloud_Experiment_FR_REAL,001,46,
images/fcloud65-35_D1.1_3.tif,1.1,1,,,,,0,98,98,47,,,,,,,,,,,,,,,,,,,1,None,,2,2.634,,,,,,,,,,,,,,,,,,2019_Sep_09_1842,59.88432742727087,Cloud_Experiment_FR_REAL,001,46,
images/fcloud_D1_1.tif,1.0,0,,,,,0,99,99,6,,,,,,,,,,,,,,,,,,,1,space,5.54079090001,3,3.365,,,,,,,,,,,,,,,,,,2019_Sep_09_1842,59.88432742727087,Cloud_Experiment_FR_REAL,001,46,
images/fcloud80-20_D1.2_2.tif,1.2,2,,,,,0,100,100,85,,,,,,,,,,,,,,,,,,,None,None,,None,15.938,,,,,,,,,,,,,,,,,,2019_Sep_09_1842,59.88432742727087,Cloud_Experiment_FR_REAL,001,46,
images/fcloud80-20_D1.4_2.tif,1.4,2,,,,,0,101,101,91,,,,,,,,,,,,,,,,,,,None,None,,None,25.295,,,,,,,,,,,,,,,,,,2019_Sep_09_1842,59.88432742727087,Cloud_Experiment_FR_REAL,001,46,
images/fcloud_D0.8_3.tif,0.8,0,,,,,0,102,102,2,,,,,,,,,,,,,,,,,,,2,space,4.23886880002,3,1.251,,,,,,,,,,,,,,,,,,2019_Sep_09_1842,59.88432742727087,Cloud_Experiment_FR_REAL,001,46,
images/fcloud_D0.9_1.tif,0.9,0,,,,,0,103,103,3,,,,,,,,,,,,,,,,,,,3,None,,2,1.286,,,,,,,,,,,,,,,,,,2019_Sep_09_1842,59.88432742727087,Cloud_Experiment_FR_REAL,001,46,
images/fcloud65-35_D1.8_2.tif,1.8,1,,,,,0,104,104,67,,,,,,,,,,,,,,,,,,,None,None,,None,11.008,,,,,,,,,,,,,,,,,,2019_Sep_09_1842,59.88432742727087,Cloud_Experiment_FR_REAL,001,46,
images/fcloud_D1.9_3.tif,1.9,0,,,,,0,105,105,35,,,,,,,,,,,,,,,,,,,1,None,,4,0.619,,,,,,,,,,,,,,,,,,2019_Sep_09_1842,59.88432742727087,Cloud_Experiment_FR_REAL,001,46,
images/fcloud_D0.9_2.tif,0.9,0,,,,,0,106,106,4,,,,,,,,,,,,,,,,,,,1,space,6.34593519999,5,0.803,,,,,,,,,,,,,,,,,,2019_Sep_09_1842,59.88432742727087,Cloud_Experiment_FR_REAL,001,46,
images/fcloud_D1_2.tif,1.0,0,,,,,0,107,107,7,,,,,,,,,,,,,,,,,,,2,None,,1,0.52,,,,,,,,,,,,,,,,,,2019_Sep_09_1842,59.88432742727087,Cloud_Experiment_FR_REAL,001,46,
,,,,,,,,,,,,,,,,,,,,,,,,,,,,,,,,,,,,,,,,,,,,,,space,2.24881210001,,,,2019_Sep_09_1842,59.88432742727087,Cloud_Experiment_FR_REAL,001,46,
,,,,,,,,,,,,,,,,,,,,,,,,,8,8.338,,,,,,,,,,,,,,,,,,,,,,,,,2019_Sep_09_1842,59.88432742727087,Cloud_Experiment_FR_REAL,001,46,
,,,,,,,,,,,,,,,,,,,,,,,,,,,,,,,,,,5,,,,,,,,,,,,,,,,,2019_Sep_09_1842,59.88432742727087,Cloud_Experiment_FR_REAL,001,46,
,,,,,,,,,,,,,,,,,,,,,,,,,,,,,,,,,,,6,,,,,,,,,,,,,,,,2019_Sep_09_1842,59.88432742727087,Cloud_Experiment_FR_REAL,001,46,
,,,,,,,,,,,,,,,,,,,,,,,,,,,,,,,,,,,,2,,,,,,,,,,,,,,,2019_Sep_09_1842,59.88432742727087,Cloud_Experiment_FR_REAL,001,46,
,,,,,,,,,,,,,,,,,,,,,,,,,,,,,,,,,,,,,3,,,,,,,,,,,,,,2019_Sep_09_1842,59.88432742727087,Cloud_Experiment_FR_REAL,001,46,
,,,,,,,,,,,,,,,,,,,,,,,,,,,,,,,,,,,,,,5,,,,,,,,,,,,,2019_Sep_09_1842,59.88432742727087,Cloud_Experiment_FR_REAL,001,46,
,,,,,,,,,,,,,,,,,,,,,,,,,,,,,,,,,,,,,,,5,,,,,,,,,,,,2019_Sep_09_1842,59.88432742727087,Cloud_Experiment_FR_REAL,001,46,
,,,,,,,,,,,,,,,,,,,,,,,,,,,,,,,,,,,,,,,,6,,,,,,,,,,,2019_Sep_09_1842,59.88432742727087,Cloud_Experiment_FR_REAL,001,46,
,,,,,,,,,,,,,,,,,,,,,,,,,,,,,,,,,,,,,,,,,7,,,,,,,,,,2019_Sep_09_1842,59.88432742727087,Cloud_Experiment_FR_REAL,001,46,
,,,,,,,,,,,,,,,,,,,,,,,,,,,,,,,,,,,,,,,,,,5,,,,,,,,,2019_Sep_09_1842,59.88432742727087,Cloud_Experiment_FR_REAL,001,46,
,,,,,,,,,,,,,,,,,,,,,,,,,,,,,,,,,,,,,,,,,,,2,,,,,,,,2019_Sep_09_1842,59.88432742727087,Cloud_Experiment_FR_REAL,001,46,
,,,,,,,,,,,,,,,,,,,,,,,,,,,,,,,,,,,,,,,,,,,,,,,,space,2.31597929998,,2019_Sep_09_1842,59.88432742727087,Cloud_Experiment_FR_REAL,001,46,
images/fcloud_D1.9_6.tif,1.9,0,,,,,,,,,0,0,0,35,,,,,,,,,,,,,,,None,None,,None,55.787,,,,,,,,,,,,,,,,,,2019_Sep_09_1842,59.88432742727087,Cloud_Experiment_FR_REAL,001,46,
images/fcloud80-20_D1.2_4.tif,1.2,2,,,,,,,,,0,1,1,84,,,,,,,,,,,,,,,1,space,3.47684849999,3,0.769,,,,,,,,,,,,,,,,,,2019_Sep_09_1842,59.88432742727087,Cloud_Experiment_FR_REAL,001,46,
images/fcloud65-35_D1.5_6.tif,1.5,1,,,,,,,,,0,2,2,59,,,,,,,,,,,,,,,1,space,5.063509,1,1.435,,,,,,,,,,,,,,,,,,2019_Sep_09_1842,59.88432742727087,Cloud_Experiment_FR_REAL,001,46,
images/fcloud65-35_D1.3_4.tif,1.3,1,,,,,,,,,0,3,3,51,,,,,,,,,,,,,,,1,None,,3,1.168,,,,,,,,,,,,,,,,,,2019_Sep_09_1842,59.88432742727087,Cloud_Experiment_FR_REAL,001,46,
images/fcloud65-35_D1_4.tif,1.0,1,,,,,,,,,0,4,4,42,,,,,,,,,,,,,,,1,None,,4,0.603,,,,,,,,,,,,,,,,,,2019_Sep_09_1842,59.88432742727087,Cloud_Experiment_FR_REAL,001,46,
images/fcloud80-20_D1.6_6.tif,1.6,2,,,,,,,,,0,5,5,98,,,,,,,,,,,,,,,None,None,,None,10.759,,,,,,,,,,,,,,,,,,2019_Sep_09_1842,59.88432742727087,Cloud_Experiment_FR_REAL,001,46,
images/fcloud_D1.1_6.tif,1.1,0,,,,,,,,,0,6,6,11,,,,,,,,,,,,,,,2,space,6.5200399,2,1.833,,,,,,,,,,,,,,,,,,2019_Sep_09_1842,59.88432742727087,Cloud_Experiment_FR_REAL,001,46,
images/fcloud65-35_D1.6_6.tif,1.6,1,,,,,,,,,0,7,7,62,,,,,,,,,,,,,,,1,space,7.74997910002,2,0.569,,,,,,,,,,,,,,,,,,2019_Sep_09_1842,59.88432742727087,Cloud_Experiment_FR_REAL,001,46,
images/fcloud65-35_D1.4_5.tif,1.4,1,,,,,,,,,0,8,8,55,,,,,,,,,,,,,,,None,None,,None,10.344,,,,,,,,,,,,,,,,,,2019_Sep_09_1842,59.88432742727087,Cloud_Experiment_FR_REAL,001,46,
images/fcloud65-35_D1.2_5.tif,1.2,1,,,,,,,,,0,9,9,49,,,,,,,,,,,,,,,2,None,,2,1.134,,,,,,,,,,,,,,,,,,2019_Sep_09_1842,59.88432742727087,Cloud_Experiment_FR_REAL,001,46,
images/fcloud80-20_D0.9_5.tif,0.9,2,,,,,,,,,0,10,10,76,,,,,,,,,,,,,,,1,space,7.20055840001,1,1.25,,,,,,,,,,,,,,,,,,2019_Sep_09_1842,59.88432742727087,Cloud_Experiment_FR_REAL,001,46,
images/fcloud65-35_D1.2_4.tif,1.2,1,,,,,,,,,0,11,11,48,,,,,,,,,,,,,,,1,None,,1,1.252,,,,,,,,,,,,,,,,,,2019_Sep_09_1842,59.88432742727087,Cloud_Experiment_FR_REAL,001,46,
images/fcloud65-35_D1.5_5.tif,1.5,1,,,,,,,,,0,12,12,58,,,,,,,,,,,,,,,2,None,,2,0.952,,,,,,,,,,,,,,,,,,2019_Sep_09_1842,59.88432742727087,Cloud_Experiment_FR_REAL,001,46,
images/fcloud80-20_D1.4_6.tif,1.4,2,,,,,,,,,0,13,13,92,,,,,,,,,,,,,,,3,space,2.11989230002,2,0.985,,,,,,,,,,,,,,,,,,2019_Sep_09_1842,59.88432742727087,Cloud_Experiment_FR_REAL,001,46,
images/fcloud_D1.3_5.tif,1.3,0,,,,,,,,,0,14,14,16,,,,,,,,,,,,,,,1,space,7.65188789999,4,0.967,,,,,,,,,,,,,,,,,,2019_Sep_09_1842,59.88432742727087,Cloud_Experiment_FR_REAL,001,46,
images/fcloud_D1.9_4.tif,1.9,0,,,,,,,,,0,15,15,33,,,,,,,,,,,,,,,1,None,,3,1.318,,,,,,,,,,,,,,,,,,2019_Sep_09_1842,59.88432742727087,Cloud_Experiment_FR_REAL,001,46,
images/fcloud_D1.8_5.tif,1.8,0,,,,,,,,,0,16,16,31,,,,,,,,,,,,,,,None,None,,None,10.792,,,,,,,,,,,,,,,,,,2019_Sep_09_1842,59.88432742727087,Cloud_Experiment_FR_REAL,001,46,
images/fcloud65-35_D1.1_4.tif,1.1,1,,,,,,,,,0,17,17,45,,,,,,,,,,,,,,,1,space,7.595657,2,1.667,,,,,,,,,,,,,,,,,,2019_Sep_09_1842,59.88432742727087,Cloud_Experiment_FR_REAL,001,46,
images/fcloud65-35_D0.8_5.tif,0.8,1,,,,,,,,,0,18,18,37,,,,,,,,,,,,,,,3,None,,2,1.435,,,,,,,,,,,,,,,,,,2019_Sep_09_1842,59.88432742727087,Cloud_Experiment_FR_REAL,001,46,
images/fcloud65-35_D1.1_6.tif,1.1,1,,,,,,,,,0,19,19,47,,,,,,,,,,,,,,,1,None,,2,1.267,,,,,,,,,,,,,,,,,,2019_Sep_09_1842,59.88432742727087,Cloud_Experiment_FR_REAL,001,46,
images/fcloud_D1.7_4.tif,1.7,0,,,,,,,,,0,20,20,27,,,,,,,,,,,,,,,3,space,4.1905162,4,1.22,,,,,,,,,,,,,,,,,,2019_Sep_09_1842,59.88432742727087,Cloud_Experiment_FR_REAL,001,46,
images/fcloud80-20_D1.5_5.tif,1.5,2,,,,,,,,,0,21,21,94,,,,,,,,,,,,,,,2,None,,2,1.536,,,,,,,,,,,,,,,,,,2019_Sep_09_1842,59.88432742727087,Cloud_Experiment_FR_REAL,001,46,
images/fcloud_D1.3_6.tif,1.3,0,,,,,,,,,0,22,22,17,,,,,,,,,,,,,,,3,space,2.7506843,4,1.551,,,,,,,,,,,,,,,,,,2019_Sep_09_1842,59.88432742727087,Cloud_Experiment_FR_REAL,001,46,
images/fcloud80-20_D1.9_6.tif,1.9,2,,,,,,,,,0,23,23,107,,,,,,,,,,,,,,,1,None,,2,1.134,,,,,,,,,,,,,,,,,,2019_Sep_09_1842,59.88432742727087,Cloud_Experiment_FR_REAL,001,46,
images/fcloud80-20_D0.8_5.tif,0.8,2,,,,,,,,,0,24,24,73,,,,,,,,,,,,,,,None,None,,None,11.775,,,,,,,,,,,,,,,,,,2019_Sep_09_1842,59.88432742727087,Cloud_Experiment_FR_REAL,001,46,
images/fcloud65-35_D1.6_5.tif,1.6,1,,,,,,,,,0,25,25,61,,,,,,,,,,,,,,,2,None,,2,1.486,,,,,,,,,,,,,,,,,,2019_Sep_09_1842,59.88432742727087,Cloud_Experiment_FR_REAL,001,46,
images/fcloud_D0.9_4.tif,0.9,0,,,,,,,,,0,26,26,3,,,,,,,,,,,,,,,2,space,1.9513938,4,1.003,,,,,,,,,,,,,,,,,,2019_Sep_09_1842,59.88432742727087,Cloud_Experiment_FR_REAL,001,46,
images/fcloud80-20_D1.4_4.tif,1.4,2,,,,,,,,,0,27,27,90,,,,,,,,,,,,,,,1,None,,3,0.635,,,,,,,,,,,,,,,,,,2019_Sep_09_1842,59.88432742727087,Cloud_Experiment_FR_REAL,001,46,
images/fcloud_D0.9_5.tif,0.9,0,,,,,,,,,0,28,28,4,,,,,,,,,,,,,,,1,space,5.87532289998,4,0.886,,,,,,,,,,,,,,,,,,2019_Sep_09_1842,59.88432742727087,Cloud_Experiment_FR_REAL,001,46,
images/fcloud_D1.4_6.tif,1.4,0,,,,,,,,,0,29,29,20,,,,,,,,,,,,,,,2,None,,2,1.036,,,,,,,,,,,,,,,,,,2019_Sep_09_1842,59.88432742727087,Cloud_Experiment_FR_REAL,001,46,
images/fcloud65-35_D1.3_5.tif,1.3,1,,,,,,,,,0,30,30,52,,,,,,,,,,,,,,,1,space,5.93259509999,2,1.151,,,,,,,,,,,,,,,,,,2019_Sep_09_1842,59.88432742727087,Cloud_Experiment_FR_REAL,001,46,
images/fcloud_D1.3_4.tif,1.3,0,,,,,,,,,0,31,31,15,,,,,,,,,,,,,,,3,space,6.2855085,2,1.25,,,,,,,,,,,,,,,,,,2019_Sep_09_1842,59.88432742727087,Cloud_Experiment_FR_REAL,001,46,
images/fcloud65-35_D1_5.tif,1.0,1,,,,,,,,,0,32,32,43,,,,,,,,,,,,,,,2,space,5.45601759999,1,1.051,,,,,,,,,,,,,,,,,,2019_Sep_09_1842,59.88432742727087,Cloud_Experiment_FR_REAL,001,46,
images/fcloud_D1.6_6.tif,1.6,0,,,,,,,,,0,33,33,26,,,,,,,,,,,,,,,2,None,,2,1.267,,,,,,,,,,,,,,,,,,2019_Sep_09_1842,59.88432742727087,Cloud_Experiment_FR_REAL,001,46,
images/fcloud_D1.6_5.tif,1.6,0,,,,,,,,,0,34,34,25,,,,,,,,,,,,,,,2,space,8.0041204,3,3.05,,,,,,,,,,,,,,,,,,2019_Sep_09_1842,59.88432742727087,Cloud_Experiment_FR_REAL,001,46,
images/fcloud_D1.8_6.tif,1.8,0,,,,,,,,,0,35,35,32,,,,,,,,,,,,,,,4,space,1.77982629999,3,1.034,,,,,,,,,,,,,,,,,,2019_Sep_09_1842,59.88432742727087,Cloud_Experiment_FR_REAL,001,46,
images/fcloud_D1.5_6.tif,1.5,0,,,,,,,,,0,36,36,23,,,,,,,,,,,,,,,3,space,3.72599079998,2,0.785,,,,,,,,,,,,,,,,,,2019_Sep_09_1842,59.88432742727087,Cloud_Experiment_FR_REAL,001,46,
images/fcloud_D1.7_5.tif,1.7,0,,,,,,,,,0,37,37,28,,,,,,,,,,,,,,,2,None,,2,1.801,,,,,,,,,,,,,,,,,,2019_Sep_09_1842,59.88432742727087,Cloud_Experiment_FR_REAL,001,46,
images/fcloud65-35_D0.8_6.tif,0.8,1,,,,,,,,,0,38,38,38,,,,,,,,,,,,,,,1,space,7.02735350002,2,0.935,,,,,,,,,,,,,,,,,,2019_Sep_09_1842,59.88432742727087,Cloud_Experiment_FR_REAL,001,46,
images/fcloud_D0.8_6.tif,0.8,0,,,,,,,,,0,39,39,2,,,,,,,,,,,,,,,None,None,,None,9.676,,,,,,,,,,,,,,,,,,2019_Sep_09_1842,59.88432742727087,Cloud_Experiment_FR_REAL,001,46,
images/fcloud65-35_D1.2_6.tif,1.2,1,,,,,,,,,0,40,40,50,,,,,,,,,,,,,,,1,None,,1,0.951,,,,,,,,,,,,,,,,,,2019_Sep_09_1842,59.88432742727087,Cloud_Experiment_FR_REAL,001,46,
images/fcloud65-35_D1.8_4.tif,1.8,1,,,,,,,,,0,41,41,66,,,,,,,,,,,,,,,2,None,,3,1.338,,,,,,,,,,,,,,,,,,2019_Sep_09_1842,59.88432742727087,Cloud_Experiment_FR_REAL,001,46,
images/fcloud65-35_D1.7_5.tif,1.7,1,,,,,,,,,0,42,42,64,,,,,,,,,,,,,,,2,space,7.64715629999,2,2.4,,,,,,,,,,,,,,,,,,2019_Sep_09_1842,59.88432742727087,Cloud_Experiment_FR_REAL,001,46,
images/fcloud65-35_D0.9_5.tif,0.9,1,,,,,,,,,0,43,43,40,,,,,,,,,,,,,,,2,space,10.8474847,2,1.618,,,,,,,,,,,,,,,,,,2019_Sep_09_1842,59.88432742727087,Cloud_Experiment_FR_REAL,001,46,
images/fcloud80-20_D1.9_4.tif,1.9,2,,,,,,,,,0,44,44,105,,,,,,,,,,,,,,,2,None,,4,0.851,,,,,,,,,,,,,,,,,,2019_Sep_09_1842,59.88432742727087,Cloud_Experiment_FR_REAL,001,46,
images/fcloud65-35_D1.6_4.tif,1.6,1,,,,,,,,,0,45,45,60,,,,,,,,,,,,,,,1,space,4.15479600002,4,1.084,,,,,,,,,,,,,,,,,,2019_Sep_09_1842,59.88432742727087,Cloud_Experiment_FR_REAL,001,46,
images/fcloud80-20_D1.8_4.tif,1.8,2,,,,,,,,,0,46,46,102,,,,,,,,,,,,,,,None,None,,None,10.641,,,,,,,,,,,,,,,,,,2019_Sep_09_1842,59.88432742727087,Cloud_Experiment_FR_REAL,001,46,
images/fcloud80-20_D1.2_6.tif,1.2,2,,,,,,,,,0,47,47,86,,,,,,,,,,,,,,,1,space,3.9067585,2,0.819,,,,,,,,,,,,,,,,,,2019_Sep_09_1842,59.88432742727087,Cloud_Experiment_FR_REAL,001,46,
images/fcloud80-20_D1.8_6.tif,1.8,2,,,,,,,,,0,48,48,104,,,,,,,,,,,,,,,2,space,7.2835663,2,2.868,,,,,,,,,,,,,,,,,,2019_Sep_09_1842,59.88432742727087,Cloud_Experiment_FR_REAL,001,46,
images/fcloud80-20_D1_5.tif,1.0,2,,,,,,,,,0,49,49,79,,,,,,,,,,,,,,,None,None,,None,12.807,,,,,,,,,,,,,,,,,,2019_Sep_09_1842,59.88432742727087,Cloud_Experiment_FR_REAL,001,46,
images/fcloud80-20_D1_6.tif,1.0,2,,,,,,,,,0,50,50,80,,,,,,,,,,,,,,,1,space,5.47448780001,3,2.251,,,,,,,,,,,,,,,,,,2019_Sep_09_1842,59.88432742727087,Cloud_Experiment_FR_REAL,001,46,
images/fcloud65-35_D0.9_4.tif,0.9,1,,,,,,,,,0,51,51,39,,,,,,,,,,,,,,,2,None,,1,0.935,,,,,,,,,,,,,,,,,,2019_Sep_09_1842,59.88432742727087,Cloud_Experiment_FR_REAL,001,46,
images/fcloud_D0.9_6.tif,0.9,0,,,,,,,,,0,52,52,5,,,,,,,,,,,,,,,1,space,4.9515965,1,0.667,,,,,,,,,,,,,,,,,,2019_Sep_09_1842,59.88432742727087,Cloud_Experiment_FR_REAL,001,46,
images/fcloud80-20_D1.1_4.tif,1.1,2,,,,,,,,,0,53,53,81,,,,,,,,,,,,,,,None,None,,None,9.426,,,,,,,,,,,,,,,,,,2019_Sep_09_1842,59.88432742727087,Cloud_Experiment_FR_REAL,001,46,
images/fcloud65-35_D1.3_6.tif,1.3,1,,,,,,,,,0,54,54,53,,,,,,,,,,,,,,,1,space,3.50947290001,3,0.919,,,,,,,,,,,,,,,,,,2019_Sep_09_1842,59.88432742727087,Cloud_Experiment_FR_REAL,001,46,
images/fcloud80-20_D1.9_5.tif,1.9,2,,,,,,,,,0,55,55,106,,,,,,,,,,,,,,,1,space,2.19844909999,5,2.067,,,,,,,,,,,,,,,,,,2019_Sep_09_1842,59.88432742727087,Cloud_Experiment_FR_REAL,001,46,
images/fcloud_D1.6_4.tif,1.6,0,,,,,,,,,0,56,56,24,,,,,,,,,,,,,,,None,space,6.15478079999,None,27.061,,,,,,,,,,,,,,,,,,2019_Sep_09_1842,59.88432742727087,Cloud_Experiment_FR_REAL,001,46,
images/fcloud_D1_6.tif,1.0,0,,,,,,,,,0,57,57,8,,,,,,,,,,,,,,,4,space,1.98665419998,3,1.252,,,,,,,,,,,,,,,,,,2019_Sep_09_1842,59.88432742727087,Cloud_Experiment_FR_REAL,001,46,
images/fcloud80-20_D1.3_6.tif,1.3,2,,,,,,,,,0,58,58,89,,,,,,,,,,,,,,,1,space,4.63369029999,4,1.351,,,,,,,,,,,,,,,,,,2019_Sep_09_1842,59.88432742727087,Cloud_Experiment_FR_REAL,001,46,
images/fcloud_D1.5_4.tif,1.5,0,,,,,,,,,0,59,59,21,,,,,,,,,,,,,,,2,space,4.21571770002,3,1.767,,,,,,,,,,,,,,,,,,2019_Sep_09_1842,59.88432742727087,Cloud_Experiment_FR_REAL,001,46,
images/fcloud80-20_D1_4.tif,1.0,2,,,,,,,,,0,60,60,78,,,,,,,,,,,,,,,1,space,7.26153419999,1,2.302,,,,,,,,,,,,,,,,,,2019_Sep_09_1842,59.88432742727087,Cloud_Experiment_FR_REAL,001,46,
images/fcloud65-35_D1.1_5.tif,1.1,1,,,,,,,,,0,61,61,46,,,,,,,,,,,,,,,2,space,4.71754680001,1,0.752,,,,,,,,,,,,,,,,,,2019_Sep_09_1842,59.88432742727087,Cloud_Experiment_FR_REAL,001,46,
images/fcloud80-20_D1.8_5.tif,1.8,2,,,,,,,,,0,62,62,103,,,,,,,,,,,,,,,1,None,,2,4.882,,,,,,,,,,,,,,,,,,2019_Sep_09_1842,59.88432742727087,Cloud_Experiment_FR_REAL,001,46,
images/fcloud_D0.8_5.tif,0.8,0,,,,,,,,,0,63,63,1,,,,,,,,,,,,,,,4,space,4.54111959998,4,0.419,,,,,,,,,,,,,,,,,,2019_Sep_09_1842,59.88432742727087,Cloud_Experiment_FR_REAL,001,46,
images/fcloud_D1.4_5.tif,1.4,0,,,,,,,,,0,64,64,19,,,,,,,,,,,,,,,2,None,,2,0.751,,,,,,,,,,,,,,,,,,2019_Sep_09_1842,59.88432742727087,Cloud_Experiment_FR_REAL,001,46,
images/fcloud65-35_D1.7_6.tif,1.7,1,,,,,,,,,0,65,65,65,,,,,,,,,,,,,,,2,space,2.63762550001,1,0.534,,,,,,,,,,,,,,,,,,2019_Sep_09_1842,59.88432742727087,Cloud_Experiment_FR_REAL,001,46,
images/fcloud_D1_4.tif,1.0,0,,,,,,,,,0,66,66,6,,,,,,,,,,,,,,,1,space,2.569242,1,3.249,,,,,,,,,,,,,,,,,,2019_Sep_09_1842,59.88432742727087,Cloud_Experiment_FR_REAL,001,46,
images/fcloud80-20_D0.9_4.tif,0.9,2,,,,,,,,,0,67,67,75,,,,,,,,,,,,,,,1,None,,2,1.651,,,,,,,,,,,,,,,,,,2019_Sep_09_1842,59.88432742727087,Cloud_Experiment_FR_REAL,001,46,
images/fcloud80-20_D1.3_5.tif,1.3,2,,,,,,,,,0,68,68,88,,,,,,,,,,,,,,,1,space,4.33723070001,1,1.167,,,,,,,,,,,,,,,,,,2019_Sep_09_1842,59.88432742727087,Cloud_Experiment_FR_REAL,001,46,
images/fcloud80-20_D1.6_4.tif,1.6,2,,,,,,,,,0,69,69,96,,,,,,,,,,,,,,,2,space,6.85857330001,2,1.169,,,,,,,,,,,,,,,,,,2019_Sep_09_1842,59.88432742727087,Cloud_Experiment_FR_REAL,001,46,
images/fcloud80-20_D1.5_6.tif,1.5,2,,,,,,,,,0,70,70,95,,,,,,,,,,,,,,,1,space,7.23631079998,2,0.902,,,,,,,,,,,,,,,,,,2019_Sep_09_1842,59.88432742727087,Cloud_Experiment_FR_REAL,001,46,
images/fcloud_D1.4_4.tif,1.4,0,,,,,,,,,0,71,71,18,,,,,,,,,,,,,,,2,space,1.9978525,2,0.918,,,,,,,,,,,,,,,,,,2019_Sep_09_1842,59.88432742727087,Cloud_Experiment_FR_REAL,001,46,
images/fcloud_D1.1_5.tif,1.1,0,,,,,,,,,0,72,72,10,,,,,,,,,,,,,,,None,None,,None,9.744,,,,,,,,,,,,,,,,,,2019_Sep_09_1842,59.88432742727087,Cloud_Experiment_FR_REAL,001,46,
images/fcloud65-35_D0.9_6.tif,0.9,1,,,,,,,,,0,73,73,41,,,,,,,,,,,,,,,1,space,4.76029660003,2,0.568,,,,,,,,,,,,,,,,,,2019_Sep_09_1842,59.88432742727087,Cloud_Experiment_FR_REAL,001,46,
images/fcloud_D0.8_4.tif,0.8,0,,,,,,,,,0,74,74,0,,,,,,,,,,,,,,,2,space,2.80686099999,4,1.351,,,,,,,,,,,,,,,,,,2019_Sep_09_1842,59.88432742727087,Cloud_Experiment_FR_REAL,001,46,
images/fcloud65-35_D1.9_4.tif,1.9,1,,,,,,,,,0,75,75,69,,,,,,,,,,,,,,,2,None,,4,2.001,,,,,,,,,,,,,,,,,,2019_Sep_09_1842,59.88432742727087,Cloud_Experiment_FR_REAL,001,46,
images/fcloud_D1.7_6.tif,1.7,0,,,,,,,,,0,76,76,29,,,,,,,,,,,,,,,None,None,,None,11.491,,,,,,,,,,,,,,,,,,2019_Sep_09_1842,59.88432742727087,Cloud_Experiment_FR_REAL,001,46,
images/fcloud80-20_D0.8_6.tif,0.8,2,,,,,,,,,0,77,77,74,,,,,,,,,,,,,,,1,None,,2,0.835,,,,,,,,,,,,,,,,,,2019_Sep_09_1842,59.88432742727087,Cloud_Experiment_FR_REAL,001,46,
images/fcloud65-35_D1.8_6.tif,1.8,1,,,,,,,,,0,78,78,68,,,,,,,,,,,,,,,None,None,,None,19.884,,,,,,,,,,,,,,,,,,2019_Sep_09_1842,59.88432742727087,Cloud_Experiment_FR_REAL,001,46,
images/fcloud_D1.9_5.tif,1.9,0,,,,,,,,,0,79,79,34,,,,,,,,,,,,,,,5,space,2.93814849999,2,1.168,,,,,,,,,,,,,,,,,,2019_Sep_09_1842,59.88432742727087,Cloud_Experiment_FR_REAL,001,46,
images/fcloud_D1.5_5.tif,1.5,0,,,,,,,,,0,80,80,22,,,,,,,,,,,,,,,2,space,7.74888610002,2,1.084,,,,,,,,,,,,,,,,,,2019_Sep_09_1842,59.88432742727087,Cloud_Experiment_FR_REAL,001,46,
images/fcloud65-35_D0.8_4.tif,0.8,1,,,,,,,,,0,81,81,36,,,,,,,,,,,,,,,1,space,6.1857193,1,1.233,,,,,,,,,,,,,,,,,,2019_Sep_09_1842,59.88432742727087,Cloud_Experiment_FR_REAL,001,46,
images/fcloud65-35_D1.8_5.tif,1.8,1,,,,,,,,,0,82,82,67,,,,,,,,,,,,,,,2,space,6.62875450001,2,1.235,,,,,,,,,,,,,,,,,,2019_Sep_09_1842,59.88432742727087,Cloud_Experiment_FR_REAL,001,46,
images/fcloud80-20_D1.5_4.tif,1.5,2,,,,,,,,,0,83,83,93,,,,,,,,,,,,,,,1,space,4.38638009998,1,1.335,,,,,,,,,,,,,,,,,,2019_Sep_09_1842,59.88432742727087,Cloud_Experiment_FR_REAL,001,46,
images/fcloud80-20_D1.4_5.tif,1.4,2,,,,,,,,,0,84,84,91,,,,,,,,,,,,,,,None,None,,None,10.825,,,,,,,,,,,,,,,,,,2019_Sep_09_1842,59.88432742727087,Cloud_Experiment_FR_REAL,001,46,
images/fcloud80-20_D1.1_6.tif,1.1,2,,,,,,,,,0,85,85,83,,,,,,,,,,,,,,,1,space,4.4758674,1,0.552,,,,,,,,,,,,,,,,,,2019_Sep_09_1842,59.88432742727087,Cloud_Experiment_FR_REAL,001,46,
images/fcloud65-35_D1.9_6.tif,1.9,1,,,,,,,,,0,86,86,71,,,,,,,,,,,,,,,1,space,4.4515085,5,1.035,,,,,,,,,,,,,,,,,,2019_Sep_09_1842,59.88432742727087,Cloud_Experiment_FR_REAL,001,46,
images/fcloud65-35_D1.7_4.tif,1.7,1,,,,,,,,,0,87,87,63,,,,,,,,,,,,,,,1,space,7.99183660001,4,0.952,,,,,,,,,,,,,,,,,,2019_Sep_09_1842,59.88432742727087,Cloud_Experiment_FR_REAL,001,46,
images/fcloud_D1.1_4.tif,1.1,0,,,,,,,,,0,88,88,9,,,,,,,,,,,,,,,3,space,4.07620079999,3,1.633,,,,,,,,,,,,,,,,,,2019_Sep_09_1842,59.88432742727087,Cloud_Experiment_FR_REAL,001,46,
images/fcloud_D1.2_6.tif,1.2,0,,,,,,,,,0,89,89,14,,,,,,,,,,,,,,,3,None,,2,1.601,,,,,,,,,,,,,,,,,,2019_Sep_09_1842,59.88432742727087,Cloud_Experiment_FR_REAL,001,46,
images/fcloud65-35_D1_6.tif,1.0,1,,,,,,,,,0,90,90,44,,,,,,,,,,,,,,,None,None,,None,9.977,,,,,,,,,,,,,,,,,,2019_Sep_09_1842,59.88432742727087,Cloud_Experiment_FR_REAL,001,46,
images/fcloud80-20_D1.7_4.tif,1.7,2,,,,,,,,,0,91,91,99,,,,,,,,,,,,,,,4,space,2.159419,3,1.202,,,,,,,,,,,,,,,,,,2019_Sep_09_1842,59.88432742727087,Cloud_Experiment_FR_REAL,001,46,
images/fcloud80-20_D0.8_4.tif,0.8,2,,,,,,,,,0,92,92,72,,,,,,,,,,,,,,,2,space,5.27058570003,2,0.785,,,,,,,,,,,,,,,,,,2019_Sep_09_1842,59.88432742727087,Cloud_Experiment_FR_REAL,001,46,
images/fcloud_D1_5.tif,1.0,0,,,,,,,,,0,93,93,7,,,,,,,,,,,,,,,1,None,,2,1.018,,,,,,,,,,,,,,,,,,2019_Sep_09_1842,59.88432742727087,Cloud_Experiment_FR_REAL,001,46,
images/fcloud65-35_D1.9_5.tif,1.9,1,,,,,,,,,0,94,94,70,,,,,,,,,,,,,,,2,space,7.88558860001,3,1.135,,,,,,,,,,,,,,,,,,2019_Sep_09_1842,59.88432742727087,Cloud_Experiment_FR_REAL,001,46,
images/fcloud65-35_D1.4_4.tif,1.4,1,,,,,,,,,0,95,95,54,,,,,,,,,,,,,,,3,space,8.1557154,2,1.002,,,,,,,,,,,,,,,,,,2019_Sep_09_1842,59.88432742727087,Cloud_Experiment_FR_REAL,001,46,
images/fcloud80-20_D1.1_5.tif,1.1,2,,,,,,,,,0,96,96,82,,,,,,,,,,,,,,,None,None,,None,9.86,,,,,,,,,,,,,,,,,,2019_Sep_09_1842,59.88432742727087,Cloud_Experiment_FR_REAL,001,46,
images/fcloud_D1.8_4.tif,1.8,0,,,,,,,,,0,97,97,30,,,,,,,,,,,,,,,4,space,2.67014130001,4,1.102,,,,,,,,,,,,,,,,,,2019_Sep_09_1842,59.88432742727087,Cloud_Experiment_FR_REAL,001,46,
images/fcloud80-20_D1.6_5.tif,1.6,2,,,,,,,,,0,98,98,97,,,,,,,,,,,,,,,3,space,3.89817979999,3,2.384,,,,,,,,,,,,,,,,,,2019_Sep_09_1842,59.88432742727087,Cloud_Experiment_FR_REAL,001,46,
images/fcloud80-20_D1.7_5.tif,1.7,2,,,,,,,,,0,99,99,100,,,,,,,,,,,,,,,2,None,,3,0.435,,,,,,,,,,,,,,,,,,2019_Sep_09_1842,59.88432742727087,Cloud_Experiment_FR_REAL,001,46,
images/fcloud_D1.2_5.tif,1.2,0,,,,,,,,,0,100,100,13,,,,,,,,,,,,,,,2,space,6.04274549999,2,1.934,,,,,,,,,,,,,,,,,,2019_Sep_09_1842,59.88432742727087,Cloud_Experiment_FR_REAL,001,46,
images/fcloud_D1.2_4.tif,1.2,0,,,,,,,,,0,101,101,12,,,,,,,,,,,,,,,2,None,,1,1.168,,,,,,,,,,,,,,,,,,2019_Sep_09_1842,59.88432742727087,Cloud_Experiment_FR_REAL,001,46,
images/fcloud80-20_D0.9_6.tif,0.9,2,,,,,,,,,0,102,102,77,,,,,,,,,,,,,,,1,space,5.56112690002,2,1.368,,,,,,,,,,,,,,,,,,2019_Sep_09_1842,59.88432742727087,Cloud_Experiment_FR_REAL,001,46,
images/fcloud80-20_D1.3_4.tif,1.3,2,,,,,,,,,0,103,103,87,,,,,,,,,,,,,,,1,space,6.0890909,1,1.118,,,,,,,,,,,,,,,,,,2019_Sep_09_1842,59.88432742727087,Cloud_Experiment_FR_REAL,001,46,
images/fcloud80-20_D1.7_6.tif,1.7,2,,,,,,,,,0,104,104,101,,,,,,,,,,,,,,,None,space,7.29065079999,None,9.942,,,,,,,,,,,,,,,,,,2019_Sep_09_1842,59.88432742727087,Cloud_Experiment_FR_REAL,001,46,
images/fcloud80-20_D1.2_5.tif,1.2,2,,,,,,,,,0,105,105,85,,,,,,,,,,,,,,,1,space,4.81069369998,2,0.935,,,,,,,,,,,,,,,,,,2019_Sep_09_1842,59.88432742727087,Cloud_Experiment_FR_REAL,001,46,
images/fcloud65-35_D1.5_4.tif,1.5,1,,,,,,,,,0,106,106,57,,,,,,,,,,,,,,,1,None,,3,1.235,,,,,,,,,,,,,,,,,,2019_Sep_09_1842,59.88432742727087,Cloud_Experiment_FR_REAL,001,46,
images/fcloud65-35_D1.4_6.tif,1.4,1,,,,,,,,,0,107,107,56,,,,,,,,,,,,,,,2,space,1.12995529998,4,0.452,,,,,,,,,,,,,,,,,,2019_Sep_09_1842,59.88432742727087,Cloud_Experiment_FR_REAL,001,46,
,,,,,,,,,,,,,,,,,,,,,,,,,,,,,,,,,,,,,,,,,,,,,,space,2.03249879999,,,,2019_Sep_09_1842,59.88432742727087,Cloud_Experiment_FR_REAL,001,46,
,,,,,,,,,,,,,,,,,,,,,,,,,3,5.93,,,,,,,,,,,,,,,,,,,,,,,,,2019_Sep_09_1842,59.88432742727087,Cloud_Experiment_FR_REAL,001,46,
,,,,,,,,,,,,,,,,,,,,,,,,,,,,,,,,,,6,,,,,,,,,,,,,,,,,2019_Sep_09_1842,59.88432742727087,Cloud_Experiment_FR_REAL,001,46,
,,,,,,,,,,,,,,,,,,,,,,,,,,,,,,,,,,,4,,,,,,,,,,,,,,,,2019_Sep_09_1842,59.88432742727087,Cloud_Experiment_FR_REAL,001,46,
,,,,,,,,,,,,,,,,,,,,,,,,,,,,,,,,,,,,2,,,,,,,,,,,,,,,2019_Sep_09_1842,59.88432742727087,Cloud_Experiment_FR_REAL,001,46,
,,,,,,,,,,,,,,,,,,,,,,,,,,,,,,,,,,,,,3,,,,,,,,,,,,,,2019_Sep_09_1842,59.88432742727087,Cloud_Experiment_FR_REAL,001,46,
,,,,,,,,,,,,,,,,,,,,,,,,,,,,,,,,,,,,,,5,,,,,,,,,,,,,2019_Sep_09_1842,59.88432742727087,Cloud_Experiment_FR_REAL,001,46,
,,,,,,,,,,,,,,,,,,,,,,,,,,,,,,,,,,,,,,,4,,,,,,,,,,,,2019_Sep_09_1842,59.88432742727087,Cloud_Experiment_FR_REAL,001,46,
,,,,,,,,,,,,,,,,,,,,,,,,,,,,,,,,,,,,,,,,6,,,,,,,,,,,2019_Sep_09_1842,59.88432742727087,Cloud_Experiment_FR_REAL,001,46,
,,,,,,,,,,,,,,,,,,,,,,,,,,,,,,,,,,,,,,,,,7,,,,,,,,,,2019_Sep_09_1842,59.88432742727087,Cloud_Experiment_FR_REAL,001,46,
,,,,,,,,,,,,,,,,,,,,,,,,,,,,,,,,,,,,,,,,,,6,,,,,,,,,2019_Sep_09_1842,59.88432742727087,Cloud_Experiment_FR_REAL,001,46,
,,,,,,,,,,,,,,,,,,,,,,,,,,,,,,,,,,,,,,,,,,,1,,,,,,,,2019_Sep_09_1842,59.88432742727087,Cloud_Experiment_FR_REAL,001,46,
,,,,,,,,,,,,,,,,,,,,,,,,,,,,,,,,,,,,,,,,,,,,,,,,space,266.4678592,,2019_Sep_09_1842,59.88432742727087,Cloud_Experiment_FR_REAL,001,46,
images/fcloud80-20_D1.7_8.tif,1.7,2,,,,,,,,,,,,,0,0,0,133,,,,,,,,,,,1,space,7.02699540003,2,7.114,,,,,,,,,,,,,,,,,,2019_Sep_09_1842,59.88432742727087,Cloud_Experiment_FR_REAL,001,46,
images/fcloud65-35_D1.1_9.tif,1.1,1,,,,,,,,,,,,,0,1,1,62,,,,,,,,,,,2,space,4.86437580001,2,0.57,,,,,,,,,,,,,,,,,,2019_Sep_09_1842,59.88432742727087,Cloud_Experiment_FR_REAL,001,46,
images/fcloud80-20_D1.4_8.tif,1.4,2,,,,,,,,,,,,,0,2,2,121,,,,,,,,,,,2,space,4.24887010001,1,0.752,,,,,,,,,,,,,,,,,,2019_Sep_09_1842,59.88432742727087,Cloud_Experiment_FR_REAL,001,46,
images/fcloud_D1.8_10.tif,1.8,0,,,,,,,,,,,,,0,3,3,43,,,,,,,,,,,3,space,5.4836254,3,0.719,,,,,,,,,,,,,,,,,,2019_Sep_09_1842,59.88432742727087,Cloud_Experiment_FR_REAL,001,46,
images/fcloud65-35_D1.6_10.tif,1.6,1,,,,,,,,,,,,,0,4,4,83,,,,,,,,,,,2,space,5.07025620001,2,0.818,,,,,,,,,,,,,,,,,,2019_Sep_09_1842,59.88432742727087,Cloud_Experiment_FR_REAL,001,46,
images/fcloud_D1.6_9.tif,1.6,0,,,,,,,,,,,,,0,5,5,34,,,,,,,,,,,3,space,5.7730019,5,0.718,,,,,,,,,,,,,,,,,,2019_Sep_09_1842,59.88432742727087,Cloud_Experiment_FR_REAL,001,46,
images/fcloud65-35_D1.7_10.tif,1.7,1,,,,,,,,,,,,,0,6,6,87,,,,,,,,,,,None,None,,None,14.655,,,,,,,,,,,,,,,,,,2019_Sep_09_1842,59.88432742727087,Cloud_Experiment_FR_REAL,001,46,
images/fcloud80-20_D1.6_10.tif,1.6,2,,,,,,,,,,,,,0,7,7,131,,,,,,,,,,,3,space,2.36601289999,2,0.585,,,,,,,,,,,,,,,,,,2019_Sep_09_1842,59.88432742727087,Cloud_Experiment_FR_REAL,001,46,
images/fcloud_D0.8_9.tif,0.8,0,,,,,,,,,,,,,0,8,8,2,,,,,,,,,,,2,space,3.38161300001,2,3.565,,,,,,,,,,,,,,,,,,2019_Sep_09_1842,59.88432742727087,Cloud_Experiment_FR_REAL,001,46,
images/fcloud80-20_D1.1_9.tif,1.1,2,,,,,,,,,,,,,0,9,9,110,,,,,,,,,,,None,None,,None,12.441,,,,,,,,,,,,,,,,,,2019_Sep_09_1842,59.88432742727087,Cloud_Experiment_FR_REAL,001,46,
images/fcloud_D1.9_8.tif,1.9,0,,,,,,,,,,,,,0,10,10,45,,,,,,,,,,,2,space,4.90585390001,2,0.468,,,,,,,,,,,,,,,,,,2019_Sep_09_1842,59.88432742727087,Cloud_Experiment_FR_REAL,001,46,
images/fcloud80-20_D1.2_7.tif,1.2,2,,,,,,,,,,,,,0,11,11,112,,,,,,,,,,,3,space,3.86093969998,2,1.119,,,,,,,,,,,,,,,,,,2019_Sep_09_1842,59.88432742727087,Cloud_Experiment_FR_REAL,001,46,
images/fcloud80-20_D0.8_7.tif,0.8,2,,,,,,,,,,,,,0,12,12,96,,,,,,,,,,,1,space,3.8952883,2,1.334,,,,,,,,,,,,,,,,,,2019_Sep_09_1842,59.88432742727087,Cloud_Experiment_FR_REAL,001,46,
images/fcloud80-20_D1.2_10.tif,1.2,2,,,,,,,,,,,,,0,13,13,115,,,,,,,,,,,None,None,,None,10.892,,,,,,,,,,,,,,,,,,2019_Sep_09_1842,59.88432742727087,Cloud_Experiment_FR_REAL,001,46,
images/fcloud_D0.8_7.tif,0.8,0,,,,,,,,,,,,,0,14,14,0,,,,,,,,,,,2,space,2.0609253,4,1.718,,,,,,,,,,,,,,,,,,2019_Sep_09_1842,59.88432742727087,Cloud_Experiment_FR_REAL,001,46,
images/fcloud80-20_D1.5_8.tif,1.5,2,,,,,,,,,,,,,0,15,15,125,,,,,,,,,,,2,space,3.84733730002,2,1.151,,,,,,,,,,,,,,,,,,2019_Sep_09_1842,59.88432742727087,Cloud_Experiment_FR_REAL,001,46,
images/fcloud_D1.5_8.tif,1.5,0,,,,,,,,,,,,,0,16,16,29,,,,,,,,,,,1,space,4.0282843,4,1.086,,,,,,,,,,,,,,,,,,2019_Sep_09_1842,59.88432742727087,Cloud_Experiment_FR_REAL,001,46,
images/fcloud65-35_D1.5_10.tif,1.5,1,,,,,,,,,,,,,0,17,17,79,,,,,,,,,,,None,space,5.57713299998,None,18.869,,,,,,,,,,,,,,,,,,2019_Sep_09_1842,59.88432742727087,Cloud_Experiment_FR_REAL,001,46,
images/fcloud80-20_D1.3_9.tif,1.3,2,,,,,,,,,,,,,0,18,18,118,,,,,,,,,,,2,None,,2,1.252,,,,,,,,,,,,,,,,,,2019_Sep_09_1842,59.88432742727087,Cloud_Experiment_FR_REAL,001,46,
images/fcloud_D1.9_10.tif,1.9,0,,,,,,,,,,,,,0,19,19,47,,,,,,,,,,,3,space,6.60605910001,3,1.085,,,,,,,,,,,,,,,,,,2019_Sep_09_1842,59.88432742727087,Cloud_Experiment_FR_REAL,001,46,
images/fcloud65-35_D0.8_10.tif,0.8,1,,,,,,,,,,,,,0,20,20,51,,,,,,,,,,,3,None,,2,1.185,,,,,,,,,,,,,,,,,,2019_Sep_09_1842,59.88432742727087,Cloud_Experiment_FR_REAL,001,46,
images/fcloud_D1.7_7.tif,1.7,0,,,,,,,,,,,,,0,21,21,36,,,,,,,,,,,2,space,4.9839054,1,2.934,,,,,,,,,,,,,,,,,,2019_Sep_09_1842,59.88432742727087,Cloud_Experiment_FR_REAL,001,46,
images/fcloud_D1.1_10.tif,1.1,0,,,,,,,,,,,,,0,22,22,15,,,,,,,,,,,2,space,2.57556609999,2,0.902,,,,,,,,,,,,,,,,,,2019_Sep_09_1842,59.88432742727087,Cloud_Experiment_FR_REAL,001,46,
images/fcloud_D1.8_8.tif,1.8,0,,,,,,,,,,,,,0,23,23,41,,,,,,,,,,,3,space,3.63004299998,1,0.788,,,,,,,,,,,,,,,,,,2019_Sep_09_1842,59.88432742727087,Cloud_Experiment_FR_REAL,001,46,
images/fcloud_D1.4_7.tif,1.4,0,,,,,,,,,,,,,0,24,24,24,,,,,,,,,,,2,space,3.8371183,1,0.452,,,,,,,,,,,,,,,,,,2019_Sep_09_1842,59.88432742727087,Cloud_Experiment_FR_REAL,001,46,
images/fcloud65-35_D1.1_10.tif,1.1,1,,,,,,,,,,,,,0,25,25,63,,,,,,,,,,,None,None,,None,9.509,,,,,,,,,,,,,,,,,,2019_Sep_09_1842,59.88432742727087,Cloud_Experiment_FR_REAL,001,46,
images/fcloud_D1.9_9.tif,1.9,0,,,,,,,,,,,,,0,26,26,46,,,,,,,,,,,4,space,2.8686551,2,1.019,,,,,,,,,,,,,,,,,,2019_Sep_09_1842,59.88432742727087,Cloud_Experiment_FR_REAL,001,46,
images/fcloud_D1.6_8.tif,1.6,0,,,,,,,,,,,,,0,27,27,33,,,,,,,,,,,2,None,,1,1.684,,,,,,,,,,,,,,,,,,2019_Sep_09_1842,59.88432742727087,Cloud_Experiment_FR_REAL,001,46,
images/fcloud80-20_D1.3_7.tif,1.3,2,,,,,,,,,,,,,0,28,28,116,,,,,,,,,,,2,space,4.0880811,2,10.51,,,,,,,,,,,,,,,,,,2019_Sep_09_1842,59.88432742727087,Cloud_Experiment_FR_REAL,001,46,
images/fcloud80-20_D0.8_10.tif,0.8,2,,,,,,,,,,,,,0,29,29,99,,,,,,,,,,,1,space,3.2514414,3,0.551,,,,,,,,,,,,,,,,,,2019_Sep_09_1842,59.88432742727087,Cloud_Experiment_FR_REAL,001,46,
images/fcloud80-20_D1.5_9.tif,1.5,2,,,,,,,,,,,,,0,30,30,126,,,,,,,,,,,2,space,7.33159710001,1,1.018,,,,,,,,,,,,,,,,,,2019_Sep_09_1842,59.88432742727087,Cloud_Experiment_FR_REAL,001,46,
images/fcloud80-20_D0.8_8.tif,0.8,2,,,,,,,,,,,,,0,31,31,97,,,,,,,,,,,2,space,3.29971289999,1,0.635,,,,,,,,,,,,,,,,,,2019_Sep_09_1842,59.88432742727087,Cloud_Experiment_FR_REAL,001,46,
images/fcloud80-20_D1.8_8.tif,1.8,2,,,,,,,,,,,,,0,32,32,137,,,,,,,,,,,2,space,6.22453599999,2,4.815,,,,,,,,,,,,,,,,,,2019_Sep_09_1842,59.88432742727087,Cloud_Experiment_FR_REAL,001,46,
images/fcloud80-20_D1.4_7.tif,1.4,2,,,,,,,,,,,,,0,33,33,120,,,,,,,,,,,3,space,4.5179839,1,0.952,,,,,,,,,,,,,,,,,,2019_Sep_09_1842,59.88432742727087,Cloud_Experiment_FR_REAL,001,46,
images/fcloud65-35_D1.2_9.tif,1.2,1,,,,,,,,,,,,,0,34,34,66,,,,,,,,,,,None,space,5.24186829999,None,17.704,,,,,,,,,,,,,,,,,,2019_Sep_09_1842,59.88432742727087,Cloud_Experiment_FR_REAL,001,46,
images/fcloud65-35_D1.7_8.tif,1.7,1,,,,,,,,,,,,,0,35,35,85,,,,,,,,,,,2,space,5.1472335,4,0.536,,,,,,,,,,,,,,,,,,2019_Sep_09_1842,59.88432742727087,Cloud_Experiment_FR_REAL,001,46,
images/fcloud_D1.3_9.tif,1.3,0,,,,,,,,,,,,,0,36,36,22,,,,,,,,,,,3,space,7.04809349999,2,0.436,,,,,,,,,,,,,,,,,,2019_Sep_09_1842,59.88432742727087,Cloud_Experiment_FR_REAL,001,46,
images/fcloud65-35_D0.9_7.tif,0.9,1,,,,,,,,,,,,,0,37,37,52,,,,,,,,,,,1,space,2.03465060002,5,0.851,,,,,,,,,,,,,,,,,,2019_Sep_09_1842,59.88432742727087,Cloud_Experiment_FR_REAL,001,46,
images/fcloud65-35_D1.3_7.tif,1.3,1,,,,,,,,,,,,,0,38,38,68,,,,,,,,,,,1,space,6.67476270001,4,1.168,,,,,,,,,,,,,,,,,,2019_Sep_09_1842,59.88432742727087,Cloud_Experiment_FR_REAL,001,46,
images/fcloud80-20_D0.9_10.tif,0.9,2,,,,,,,,,,,,,0,39,39,103,,,,,,,,,,,1,space,4.6929194,4,0.934,,,,,,,,,,,,,,,,,,2019_Sep_09_1842,59.88432742727087,Cloud_Experiment_FR_REAL,001,46,
images/fcloud_D1.8_9.tif,1.8,0,,,,,,,,,,,,,0,40,40,42,,,,,,,,,,,1,space,4.52938170001,3,0.501,,,,,,,,,,,,,,,,,,2019_Sep_09_1842,59.88432742727087,Cloud_Experiment_FR_REAL,001,46,
images/fcloud65-35_D1_8.tif,1.0,1,,,,,,,,,,,,,0,41,41,57,,,,,,,,,,,2,space,4.5452391,3,1.001,,,,,,,,,,,,,,,,,,2019_Sep_09_1842,59.88432742727087,Cloud_Experiment_FR_REAL,001,46,
images/fcloud_D0.8_8.tif,0.8,0,,,,,,,,,,,,,0,42,42,1,,,,,,,,,,,2,space,4.37229979999,3,0.919,,,,,,,,,,,,,,,,,,2019_Sep_09_1842,59.88432742727087,Cloud_Experiment_FR_REAL,001,46,
images/fcloud_D1.5_9.tif,1.5,0,,,,,,,,,,,,,0,43,43,30,,,,,,,,,,,4,space,5.41522229998,2,0.602,,,,,,,,,,,,,,,,,,2019_Sep_09_1842,59.88432742727087,Cloud_Experiment_FR_REAL,001,46,
images/fcloud_D1.4_10.tif,1.4,0,,,,,,,,,,,,,0,44,44,27,,,,,,,,,,,2,space,3.44390509999,3,4.131,,,,,,,,,,,,,,,,,,2019_Sep_09_1842,59.88432742727087,Cloud_Experiment_FR_REAL,001,46,
images/fcloud65-35_D1.8_9.tif,1.8,1,,,,,,,,,,,,,0,45,45,90,,,,,,,,,,,3,space,3.9473035,4,0.701,,,,,,,,,,,,,,,,,,2019_Sep_09_1842,59.88432742727087,Cloud_Experiment_FR_REAL,001,46,
images/fcloud_D1.4_8.tif,1.4,0,,,,,,,,,,,,,0,46,46,25,,,,,,,,,,,2,space,3.94685130002,2,0.619,,,,,,,,,,,,,,,,,,2019_Sep_09_1842,59.88432742727087,Cloud_Experiment_FR_REAL,001,46,
images/fcloud_D1.3_7.tif,1.3,0,,,,,,,,,,,,,0,47,47,20,,,,,,,,,,,2,space,3.46695050001,3,0.584,,,,,,,,,,,,,,,,,,2019_Sep_09_1842,59.88432742727087,Cloud_Experiment_FR_REAL,001,46,
images/fcloud_D1.2_9.tif,1.2,0,,,,,,,,,,,,,0,48,48,18,,,,,,,,,,,2,space,5.1394778,4,1.517,,,,,,,,,,,,,,,,,,2019_Sep_09_1842,59.88432742727087,Cloud_Experiment_FR_REAL,001,46,
images/fcloud65-35_D1_9.tif,1.0,1,,,,,,,,,,,,,0,49,49,58,,,,,,,,,,,None,None,,None,11.758,,,,,,,,,,,,,,,,,,2019_Sep_09_1842,59.88432742727087,Cloud_Experiment_FR_REAL,001,46,
images/fcloud80-20_D1.4_10.tif,1.4,2,,,,,,,,,,,,,0,50,50,123,,,,,,,,,,,2,space,2.6876801,3,0.685,,,,,,,,,,,,,,,,,,2019_Sep_09_1842,59.88432742727087,Cloud_Experiment_FR_REAL,001,46,
images/fcloud65-35_D1.5_9.tif,1.5,1,,,,,,,,,,,,,0,51,51,78,,,,,,,,,,,2,space,3.95236959998,2,2.019,,,,,,,,,,,,,,,,,,2019_Sep_09_1842,59.88432742727087,Cloud_Experiment_FR_REAL,001,46,
images/fcloud80-20_D1.6_9.tif,1.6,2,,,,,,,,,,,,,0,52,52,130,,,,,,,,,,,1,space,4.7214833,1,0.584,,,,,,,,,,,,,,,,,,2019_Sep_09_1842,59.88432742727087,Cloud_Experiment_FR_REAL,001,46,
images/fcloud65-35_D1.9_9.tif,1.9,1,,,,,,,,,,,,,0,53,53,94,,,,,,,,,,,3,space,2.82988189999,2,0.752,,,,,,,,,,,,,,,,,,2019_Sep_09_1842,59.88432742727087,Cloud_Experiment_FR_REAL,001,46,
images/fcloud65-35_D1.2_7.tif,1.2,1,,,,,,,,,,,,,0,54,54,64,,,,,,,,,,,3,space,6.13658190001,4,0.652,,,,,,,,,,,,,,,,,,2019_Sep_09_1842,59.88432742727087,Cloud_Experiment_FR_REAL,001,46,
images/fcloud_D1.3_8.tif,1.3,0,,,,,,,,,,,,,0,55,55,21,,,,,,,,,,,2,space,4.57463349999,4,0.886,,,,,,,,,,,,,,,,,,2019_Sep_09_1842,59.88432742727087,Cloud_Experiment_FR_REAL,001,46,
images/fcloud80-20_D1.2_9.tif,1.2,2,,,,,,,,,,,,,0,56,56,114,,,,,,,,,,,1,space,7.19078020001,5,0.469,,,,,,,,,,,,,,,,,,2019_Sep_09_1842,59.88432742727087,Cloud_Experiment_FR_REAL,001,46,
images/fcloud_D1.1_8.tif,1.1,0,,,,,,,,,,,,,0,57,57,13,,,,,,,,,,,2,space,7.8406966,3,1.402,,,,,,,,,,,,,,,,,,2019_Sep_09_1842,59.88432742727087,Cloud_Experiment_FR_REAL,001,46,
images/fcloud65-35_D1.4_8.tif,1.4,1,,,,,,,,,,,,,0,58,58,73,,,,,,,,,,,None,space,3.46389059999,None,17.553,,,,,,,,,,,,,,,,,,2019_Sep_09_1842,59.88432742727087,Cloud_Experiment_FR_REAL,001,46,
images/fcloud80-20_D1.8_10.tif,1.8,2,,,,,,,,,,,,,0,59,59,139,,,,,,,,,,,1,space,3.11121040001,3,1.035,,,,,,,,,,,,,,,,,,2019_Sep_09_1842,59.88432742727087,Cloud_Experiment_FR_REAL,001,46,
images/fcloud65-35_D1_7.tif,1.0,1,,,,,,,,,,,,,0,60,60,56,,,,,,,,,,,1,space,4.61805409999,3,1.002,,,,,,,,,,,,,,,,,,2019_Sep_09_1842,59.88432742727087,Cloud_Experiment_FR_REAL,001,46,
images/fcloud_D1.7_8.tif,1.7,0,,,,,,,,,,,,,0,61,61,37,,,,,,,,,,,3,space,3.55649340001,3,0.585,,,,,,,,,,,,,,,,,,2019_Sep_09_1842,59.88432742727087,Cloud_Experiment_FR_REAL,001,46,
images/fcloud_D1.6_7.tif,1.6,0,,,,,,,,,,,,,0,62,62,32,,,,,,,,,,,1,space,5.7523742,4,0.603,,,,,,,,,,,,,,,,,,2019_Sep_09_1842,59.88432742727087,Cloud_Experiment_FR_REAL,001,46,
images/fcloud65-35_D1.9_8.tif,1.9,1,,,,,,,,,,,,,0,63,63,93,,,,,,,,,,,4,None,,3,0.553,,,,,,,,,,,,,,,,,,2019_Sep_09_1842,59.88432742727087,Cloud_Experiment_FR_REAL,001,46,
images/fcloud_D1.6_10.tif,1.6,0,,,,,,,,,,,,,0,64,64,35,,,,,,,,,,,5,space,2.21159180001,4,1.052,,,,,,,,,,,,,,,,,,2019_Sep_09_1842,59.88432742727087,Cloud_Experiment_FR_REAL,001,46,
images/fcloud65-35_D1.6_9.tif,1.6,1,,,,,,,,,,,,,0,65,65,82,,,,,,,,,,,1,space,4.27162109999,2,0.485,,,,,,,,,,,,,,,,,,2019_Sep_09_1842,59.88432742727087,Cloud_Experiment_FR_REAL,001,46,
images/fcloud65-35_D0.9_10.tif,0.9,1,,,,,,,,,,,,,0,66,66,55,,,,,,,,,,,None,None,,None,9.992,,,,,,,,,,,,,,,,,,2019_Sep_09_1842,59.88432742727087,Cloud_Experiment_FR_REAL,001,46,
images/fcloud65-35_D1.8_10.tif,1.8,1,,,,,,,,,,,,,0,67,67,91,,,,,,,,,,,3,space,3.94445120002,3,0.735,,,,,,,,,,,,,,,,,,2019_Sep_09_1842,59.88432742727087,Cloud_Experiment_FR_REAL,001,46,
images/fcloud65-35_D1.1_7.tif,1.1,1,,,,,,,,,,,,,0,68,68,60,,,,,,,,,,,1,space,7.8558898,1,0.652,,,,,,,,,,,,,,,,,,2019_Sep_09_1842,59.88432742727087,Cloud_Experiment_FR_REAL,001,46,
images/fcloud80-20_D1_10.tif,1.0,2,,,,,,,,,,,,,0,69,69,107,,,,,,,,,,,None,None,,None,9.593,,,,,,,,,,,,,,,,,,2019_Sep_09_1842,59.88432742727087,Cloud_Experiment_FR_REAL,001,46,
images/fcloud65-35_D1.5_7.tif,1.5,1,,,,,,,,,,,,,0,70,70,76,,,,,,,,,,,2,space,6.64065360001,2,0.718,,,,,,,,,,,,,,,,,,2019_Sep_09_1842,59.88432742727087,Cloud_Experiment_FR_REAL,001,46,
images/fcloud65-35_D0.8_8.tif,0.8,1,,,,,,,,,,,,,0,71,71,49,,,,,,,,,,,1,space,5.34247480001,3,0.702,,,,,,,,,,,,,,,,,,2019_Sep_09_1842,59.88432742727087,Cloud_Experiment_FR_REAL,001,46,
images/fcloud80-20_D1.6_8.tif,1.6,2,,,,,,,,,,,,,0,72,72,129,,,,,,,,,,,1,space,5.88987080002,3,1.452,,,,,,,,,,,,,,,,,,2019_Sep_09_1842,59.88432742727087,Cloud_Experiment_FR_REAL,001,46,
images/fcloud65-35_D0.9_8.tif,0.9,1,,,,,,,,,,,,,0,73,73,53,,,,,,,,,,,1,space,1.22393139999,3,1.117,,,,,,,,,,,,,,,,,,2019_Sep_09_1842,59.88432742727087,Cloud_Experiment_FR_REAL,001,46,
images/fcloud80-20_D0.9_8.tif,0.9,2,,,,,,,,,,,,,0,74,74,101,,,,,,,,,,,None,None,,None,12.024,,,,,,,,,,,,,,,,,,2019_Sep_09_1842,59.88432742727087,Cloud_Experiment_FR_REAL,001,46,
images/fcloud_D0.9_7.tif,0.9,0,,,,,,,,,,,,,0,75,75,4,,,,,,,,,,,3,space,4.09729550002,3,0.485,,,,,,,,,,,,,,,,,,2019_Sep_09_1842,59.88432742727087,Cloud_Experiment_FR_REAL,001,46,
images/fcloud80-20_D1.3_8.tif,1.3,2,,,,,,,,,,,,,0,76,76,117,,,,,,,,,,,2,space,6.41696650002,4,1.051,,,,,,,,,,,,,,,,,,2019_Sep_09_1842,59.88432742727087,Cloud_Experiment_FR_REAL,001,46,
images/fcloud_D1_8.tif,1.0,0,,,,,,,,,,,,,0,77,77,9,,,,,,,,,,,1,space,1.66631180001,3,0.585,,,,,,,,,,,,,,,,,,2019_Sep_09_1842,59.88432742727087,Cloud_Experiment_FR_REAL,001,46,
images/fcloud80-20_D1.1_7.tif,1.1,2,,,,,,,,,,,,,0,78,78,108,,,,,,,,,,,1,space,5.5441726,2,0.7,,,,,,,,,,,,,,,,,,2019_Sep_09_1842,59.88432742727087,Cloud_Experiment_FR_REAL,001,46,
images/fcloud65-35_D1.5_8.tif,1.5,1,,,,,,,,,,,,,0,79,79,77,,,,,,,,,,,2,space,5.3794649,2,1.834,,,,,,,,,,,,,,,,,,2019_Sep_09_1842,59.88432742727087,Cloud_Experiment_FR_REAL,001,46,
images/fcloud65-35_D1.6_7.tif,1.6,1,,,,,,,,,,,,,0,80,80,80,,,,,,,,,,,3,space,6.38978150001,2,0.952,,,,,,,,,,,,,,,,,,2019_Sep_09_1842,59.88432742727087,Cloud_Experiment_FR_REAL,001,46,
images/fcloud65-35_D1.9_7.tif,1.9,1,,,,,,,,,,,,,0,81,81,92,,,,,,,,,,,3,space,6.3404825,4,0.719,,,,,,,,,,,,,,,,,,2019_Sep_09_1842,59.88432742727087,Cloud_Experiment_FR_REAL,001,46,
images/fcloud_D0.9_10.tif,0.9,0,,,,,,,,,,,,,0,82,82,7,,,,,,,,,,,2,space,4.9206895,4,0.734,,,,,,,,,,,,,,,,,,2019_Sep_09_1842,59.88432742727087,Cloud_Experiment_FR_REAL,001,46,
images/fcloud_D1_7.tif,1.0,0,,,,,,,,,,,,,0,83,83,8,,,,,,,,,,,2,None,,3,1.4,,,,,,,,,,,,,,,,,,2019_Sep_09_1842,59.88432742727087,Cloud_Experiment_FR_REAL,001,46,
images/fcloud80-20_D0.9_7.tif,0.9,2,,,,,,,,,,,,,0,84,84,100,,,,,,,,,,,1,space,3.90405330001,2,1.467,,,,,,,,,,,,,,,,,,2019_Sep_09_1842,59.88432742727087,Cloud_Experiment_FR_REAL,001,46,
images/fcloud80-20_D1.9_8.tif,1.9,2,,,,,,,,,,,,,0,85,85,141,,,,,,,,,,,None,None,,None,9.86,,,,,,,,,,,,,,,,,,2019_Sep_09_1842,59.88432742727087,Cloud_Experiment_FR_REAL,001,46,
images/fcloud65-35_D1.3_9.tif,1.3,1,,,,,,,,,,,,,0,86,86,70,,,,,,,,,,,2,space,4.04140310001,3,2.217,,,,,,,,,,,,,,,,,,2019_Sep_09_1842,59.88432742727087,Cloud_Experiment_FR_REAL,001,46,
images/fcloud80-20_D1.2_8.tif,1.2,2,,,,,,,,,,,,,0,87,87,113,,,,,,,,,,,1,space,2.75191339999,3,1.019,,,,,,,,,,,,,,,,,,2019_Sep_09_1842,59.88432742727087,Cloud_Experiment_FR_REAL,001,46,
images/fcloud_D1_10.tif,1.0,0,,,,,,,,,,,,,0,88,88,11,,,,,,,,,,,2,space,6.3980479,2,0.919,,,,,,,,,,,,,,,,,,2019_Sep_09_1842,59.88432742727087,Cloud_Experiment_FR_REAL,001,46,
images/fcloud80-20_D1.9_10.tif,1.9,2,,,,,,,,,,,,,0,89,89,143,,,,,,,,,,,2,space,5.94156859998,2,7.063,,,,,,,,,,,,,,,,,,2019_Sep_09_1842,59.88432742727087,Cloud_Experiment_FR_REAL,001,46,
images/fcloud_D1.1_7.tif,1.1,0,,,,,,,,,,,,,0,90,90,12,,,,,,,,,,,1,space,7.58173149999,4,0.885,,,,,,,,,,,,,,,,,,2019_Sep_09_1842,59.88432742727087,Cloud_Experiment_FR_REAL,001,46,
images/fcloud80-20_D0.8_9.tif,0.8,2,,,,,,,,,,,,,0,91,91,98,,,,,,,,,,,1,space,4.80020980001,2,0.486,,,,,,,,,,,,,,,,,,2019_Sep_09_1842,59.88432742727087,Cloud_Experiment_FR_REAL,001,46,
images/fcloud_D0.9_8.tif,0.9,0,,,,,,,,,,,,,0,92,92,5,,,,,,,,,,,2,space,6.8314432,3,1.385,,,,,,,,,,,,,,,,,,2019_Sep_09_1842,59.88432742727087,Cloud_Experiment_FR_REAL,001,46,
images/fcloud_D0.8_10.tif,0.8,0,,,,,,,,,,,,,0,93,93,3,,,,,,,,,,,None,space,7.14280220002,None,None,,,,,,,,,,,,,,,,,,2019_Sep_09_1842,59.88432742727087,Cloud_Experiment_FR_REAL,001,46,
images/fcloud65-35_D0.9_9.tif,0.9,1,,,,,,,,,,,,,0,94,94,54,,,,,,,,,,,None,None,,None,20.134,,,,,,,,,,,,,,,,,,2019_Sep_09_1842,59.88432742727087,Cloud_Experiment_FR_REAL,001,46,
images/fcloud65-35_D1.1_8.tif,1.1,1,,,,,,,,,,,,,0,95,95,61,,,,,,,,,,,1,space,5.4566982,2,1.634,,,,,,,,,,,,,,,,,,2019_Sep_09_1842,59.88432742727087,Cloud_Experiment_FR_REAL,001,46,
images/fcloud_D1.8_7.tif,1.8,0,,,,,,,,,,,,,0,96,96,40,,,,,,,,,,,2,space,3.85170080001,2,0.967,,,,,,,,,,,,,,,,,,2019_Sep_09_1842,59.88432742727087,Cloud_Experiment_FR_REAL,001,46,
images/fcloud65-35_D1.4_9.tif,1.4,1,,,,,,,,,,,,,0,97,97,74,,,,,,,,,,,1,space,7.2456277,2,0.685,,,,,,,,,,,,,,,,,,2019_Sep_09_1842,59.88432742727087,Cloud_Experiment_FR_REAL,001,46,
images/fcloud_D1.4_9.tif,1.4,0,,,,,,,,,,,,,0,98,98,26,,,,,,,,,,,4,space,4.91693390001,3,2.2,,,,,,,,,,,,,,,,,,2019_Sep_09_1842,59.88432742727087,Cloud_Experiment_FR_REAL,001,46,
images/fcloud_D1.7_10.tif,1.7,0,,,,,,,,,,,,,0,99,99,39,,,,,,,,,,,None,None,,None,12.706,,,,,,,,,,,,,,,,,,2019_Sep_09_1842,59.88432742727087,Cloud_Experiment_FR_REAL,001,46,
images/fcloud80-20_D1_9.tif,1.0,2,,,,,,,,,,,,,0,100,100,106,,,,,,,,,,,1,space,3.91447709998,4,0.584,,,,,,,,,,,,,,,,,,2019_Sep_09_1842,59.88432742727087,Cloud_Experiment_FR_REAL,001,46,
images/fcloud65-35_D1.3_8.tif,1.3,1,,,,,,,,,,,,,0,101,101,69,,,,,,,,,,,2,space,4.14259639999,3,1.2,,,,,,,,,,,,,,,,,,2019_Sep_09_1842,59.88432742727087,Cloud_Experiment_FR_REAL,001,46,
images/fcloud80-20_D0.9_9.tif,0.9,2,,,,,,,,,,,,,0,102,102,102,,,,,,,,,,,None,None,,None,12.624,,,,,,,,,,,,,,,,,,2019_Sep_09_1842,59.88432742727087,Cloud_Experiment_FR_REAL,001,46,
images/fcloud_D1.2_10.tif,1.2,0,,,,,,,,,,,,,0,103,103,19,,,,,,,,,,,2,space,3.4884497,2,1.051,,,,,,,,,,,,,,,,,,2019_Sep_09_1842,59.88432742727087,Cloud_Experiment_FR_REAL,001,46,
images/fcloud80-20_D1.8_7.tif,1.8,2,,,,,,,,,,,,,0,104,104,136,,,,,,,,,,,1,space,4.2514564,2,0.719,,,,,,,,,,,,,,,,,,2019_Sep_09_1842,59.88432742727087,Cloud_Experiment_FR_REAL,001,46,
images/fcloud_D1.2_7.tif,1.2,0,,,,,,,,,,,,,0,105,105,16,,,,,,,,,,,2,space,4.20368209999,3,0.853,,,,,,,,,,,,,,,,,,2019_Sep_09_1842,59.88432742727087,Cloud_Experiment_FR_REAL,001,46,
images/fcloud65-35_D1.8_7.tif,1.8,1,,,,,,,,,,,,,0,106,106,88,,,,,,,,,,,2,space,5.48119970001,1,0.469,,,,,,,,,,,,,,,,,,2019_Sep_09_1842,59.88432742727087,Cloud_Experiment_FR_REAL,001,46,
images/fcloud_D1_9.tif,1.0,0,,,,,,,,,,,,,0,107,107,10,,,,,,,,,,,1,space,6.05519119999,4,2.95,,,,,,,,,,,,,,,,,,2019_Sep_09_1842,59.88432742727087,Cloud_Experiment_FR_REAL,001,46,
images/fcloud80-20_D1.5_7.tif,1.5,2,,,,,,,,,,,,,0,108,108,124,,,,,,,,,,,2,space,5.52929109999,2,0.701,,,,,,,,,,,,,,,,,,2019_Sep_09_1842,59.88432742727087,Cloud_Experiment_FR_REAL,001,46,
images/fcloud65-35_D1.8_8.tif,1.8,1,,,,,,,,,,,,,0,109,109,89,,,,,,,,,,,2,space,5.76125899999,3,1.9,,,,,,,,,,,,,,,,,,2019_Sep_09_1842,59.88432742727087,Cloud_Experiment_FR_REAL,001,46,
images/fcloud65-35_D1.2_8.tif,1.2,1,,,,,,,,,,,,,0,110,110,65,,,,,,,,,,,2,space,6.2712357,5,1.851,,,,,,,,,,,,,,,,,,2019_Sep_09_1842,59.88432742727087,Cloud_Experiment_FR_REAL,001,46,
images/fcloud_D1.9_7.tif,1.9,0,,,,,,,,,,,,,0,111,111,44,,,,,,,,,,,1,space,7.23533739999,4,1.851,,,,,,,,,,,,,,,,,,2019_Sep_09_1842,59.88432742727087,Cloud_Experiment_FR_REAL,001,46,
images/fcloud65-35_D1.3_10.tif,1.3,1,,,,,,,,,,,,,0,112,112,71,,,,,,,,,,,None,None,,None,10.243,,,,,,,,,,,,,,,,,,2019_Sep_09_1842,59.88432742727087,Cloud_Experiment_FR_REAL,001,46,
images/fcloud65-35_D1.4_10.tif,1.4,1,,,,,,,,,,,,,0,113,113,75,,,,,,,,,,,4,space,1.52458949998,4,2.767,,,,,,,,,,,,,,,,,,2019_Sep_09_1842,59.88432742727087,Cloud_Experiment_FR_REAL,001,46,
images/fcloud65-35_D1.9_10.tif,1.9,1,,,,,,,,,,,,,0,114,114,95,,,,,,,,,,,2,space,6.79606319999,3,1.069,,,,,,,,,,,,,,,,,,2019_Sep_09_1842,59.88432742727087,Cloud_Experiment_FR_REAL,001,46,
images/fcloud80-20_D1.6_7.tif,1.6,2,,,,,,,,,,,,,0,115,115,128,,,,,,,,,,,2,space,5.8667633,2,0.468,,,,,,,,,,,,,,,,,,2019_Sep_09_1842,59.88432742727087,Cloud_Experiment_FR_REAL,001,46,
images/fcloud_D0.9_9.tif,0.9,0,,,,,,,,,,,,,0,116,116,6,,,,,,,,,,,1,space,5.75624829999,4,1.451,,,,,,,,,,,,,,,,,,2019_Sep_09_1842,59.88432742727087,Cloud_Experiment_FR_REAL,001,46,
images/fcloud80-20_D1.7_7.tif,1.7,2,,,,,,,,,,,,,0,117,117,132,,,,,,,,,,,None,None,,None,12.724,,,,,,,,,,,,,,,,,,2019_Sep_09_1842,59.88432742727087,Cloud_Experiment_FR_REAL,001,46,
images/fcloud_D1.1_9.tif,1.1,0,,,,,,,,,,,,,0,118,118,14,,,,,,,,,,,2,space,5.95779350001,3,0.568,,,,,,,,,,,,,,,,,,2019_Sep_09_1842,59.88432742727087,Cloud_Experiment_FR_REAL,001,46,
images/fcloud80-20_D1.3_10.tif,1.3,2,,,,,,,,,,,,,0,119,119,119,,,,,,,,,,,3,space,3.34246660001,2,1.085,,,,,,,,,,,,,,,,,,2019_Sep_09_1842,59.88432742727087,Cloud_Experiment_FR_REAL,001,46,
images/fcloud65-35_D1.6_8.tif,1.6,1,,,,,,,,,,,,,0,120,120,81,,,,,,,,,,,4,None,,4,0.602,,,,,,,,,,,,,,,,,,2019_Sep_09_1842,59.88432742727087,Cloud_Experiment_FR_REAL,001,46,
images/fcloud80-20_D1.9_7.tif,1.9,2,,,,,,,,,,,,,0,121,121,140,,,,,,,,,,,3,space,2.25110960001,3,0.569,,,,,,,,,,,,,,,,,,2019_Sep_09_1842,59.88432742727087,Cloud_Experiment_FR_REAL,001,46,
images/fcloud_D1.5_7.tif,1.5,0,,,,,,,,,,,,,0,122,122,28,,,,,,,,,,,1,space,5.16654390001,3,1.752,,,,,,,,,,,,,,,,,,2019_Sep_09_1842,59.88432742727087,Cloud_Experiment_FR_REAL,001,46,
images/fcloud_D1.3_10.tif,1.3,0,,,,,,,,,,,,,0,123,123,23,,,,,,,,,,,2,space,2.08187259999,1,0.518,,,,,,,,,,,,,,,,,,2019_Sep_09_1842,59.88432742727087,Cloud_Experiment_FR_REAL,001,46,
images/fcloud80-20_D1.9_9.tif,1.9,2,,,,,,,,,,,,,0,124,124,142,,,,,,,,,,,1,space,3.1564564,3,0.785,,,,,,,,,,,,,,,,,,2019_Sep_09_1842,59.88432742727087,Cloud_Experiment_FR_REAL,001,46,
images/fcloud_D1.7_9.tif,1.7,0,,,,,,,,,,,,,0,125,125,38,,,,,,,,,,,None,None,,None,9.177,,,,,,,,,,,,,,,,,,2019_Sep_09_1842,59.88432742727087,Cloud_Experiment_FR_REAL,001,46,
images/fcloud80-20_D1.8_9.tif,1.8,2,,,,,,,,,,,,,0,126,126,138,,,,,,,,,,,1,space,6.55324180002,2,1.65,,,,,,,,,,,,,,,,,,2019_Sep_09_1842,59.88432742727087,Cloud_Experiment_FR_REAL,001,46,
images/fcloud80-20_D1.4_9.tif,1.4,2,,,,,,,,,,,,,0,127,127,122,,,,,,,,,,,2,space,1.53376389999,2,2.633,,,,,,,,,,,,,,,,,,2019_Sep_09_1842,59.88432742727087,Cloud_Experiment_FR_REAL,001,46,
images/fcloud80-20_D1.7_9.tif,1.7,2,,,,,,,,,,,,,0,128,128,134,,,,,,,,,,,1,space,3.63928129998,3,2.168,,,,,,,,,,,,,,,,,,2019_Sep_09_1842,59.88432742727087,Cloud_Experiment_FR_REAL,001,46,
images/fcloud80-20_D1.7_10.tif,1.7,2,,,,,,,,,,,,,0,129,129,135,,,,,,,,,,,None,space,6.54441979999,None,13.006,,,,,,,,,,,,,,,,,,2019_Sep_09_1842,59.88432742727087,Cloud_Experiment_FR_REAL,001,46,
images/fcloud80-20_D1.5_10.tif,1.5,2,,,,,,,,,,,,,0,130,130,127,,,,,,,,,,,3,space,2.46697409998,4,0.453,,,,,,,,,,,,,,,,,,2019_Sep_09_1842,59.88432742727087,Cloud_Experiment_FR_REAL,001,46,
images/fcloud65-35_D1.7_7.tif,1.7,1,,,,,,,,,,,,,0,131,131,84,,,,,,,,,,,None,None,,None,9.81,,,,,,,,,,,,,,,,,,2019_Sep_09_1842,59.88432742727087,Cloud_Experiment_FR_REAL,001,46,
images/fcloud65-35_D0.8_9.tif,0.8,1,,,,,,,,,,,,,0,132,132,50,,,,,,,,,,,1,space,4.02532849999,1,1.417,,,,,,,,,,,,,,,,,,2019_Sep_09_1842,59.88432742727087,Cloud_Experiment_FR_REAL,001,46,
images/fcloud65-35_D1.7_9.tif,1.7,1,,,,,,,,,,,,,0,133,133,86,,,,,,,,,,,1,space,5.63015920002,4,2.416,,,,,,,,,,,,,,,,,,2019_Sep_09_1842,59.88432742727087,Cloud_Experiment_FR_REAL,001,46,
images/fcloud80-20_D1.1_8.tif,1.1,2,,,,,,,,,,,,,0,134,134,109,,,,,,,,,,,None,None,,None,10.742,,,,,,,,,,,,,,,,,,2019_Sep_09_1842,59.88432742727087,Cloud_Experiment_FR_REAL,001,46,
images/fcloud80-20_D1_8.tif,1.0,2,,,,,,,,,,,,,0,135,135,105,,,,,,,,,,,1,space,3.46723130002,2,1.552,,,,,,,,,,,,,,,,,,2019_Sep_09_1842,59.88432742727087,Cloud_Experiment_FR_REAL,001,46,
images/fcloud65-35_D0.8_7.tif,0.8,1,,,,,,,,,,,,,0,136,136,48,,,,,,,,,,,2,space,4.90372659999,3,0.718,,,,,,,,,,,,,,,,,,2019_Sep_09_1842,59.88432742727087,Cloud_Experiment_FR_REAL,001,46,
images/fcloud80-20_D1_7.tif,1.0,2,,,,,,,,,,,,,0,137,137,104,,,,,,,,,,,1,space,7.25572349998,2,0.834,,,,,,,,,,,,,,,,,,2019_Sep_09_1842,59.88432742727087,Cloud_Experiment_FR_REAL,001,46,
images/fcloud65-35_D1_10.tif,1.0,1,,,,,,,,,,,,,0,138,138,59,,,,,,,,,,,1,space,7.6305687,2,0.785,,,,,,,,,,,,,,,,,,2019_Sep_09_1842,59.88432742727087,Cloud_Experiment_FR_REAL,001,46,
images/fcloud_D1.2_8.tif,1.2,0,,,,,,,,,,,,,0,139,139,17,,,,,,,,,,,1,space,5.71802470001,4,0.868,,,,,,,,,,,,,,,,,,2019_Sep_09_1842,59.88432742727087,Cloud_Experiment_FR_REAL,001,46,
images/fcloud_D1.5_10.tif,1.5,0,,,,,,,,,,,,,0,140,140,31,,,,,,,,,,,2,space,5.34641560001,1,1.186,,,,,,,,,,,,,,,,,,2019_Sep_09_1842,59.88432742727087,Cloud_Experiment_FR_REAL,001,46,
images/fcloud65-35_D1.4_7.tif,1.4,1,,,,,,,,,,,,,0,141,141,72,,,,,,,,,,,None,None,,None,12.824,,,,,,,,,,,,,,,,,,2019_Sep_09_1842,59.88432742727087,Cloud_Experiment_FR_REAL,001,46,
images/fcloud65-35_D1.2_10.tif,1.2,1,,,,,,,,,,,,,0,142,142,67,,,,,,,,,,,1,space,5.03960629998,4,0.451,,,,,,,,,,,,,,,,,,2019_Sep_09_1842,59.88432742727087,Cloud_Experiment_FR_REAL,001,46,
images/fcloud80-20_D1.1_10.tif,1.1,2,,,,,,,,,,,,,0,143,143,111,,,,,,,,,,,2,space,6.93710289997,2,3.215,,,,,,,,,,,,,,,,,,2019_Sep_09_1842,59.88432742727087,Cloud_Experiment_FR_REAL,001,46,
,,,,,,,,,,,,,,,,,,,,,,,,,2,6.824,,,,,,,,,,,,,,,,,,,,,,,,,2019_Sep_09_1842,59.88432742727087,Cloud_Experiment_FR_REAL,001,46,
,,,,,,,,,,,,,,,,,,,,,,,,,,,,,,,,,,6,,,,,,,,,,,,,,,,,2019_Sep_09_1842,59.88432742727087,Cloud_Experiment_FR_REAL,001,46,
,,,,,,,,,,,,,,,,,,,,,,,,,,,,,,,,,,,2,,,,,,,,,,,,,,,,2019_Sep_09_1842,59.88432742727087,Cloud_Experiment_FR_REAL,001,46,
,,,,,,,,,,,,,,,,,,,,,,,,,,,,,,,,,,,,1,,,,,,,,,,,,,,,2019_Sep_09_1842,59.88432742727087,Cloud_Experiment_FR_REAL,001,46,
,,,,,,,,,,,,,,,,,,,,,,,,,,,,,,,,,,,,,3,,,,,,,,,,,,,,2019_Sep_09_1842,59.88432742727087,Cloud_Experiment_FR_REAL,001,46,
,,,,,,,,,,,,,,,,,,,,,,,,,,,,,,,,,,,,,,2,,,,,,,,,,,,,2019_Sep_09_1842,59.88432742727087,Cloud_Experiment_FR_REAL,001,46,
,,,,,,,,,,,,,,,,,,,,,,,,,,,,,,,,,,,,,,,3,,,,,,,,,,,,2019_Sep_09_1842,59.88432742727087,Cloud_Experiment_FR_REAL,001,46,
,,,,,,,,,,,,,,,,,,,,,,,,,,,,,,,,,,,,,,,,5,,,,,,,,,,,2019_Sep_09_1842,59.88432742727087,Cloud_Experiment_FR_REAL,001,46,
,,,,,,,,,,,,,,,,,,,,,,,,,,,,,,,,,,,,,,,,,6,,,,,,,,,,2019_Sep_09_1842,59.88432742727087,Cloud_Experiment_FR_REAL,001,46,
,,,,,,,,,,,,,,,,,,,,,,,,,,,,,,,,,,,,,,,,,,4,,,,,,,,,2019_Sep_09_1842,59.88432742727087,Cloud_Experiment_FR_REAL,001,46,
,,,,,,,,,,,,,,,,,,,,,,,,,,,,,,,,,,,,,,,,,,,3,,,,,,,,2019_Sep_09_1842,59.88432742727087,Cloud_Experiment_FR_REAL,001,46,
,,,,,,,,,,,,,,,,,,,,,,,,,,,,,,,,,,,,,,,,,,,,,,,,,,4,2019_Sep_09_1842,59.88432742727087,Cloud_Experiment_FR_REAL,001,46,
