ImageFile,FD,Contrast,trials_4.thisRepN,trials_4.thisTrialN,trials_4.thisN,trials_4.thisIndex,trials.thisRepN,trials.thisTrialN,trials.thisN,trials.thisIndex,trials_2.thisRepN,trials_2.thisTrialN,trials_2.thisN,trials_2.thisIndex,trials_3.thisRepN,trials_3.thisTrialN,trials_3.thisN,trials_3.thisIndex,end_instructions.keys,end_instructions.rt,key_resp_4.keys,key_resp_4.rt,key_resp_6.keys,key_resp_6.rt,Fatigue.response,Fatigue.rt,key_resp_5.keys,key_resp_5.rt,n_objets.response,reaction_time.keys,reaction_time.rt,vividness.response,vividness.rt,Flow01.response,Flow02.response,Flow03.response,Flow04.response,Flow05.response,Flow06.response,Flow07.response,Flow08.response,Flow09.response,Flow10.response,key_resp_2.keys,key_resp_2.rt,key_resp_8.keys,key_resp_8.rt,key_resp_3.keys,key_resp_3.rt,Redondance_question.response,date,frameRate,expName,session,participant,
,,,,,,,,,,,,,,,,,,,space,495.6848323,,,,,,,,,,,,,,,,,,,,,,,,,,,,,,,2019_Sep_18_1902,60.97155737820093,Cloud_Experiment_FR_REAL,001,47,
,,,,,,,,,,,,,,,,,,,,,space,73.7063186,,,,,,,,,,,,,,,,,,,,,,,,,,,,,2019_Sep_18_1902,60.97155737820093,Cloud_Experiment_FR_REAL,001,47,
,,,,,,,,,,,,,,,,,,,,,,,space,57.70032,,,,,,,,,,,,,,,,,,,,,,,,,,,2019_Sep_18_1902,60.97155737820093,Cloud_Experiment_FR_REAL,001,47,
,,,,,,,,,,,,,,,,,,,,,,,,,5,15.768,,,,,,,,,,,,,,,,,,,,,,,,,2019_Sep_18_1902,60.97155737820093,Cloud_Experiment_FR_REAL,001,47,
,,,,,,,,,,,,,,,,,,,,,,,,,,,space,2.88226429999,,,,,,,,,,,,,,,,,,,,,,,2019_Sep_18_1902,60.97155737820093,Cloud_Experiment_FR_REAL,001,47,
pratique/fcloud80-20_D1.5_30,1.5,2,0,0,0,8,,,,,,,,,,,,,,,,,,,,,,,1,space,4.0462944,4,5.331,,,,,,,,,,,,,,,,,,2019_Sep_18_1902,60.97155737820093,Cloud_Experiment_FR_REAL,001,47,
pratique/fcloud_D1.6_28,1.6,0,0,1,1,5,,,,,,,,,,,,,,,,,,,,,,,3,space,2.79039140001,2,4.699,,,,,,,,,,,,,,,,,,2019_Sep_18_1902,60.97155737820093,Cloud_Experiment_FR_REAL,001,47,
pratique/fcloud65-35_D1.9_29,1.9,1,0,2,2,7,,,,,,,,,,,,,,,,,,,,,,,2,None,,4,8.847,,,,,,,,,,,,,,,,,,2019_Sep_18_1902,60.97155737820093,Cloud_Experiment_FR_REAL,001,47,
pratique/fcloud80-20_D1_30,1.0,2,0,3,3,9,,,,,,,,,,,,,,,,,,,,,,,2,None,,2,3.5,,,,,,,,,,,,,,,,,,2019_Sep_18_1902,60.97155737820093,Cloud_Experiment_FR_REAL,001,47,
pratique/fcloud_D0.8_30,0.8,0,0,4,4,0,,,,,,,,,,,,,,,,,,,,,,,2,space,4.13472620001,4,1.952,,,,,,,,,,,,,,,,,,2019_Sep_18_1902,60.97155737820093,Cloud_Experiment_FR_REAL,001,47,
pratique/fcloud65-35_D1.3_30,1.3,1,0,5,5,6,,,,,,,,,,,,,,,,,,,,,,,1,None,,4,2.401,,,,,,,,,,,,,,,,,,2019_Sep_18_1902,60.97155737820093,Cloud_Experiment_FR_REAL,001,47,
pratique/fcloud65-35_D1.2_30,1.2,1,0,6,6,3,,,,,,,,,,,,,,,,,,,,,,,1,space,5.6224547,1,1.085,,,,,,,,,,,,,,,,,,2019_Sep_18_1902,60.97155737820093,Cloud_Experiment_FR_REAL,001,47,
pratique/fcloud65-35_D1.6_30,1.6,1,0,7,7,2,,,,,,,,,,,,,,,,,,,,,,,2,None,,4,1.502,,,,,,,,,,,,,,,,,,2019_Sep_18_1902,60.97155737820093,Cloud_Experiment_FR_REAL,001,47,
pratique/fcloud_D1.4_30,1.4,0,0,8,8,1,,,,,,,,,,,,,,,,,,,,,,,3,None,,3,1.168,,,,,,,,,,,,,,,,,,2019_Sep_18_1902,60.97155737820093,Cloud_Experiment_FR_REAL,001,47,
pratique/fcloud80-20_D1.8_30,1.8,2,0,9,9,4,,,,,,,,,,,,,,,,,,,,,,,1,space,3.25279249999,2,0.969,,,,,,,,,,,,,,,,,,2019_Sep_18_1902,60.97155737820093,Cloud_Experiment_FR_REAL,001,47,
,,,,,,,,,,,,,,,,,,,,,,,,,,,,,,,,,,5,,,,,,,,,,,,,,,,,2019_Sep_18_1902,60.97155737820093,Cloud_Experiment_FR_REAL,001,47,
,,,,,,,,,,,,,,,,,,,,,,,,,,,,,,,,,,,3,,,,,,,,,,,,,,,,2019_Sep_18_1902,60.97155737820093,Cloud_Experiment_FR_REAL,001,47,
,,,,,,,,,,,,,,,,,,,,,,,,,,,,,,,,,,,,4,,,,,,,,,,,,,,,2019_Sep_18_1902,60.97155737820093,Cloud_Experiment_FR_REAL,001,47,
,,,,,,,,,,,,,,,,,,,,,,,,,,,,,,,,,,,,,6,,,,,,,,,,,,,,2019_Sep_18_1902,60.97155737820093,Cloud_Experiment_FR_REAL,001,47,
,,,,,,,,,,,,,,,,,,,,,,,,,,,,,,,,,,,,,,4,,,,,,,,,,,,,2019_Sep_18_1902,60.97155737820093,Cloud_Experiment_FR_REAL,001,47,
,,,,,,,,,,,,,,,,,,,,,,,,,,,,,,,,,,,,,,,5,,,,,,,,,,,,2019_Sep_18_1902,60.97155737820093,Cloud_Experiment_FR_REAL,001,47,
,,,,,,,,,,,,,,,,,,,,,,,,,,,,,,,,,,,,,,,,3,,,,,,,,,,,2019_Sep_18_1902,60.97155737820093,Cloud_Experiment_FR_REAL,001,47,
,,,,,,,,,,,,,,,,,,,,,,,,,,,,,,,,,,,,,,,,,3,,,,,,,,,,2019_Sep_18_1902,60.97155737820093,Cloud_Experiment_FR_REAL,001,47,
,,,,,,,,,,,,,,,,,,,,,,,,,,,,,,,,,,,,,,,,,,3,,,,,,,,,2019_Sep_18_1902,60.97155737820093,Cloud_Experiment_FR_REAL,001,47,
,,,,,,,,,,,,,,,,,,,,,,,,,,,,,,,,,,,,,,,,,,,3,,,,,,,,2019_Sep_18_1902,60.97155737820093,Cloud_Experiment_FR_REAL,001,47,
,,,,,,,,,,,,,,,,,,,,,,,,,,,,,,,,,,,,,,,,,,,,space,3.2648527,,,,,,2019_Sep_18_1902,60.97155737820093,Cloud_Experiment_FR_REAL,001,47,
images/fcloud80-20_D1.1_3.tif,1.1,2,,,,,0,0,0,83,,,,,,,,,,,,,,,,,,,2,space,11.1386087,2,1.103,,,,,,,,,,,,,,,,,,2019_Sep_18_1902,60.97155737820093,Cloud_Experiment_FR_REAL,001,47,
images/fcloud65-35_D1.4_1.tif,1.4,1,,,,,0,1,1,54,,,,,,,,,,,,,,,,,,,2,space,4.05213030001,4,1.519,,,,,,,,,,,,,,,,,,2019_Sep_18_1902,60.97155737820093,Cloud_Experiment_FR_REAL,001,47,
images/fcloud80-20_D0.8_2.tif,0.8,2,,,,,0,2,2,73,,,,,,,,,,,,,,,,,,,2,space,0.704561099992,4,2.551,,,,,,,,,,,,,,,,,,2019_Sep_18_1902,60.97155737820093,Cloud_Experiment_FR_REAL,001,47,
images/fcloud_D1.8_3.tif,1.8,0,,,,,0,3,3,32,,,,,,,,,,,,,,,,,,,1,space,2.3093968,5,2.168,,,,,,,,,,,,,,,,,,2019_Sep_18_1902,60.97155737820093,Cloud_Experiment_FR_REAL,001,47,
images/fcloud80-20_D1.5_2.tif,1.5,2,,,,,0,4,4,94,,,,,,,,,,,,,,,,,,,1,space,1.5006578,2,1.302,,,,,,,,,,,,,,,,,,2019_Sep_18_1902,60.97155737820093,Cloud_Experiment_FR_REAL,001,47,
images/fcloud65-35_D1.6_2.tif,1.6,1,,,,,0,5,5,61,,,,,,,,,,,,,,,,,,,2,space,4.63795100001,3,1.785,,,,,,,,,,,,,,,,,,2019_Sep_18_1902,60.97155737820093,Cloud_Experiment_FR_REAL,001,47,
images/fcloud80-20_D1.4_3.tif,1.4,2,,,,,0,6,6,92,,,,,,,,,,,,,,,,,,,2,space,3.79966020001,3,1.236,,,,,,,,,,,,,,,,,,2019_Sep_18_1902,60.97155737820093,Cloud_Experiment_FR_REAL,001,47,
images/fcloud80-20_D1.6_1.tif,1.6,2,,,,,0,7,7,96,,,,,,,,,,,,,,,,,,,1,space,3.6729332,1,1.618,,,,,,,,,,,,,,,,,,2019_Sep_18_1902,60.97155737820093,Cloud_Experiment_FR_REAL,001,47,
images/fcloud80-20_D1.8_2.tif,1.8,2,,,,,0,8,8,103,,,,,,,,,,,,,,,,,,,3,space,3.2335976,2,3.25,,,,,,,,,,,,,,,,,,2019_Sep_18_1902,60.97155737820093,Cloud_Experiment_FR_REAL,001,47,
images/fcloud80-20_D1.1_1.tif,1.1,2,,,,,0,9,9,81,,,,,,,,,,,,,,,,,,,None,None,,None,13.34,,,,,,,,,,,,,,,,,,2019_Sep_18_1902,60.97155737820093,Cloud_Experiment_FR_REAL,001,47,
images/fcloud65-35_D1.3_2.tif,1.3,1,,,,,0,10,10,52,,,,,,,,,,,,,,,,,,,2,space,3.42568779999,4,1.036,,,,,,,,,,,,,,,,,,2019_Sep_18_1902,60.97155737820093,Cloud_Experiment_FR_REAL,001,47,
images/fcloud80-20_D1.8_3.tif,1.8,2,,,,,0,11,11,104,,,,,,,,,,,,,,,,,,,1,space,4.9419713,4,1.27,,,,,,,,,,,,,,,,,,2019_Sep_18_1902,60.97155737820093,Cloud_Experiment_FR_REAL,001,47,
images/fcloud_D1.5_1.tif,1.5,0,,,,,0,12,12,21,,,,,,,,,,,,,,,,,,,2,space,4.78097569999,3,1.037,,,,,,,,,,,,,,,,,,2019_Sep_18_1902,60.97155737820093,Cloud_Experiment_FR_REAL,001,47,
images/fcloud65-35_D0.8_3.tif,0.8,1,,,,,0,13,13,38,,,,,,,,,,,,,,,,,,,2,space,4.56406219999,4,4.066,,,,,,,,,,,,,,,,,,2019_Sep_18_1902,60.97155737820093,Cloud_Experiment_FR_REAL,001,47,
images/fcloud65-35_D1.4_3.tif,1.4,1,,,,,0,14,14,56,,,,,,,,,,,,,,,,,,,2,space,3.5564302,3,0.985,,,,,,,,,,,,,,,,,,2019_Sep_18_1902,60.97155737820093,Cloud_Experiment_FR_REAL,001,47,
images/fcloud_D0.9_3.tif,0.9,0,,,,,0,15,15,5,,,,,,,,,,,,,,,,,,,2,space,3.90906569999,3,1.202,,,,,,,,,,,,,,,,,,2019_Sep_18_1902,60.97155737820093,Cloud_Experiment_FR_REAL,001,47,
images/fcloud65-35_D1_1.tif,1.0,1,,,,,0,16,16,42,,,,,,,,,,,,,,,,,,,1,space,7.31627359999,2,1.519,,,,,,,,,,,,,,,,,,2019_Sep_18_1902,60.97155737820093,Cloud_Experiment_FR_REAL,001,47,
images/fcloud_D1.4_2.tif,1.4,0,,,,,0,17,17,19,,,,,,,,,,,,,,,,,,,1,space,6.7052622,4,5.482,,,,,,,,,,,,,,,,,,2019_Sep_18_1902,60.97155737820093,Cloud_Experiment_FR_REAL,001,47,
images/fcloud_D0.8_3.tif,0.8,0,,,,,0,18,18,2,,,,,,,,,,,,,,,,,,,2,space,5.11215270001,2,1.235,,,,,,,,,,,,,,,,,,2019_Sep_18_1902,60.97155737820093,Cloud_Experiment_FR_REAL,001,47,
images/fcloud80-20_D1.2_1.tif,1.2,2,,,,,0,19,19,84,,,,,,,,,,,,,,,,,,,4,space,1.6046101,3,4.4,,,,,,,,,,,,,,,,,,2019_Sep_18_1902,60.97155737820093,Cloud_Experiment_FR_REAL,001,47,
images/fcloud65-35_D1.4_2.tif,1.4,1,,,,,0,20,20,55,,,,,,,,,,,,,,,,,,,2,space,7.1331961,3,1.886,,,,,,,,,,,,,,,,,,2019_Sep_18_1902,60.97155737820093,Cloud_Experiment_FR_REAL,001,47,
images/fcloud_D1.5_2.tif,1.5,0,,,,,0,21,21,22,,,,,,,,,,,,,,,,,,,3,space,3.4125544,4,1.302,,,,,,,,,,,,,,,,,,2019_Sep_18_1902,60.97155737820093,Cloud_Experiment_FR_REAL,001,47,
images/fcloud65-35_D1.7_1.tif,1.7,1,,,,,0,22,22,63,,,,,,,,,,,,,,,,,,,5,space,2.45993889999,4,1.453,,,,,,,,,,,,,,,,,,2019_Sep_18_1902,60.97155737820093,Cloud_Experiment_FR_REAL,001,47,
images/fcloud_D1.4_3.tif,1.4,0,,,,,0,23,23,20,,,,,,,,,,,,,,,,,,,4,space,5.53259610001,3,4.449,,,,,,,,,,,,,,,,,,2019_Sep_18_1902,60.97155737820093,Cloud_Experiment_FR_REAL,001,47,
images/fcloud_D1.7_3.tif,1.7,0,,,,,0,24,24,29,,,,,,,,,,,,,,,,,,,2,space,6.8778116,2,1.335,,,,,,,,,,,,,,,,,,2019_Sep_18_1902,60.97155737820093,Cloud_Experiment_FR_REAL,001,47,
images/fcloud65-35_D0.9_1.tif,0.9,1,,,,,0,25,25,39,,,,,,,,,,,,,,,,,,,3,space,2.56578290001,4,1.603,,,,,,,,,,,,,,,,,,2019_Sep_18_1902,60.97155737820093,Cloud_Experiment_FR_REAL,001,47,
images/fcloud80-20_D1.7_2.tif,1.7,2,,,,,0,26,26,100,,,,,,,,,,,,,,,,,,,2,space,4.72382489999,3,0.837,,,,,,,,,,,,,,,,,,2019_Sep_18_1902,60.97155737820093,Cloud_Experiment_FR_REAL,001,47,
images/fcloud80-20_D0.8_3.tif,0.8,2,,,,,0,27,27,74,,,,,,,,,,,,,,,,,,,1,space,2.771649,4,1.135,,,,,,,,,,,,,,,,,,2019_Sep_18_1902,60.97155737820093,Cloud_Experiment_FR_REAL,001,47,
images/fcloud80-20_D1.8_1.tif,1.8,2,,,,,0,28,28,102,,,,,,,,,,,,,,,,,,,2,space,3.1044995,3,1.12,,,,,,,,,,,,,,,,,,2019_Sep_18_1902,60.97155737820093,Cloud_Experiment_FR_REAL,001,47,
images/fcloud65-35_D1.5_1.tif,1.5,1,,,,,0,29,29,57,,,,,,,,,,,,,,,,,,,2,space,3.2409278,3,1.469,,,,,,,,,,,,,,,,,,2019_Sep_18_1902,60.97155737820093,Cloud_Experiment_FR_REAL,001,47,
images/fcloud65-35_D1.5_2.tif,1.5,1,,,,,0,30,30,58,,,,,,,,,,,,,,,,,,,2,space,4.6655992,2,1.902,,,,,,,,,,,,,,,,,,2019_Sep_18_1902,60.97155737820093,Cloud_Experiment_FR_REAL,001,47,
images/fcloud80-20_D1_2.tif,1.0,2,,,,,0,31,31,79,,,,,,,,,,,,,,,,,,,1,space,6.08059560001,1,1.118,,,,,,,,,,,,,,,,,,2019_Sep_18_1902,60.97155737820093,Cloud_Experiment_FR_REAL,001,47,
images/fcloud65-35_D1.8_1.tif,1.8,1,,,,,0,32,32,66,,,,,,,,,,,,,,,,,,,3,space,3.54575999999,3,1.034,,,,,,,,,,,,,,,,,,2019_Sep_18_1902,60.97155737820093,Cloud_Experiment_FR_REAL,001,47,
images/fcloud_D1.1_1.tif,1.1,0,,,,,0,33,33,9,,,,,,,,,,,,,,,,,,,1,space,2.88556379999,2,1.071,,,,,,,,,,,,,,,,,,2019_Sep_18_1902,60.97155737820093,Cloud_Experiment_FR_REAL,001,47,
images/fcloud65-35_D1_2.tif,1.0,1,,,,,0,34,34,43,,,,,,,,,,,,,,,,,,,1,space,7.2169233,2,0.887,,,,,,,,,,,,,,,,,,2019_Sep_18_1902,60.97155737820093,Cloud_Experiment_FR_REAL,001,47,
images/fcloud80-20_D1.2_2.tif,1.2,2,,,,,0,35,35,85,,,,,,,,,,,,,,,,,,,1,space,3.5768681,3,1.402,,,,,,,,,,,,,,,,,,2019_Sep_18_1902,60.97155737820093,Cloud_Experiment_FR_REAL,001,47,
images/fcloud65-35_D0.8_2.tif,0.8,1,,,,,0,36,36,37,,,,,,,,,,,,,,,,,,,4,space,4.3249262,2,2.569,,,,,,,,,,,,,,,,,,2019_Sep_18_1902,60.97155737820093,Cloud_Experiment_FR_REAL,001,47,
images/fcloud_D1.6_3.tif,1.6,0,,,,,0,37,37,26,,,,,,,,,,,,,,,,,,,2,space,5.95673789999,4,1.719,,,,,,,,,,,,,,,,,,2019_Sep_18_1902,60.97155737820093,Cloud_Experiment_FR_REAL,001,47,
images/fcloud65-35_D1.7_3.tif,1.7,1,,,,,0,38,38,65,,,,,,,,,,,,,,,,,,,1,space,6.95834100001,2,1.069,,,,,,,,,,,,,,,,,,2019_Sep_18_1902,60.97155737820093,Cloud_Experiment_FR_REAL,001,47,
images/fcloud65-35_D1.7_2.tif,1.7,1,,,,,0,39,39,64,,,,,,,,,,,,,,,,,,,2,space,6.68974090001,5,2.584,,,,,,,,,,,,,,,,,,2019_Sep_18_1902,60.97155737820093,Cloud_Experiment_FR_REAL,001,47,
images/fcloud_D0.8_1.tif,0.8,0,,,,,0,40,40,0,,,,,,,,,,,,,,,,,,,2,space,3.0394484,5,1.918,,,,,,,,,,,,,,,,,,2019_Sep_18_1902,60.97155737820093,Cloud_Experiment_FR_REAL,001,47,
images/fcloud65-35_D1.1_3.tif,1.1,1,,,,,0,41,41,47,,,,,,,,,,,,,,,,,,,3,space,3.4832914,4,0.919,,,,,,,,,,,,,,,,,,2019_Sep_18_1902,60.97155737820093,Cloud_Experiment_FR_REAL,001,47,
images/fcloud80-20_D1.1_2.tif,1.1,2,,,,,0,42,42,82,,,,,,,,,,,,,,,,,,,2,space,3.8442909,3,0.853,,,,,,,,,,,,,,,,,,2019_Sep_18_1902,60.97155737820093,Cloud_Experiment_FR_REAL,001,47,
images/fcloud_D1_1.tif,1.0,0,,,,,0,43,43,6,,,,,,,,,,,,,,,,,,,2,space,1.78014240001,4,0.852,,,,,,,,,,,,,,,,,,2019_Sep_18_1902,60.97155737820093,Cloud_Experiment_FR_REAL,001,47,
images/fcloud65-35_D0.8_1.tif,0.8,1,,,,,0,44,44,36,,,,,,,,,,,,,,,,,,,2,space,4.3240298,2,0.703,,,,,,,,,,,,,,,,,,2019_Sep_18_1902,60.97155737820093,Cloud_Experiment_FR_REAL,001,47,
images/fcloud_D1.9_2.tif,1.9,0,,,,,0,45,45,34,,,,,,,,,,,,,,,,,,,2,space,3.7231078,3,0.966,,,,,,,,,,,,,,,,,,2019_Sep_18_1902,60.97155737820093,Cloud_Experiment_FR_REAL,001,47,
images/fcloud65-35_D0.9_2.tif,0.9,1,,,,,0,46,46,40,,,,,,,,,,,,,,,,,,,1,space,6.08170520001,2,1.035,,,,,,,,,,,,,,,,,,2019_Sep_18_1902,60.97155737820093,Cloud_Experiment_FR_REAL,001,47,
images/fcloud65-35_D1_3.tif,1.0,1,,,,,0,47,47,44,,,,,,,,,,,,,,,,,,,None,None,,None,10.409,,,,,,,,,,,,,,,,,,2019_Sep_18_1902,60.97155737820093,Cloud_Experiment_FR_REAL,001,47,
images/fcloud80-20_D1_3.tif,1.0,2,,,,,0,48,48,80,,,,,,,,,,,,,,,,,,,1,space,4.37796519999,3,0.966,,,,,,,,,,,,,,,,,,2019_Sep_18_1902,60.97155737820093,Cloud_Experiment_FR_REAL,001,47,
images/fcloud_D1.2_2.tif,1.2,0,,,,,0,49,49,13,,,,,,,,,,,,,,,,,,,2,space,4.1730921,3,1.453,,,,,,,,,,,,,,,,,,2019_Sep_18_1902,60.97155737820093,Cloud_Experiment_FR_REAL,001,47,
images/fcloud80-20_D1_1.tif,1.0,2,,,,,0,50,50,78,,,,,,,,,,,,,,,,,,,2,space,4.3982197,2,0.853,,,,,,,,,,,,,,,,,,2019_Sep_18_1902,60.97155737820093,Cloud_Experiment_FR_REAL,001,47,
images/fcloud65-35_D1.3_1.tif,1.3,1,,,,,0,51,51,51,,,,,,,,,,,,,,,,,,,2,space,4.0244214,2,0.987,,,,,,,,,,,,,,,,,,2019_Sep_18_1902,60.97155737820093,Cloud_Experiment_FR_REAL,001,47,
images/fcloud65-35_D1.3_3.tif,1.3,1,,,,,0,52,52,53,,,,,,,,,,,,,,,,,,,1,space,3.2549269,2,1.651,,,,,,,,,,,,,,,,,,2019_Sep_18_1902,60.97155737820093,Cloud_Experiment_FR_REAL,001,47,
images/fcloud80-20_D1.7_3.tif,1.7,2,,,,,0,53,53,101,,,,,,,,,,,,,,,,,,,2,space,6.5794916,3,0.619,,,,,,,,,,,,,,,,,,2019_Sep_18_1902,60.97155737820093,Cloud_Experiment_FR_REAL,001,47,
images/fcloud65-35_D1.8_3.tif,1.8,1,,,,,0,54,54,68,,,,,,,,,,,,,,,,,,,2,space,2.81665550001,4,0.902,,,,,,,,,,,,,,,,,,2019_Sep_18_1902,60.97155737820093,Cloud_Experiment_FR_REAL,001,47,
images/fcloud80-20_D1.5_1.tif,1.5,2,,,,,0,55,55,93,,,,,,,,,,,,,,,,,,,None,None,,None,10.112,,,,,,,,,,,,,,,,,,2019_Sep_18_1902,60.97155737820093,Cloud_Experiment_FR_REAL,001,47,
images/fcloud_D1_3.tif,1.0,0,,,,,0,56,56,8,,,,,,,,,,,,,,,,,,,2,space,1.4117421,5,0.737,,,,,,,,,,,,,,,,,,2019_Sep_18_1902,60.97155737820093,Cloud_Experiment_FR_REAL,001,47,
images/fcloud80-20_D1.2_3.tif,1.2,2,,,,,0,57,57,86,,,,,,,,,,,,,,,,,,,3,space,3.4779193,4,0.919,,,,,,,,,,,,,,,,,,2019_Sep_18_1902,60.97155737820093,Cloud_Experiment_FR_REAL,001,47,
images/fcloud80-20_D1.6_2.tif,1.6,2,,,,,0,58,58,97,,,,,,,,,,,,,,,,,,,2,space,3.9287621,3,0.752,,,,,,,,,,,,,,,,,,2019_Sep_18_1902,60.97155737820093,Cloud_Experiment_FR_REAL,001,47,
images/fcloud_D0.9_1.tif,0.9,0,,,,,0,59,59,3,,,,,,,,,,,,,,,,,,,2,space,2.0467646,4,1.069,,,,,,,,,,,,,,,,,,2019_Sep_18_1902,60.97155737820093,Cloud_Experiment_FR_REAL,001,47,
images/fcloud_D1.1_2.tif,1.1,0,,,,,0,60,60,10,,,,,,,,,,,,,,,,,,,2,space,6.02977210001,4,1.104,,,,,,,,,,,,,,,,,,2019_Sep_18_1902,60.97155737820093,Cloud_Experiment_FR_REAL,001,47,
images/fcloud80-20_D1.3_2.tif,1.3,2,,,,,0,61,61,88,,,,,,,,,,,,,,,,,,,1,space,5.79988100001,2,0.802,,,,,,,,,,,,,,,,,,2019_Sep_18_1902,60.97155737820093,Cloud_Experiment_FR_REAL,001,47,
images/fcloud_D1.7_1.tif,1.7,0,,,,,0,62,62,27,,,,,,,,,,,,,,,,,,,1,space,7.4391716,1,2.8,,,,,,,,,,,,,,,,,,2019_Sep_18_1902,60.97155737820093,Cloud_Experiment_FR_REAL,001,47,
images/fcloud80-20_D1.4_2.tif,1.4,2,,,,,0,63,63,91,,,,,,,,,,,,,,,,,,,None,None,,None,12.039,,,,,,,,,,,,,,,,,,2019_Sep_18_1902,60.97155737820093,Cloud_Experiment_FR_REAL,001,47,
images/fcloud_D1.9_1.tif,1.9,0,,,,,0,64,64,33,,,,,,,,,,,,,,,,,,,1,space,5.6487183,1,0.536,,,,,,,,,,,,,,,,,,2019_Sep_18_1902,60.97155737820093,Cloud_Experiment_FR_REAL,001,47,
images/fcloud65-35_D1.9_2.tif,1.9,1,,,,,0,65,65,70,,,,,,,,,,,,,,,,,,,1,space,6.10879049999,3,0.97,,,,,,,,,,,,,,,,,,2019_Sep_18_1902,60.97155737820093,Cloud_Experiment_FR_REAL,001,47,
images/fcloud65-35_D1.2_1.tif,1.2,1,,,,,0,66,66,48,,,,,,,,,,,,,,,,,,,2,space,3.29879090001,4,2.25,,,,,,,,,,,,,,,,,,2019_Sep_18_1902,60.97155737820093,Cloud_Experiment_FR_REAL,001,47,
images/fcloud65-35_D1.5_3.tif,1.5,1,,,,,0,67,67,59,,,,,,,,,,,,,,,,,,,1,space,1.41694790001,4,0.786,,,,,,,,,,,,,,,,,,2019_Sep_18_1902,60.97155737820093,Cloud_Experiment_FR_REAL,001,47,
images/fcloud65-35_D1.8_2.tif,1.8,1,,,,,0,68,68,67,,,,,,,,,,,,,,,,,,,1,space,7.2192292,3,0.636,,,,,,,,,,,,,,,,,,2019_Sep_18_1902,60.97155737820093,Cloud_Experiment_FR_REAL,001,47,
images/fcloud80-20_D0.9_3.tif,0.9,2,,,,,0,69,69,77,,,,,,,,,,,,,,,,,,,2,space,3.4308188,2,0.752,,,,,,,,,,,,,,,,,,2019_Sep_18_1902,60.97155737820093,Cloud_Experiment_FR_REAL,001,47,
images/fcloud65-35_D1.2_2.tif,1.2,1,,,,,0,70,70,49,,,,,,,,,,,,,,,,,,,2,space,3.0534853,2,0.703,,,,,,,,,,,,,,,,,,2019_Sep_18_1902,60.97155737820093,Cloud_Experiment_FR_REAL,001,47,
images/fcloud_D0.9_2.tif,0.9,0,,,,,0,71,71,4,,,,,,,,,,,,,,,,,,,2,space,1.74726980001,3,0.752,,,,,,,,,,,,,,,,,,2019_Sep_18_1902,60.97155737820093,Cloud_Experiment_FR_REAL,001,47,
images/fcloud_D1.3_2.tif,1.3,0,,,,,0,72,72,16,,,,,,,,,,,,,,,,,,,1,space,4.8457389,3,1.22,,,,,,,,,,,,,,,,,,2019_Sep_18_1902,60.97155737820093,Cloud_Experiment_FR_REAL,001,47,
images/fcloud_D1.3_1.tif,1.3,0,,,,,0,73,73,15,,,,,,,,,,,,,,,,,,,1,space,7.2869258,1,0.452,,,,,,,,,,,,,,,,,,2019_Sep_18_1902,60.97155737820093,Cloud_Experiment_FR_REAL,001,47,
images/fcloud65-35_D1.1_2.tif,1.1,1,,,,,0,74,74,46,,,,,,,,,,,,,,,,,,,1,space,6.607735,2,1.255,,,,,,,,,,,,,,,,,,2019_Sep_18_1902,60.97155737820093,Cloud_Experiment_FR_REAL,001,47,
images/fcloud_D1_2.tif,1.0,0,,,,,0,75,75,7,,,,,,,,,,,,,,,,,,,1,space,5.53240729999,1,0.421,,,,,,,,,,,,,,,,,,2019_Sep_18_1902,60.97155737820093,Cloud_Experiment_FR_REAL,001,47,
images/fcloud_D1.4_1.tif,1.4,0,,,,,0,76,76,18,,,,,,,,,,,,,,,,,,,1,space,6.59462650001,3,1.968,,,,,,,,,,,,,,,,,,2019_Sep_18_1902,60.97155737820093,Cloud_Experiment_FR_REAL,001,47,
images/fcloud80-20_D1.7_1.tif,1.7,2,,,,,0,77,77,99,,,,,,,,,,,,,,,,,,,None,None,,None,11.325,,,,,,,,,,,,,,,,,,2019_Sep_18_1902,60.97155737820093,Cloud_Experiment_FR_REAL,001,47,
images/fcloud65-35_D0.9_3.tif,0.9,1,,,,,0,78,78,41,,,,,,,,,,,,,,,,,,,2,space,4.4568918,4,1.185,,,,,,,,,,,,,,,,,,2019_Sep_18_1902,60.97155737820093,Cloud_Experiment_FR_REAL,001,47,
images/fcloud_D1.8_2.tif,1.8,0,,,,,0,79,79,31,,,,,,,,,,,,,,,,,,,2,space,5.18460369999,4,0.953,,,,,,,,,,,,,,,,,,2019_Sep_18_1902,60.97155737820093,Cloud_Experiment_FR_REAL,001,47,
images/fcloud_D1.2_1.tif,1.2,0,,,,,0,80,80,12,,,,,,,,,,,,,,,,,,,1,space,6.5850761,4,0.887,,,,,,,,,,,,,,,,,,2019_Sep_18_1902,60.97155737820093,Cloud_Experiment_FR_REAL,001,47,
images/fcloud65-35_D1.6_3.tif,1.6,1,,,,,0,81,81,62,,,,,,,,,,,,,,,,,,,1,space,6.96087320001,1,0.504,,,,,,,,,,,,,,,,,,2019_Sep_18_1902,60.97155737820093,Cloud_Experiment_FR_REAL,001,47,
images/fcloud80-20_D1.3_1.tif,1.3,2,,,,,0,82,82,87,,,,,,,,,,,,,,,,,,,3,space,2.7861499,2,0.601,,,,,,,,,,,,,,,,,,2019_Sep_18_1902,60.97155737820093,Cloud_Experiment_FR_REAL,001,47,
images/fcloud_D1.2_3.tif,1.2,0,,,,,0,83,83,14,,,,,,,,,,,,,,,,,,,2,space,6.9683144,3,0.769,,,,,,,,,,,,,,,,,,2019_Sep_18_1902,60.97155737820093,Cloud_Experiment_FR_REAL,001,47,
images/fcloud_D1.3_3.tif,1.3,0,,,,,0,84,84,17,,,,,,,,,,,,,,,,,,,2,space,4.95013729999,3,0.934,,,,,,,,,,,,,,,,,,2019_Sep_18_1902,60.97155737820093,Cloud_Experiment_FR_REAL,001,47,
images/fcloud_D0.8_2.tif,0.8,0,,,,,0,85,85,1,,,,,,,,,,,,,,,,,,,1,space,3.9590108,3,1.868,,,,,,,,,,,,,,,,,,2019_Sep_18_1902,60.97155737820093,Cloud_Experiment_FR_REAL,001,47,
images/fcloud80-20_D0.9_1.tif,0.9,2,,,,,0,86,86,75,,,,,,,,,,,,,,,,,,,1,space,4.4702346,3,2.118,,,,,,,,,,,,,,,,,,2019_Sep_18_1902,60.97155737820093,Cloud_Experiment_FR_REAL,001,47,
images/fcloud_D1.6_2.tif,1.6,0,,,,,0,87,87,25,,,,,,,,,,,,,,,,,,,3,space,3.3951204,2,0.717,,,,,,,,,,,,,,,,,,2019_Sep_18_1902,60.97155737820093,Cloud_Experiment_FR_REAL,001,47,
images/fcloud65-35_D1.9_1.tif,1.9,1,,,,,0,88,88,69,,,,,,,,,,,,,,,,,,,1,space,7.091793,3,2.201,,,,,,,,,,,,,,,,,,2019_Sep_18_1902,60.97155737820093,Cloud_Experiment_FR_REAL,001,47,
images/fcloud80-20_D1.9_3.tif,1.9,2,,,,,0,89,89,107,,,,,,,,,,,,,,,,,,,4,space,2.47194800001,2,2.634,,,,,,,,,,,,,,,,,,2019_Sep_18_1902,60.97155737820093,Cloud_Experiment_FR_REAL,001,47,
images/fcloud80-20_D0.8_1.tif,0.8,2,,,,,0,90,90,72,,,,,,,,,,,,,,,,,,,1,space,2.6141659,5,1.251,,,,,,,,,,,,,,,,,,2019_Sep_18_1902,60.97155737820093,Cloud_Experiment_FR_REAL,001,47,
images/fcloud65-35_D1.1_1.tif,1.1,1,,,,,0,91,91,45,,,,,,,,,,,,,,,,,,,1,space,6.77353800001,4,1.535,,,,,,,,,,,,,,,,,,2019_Sep_18_1902,60.97155737820093,Cloud_Experiment_FR_REAL,001,47,
images/fcloud_D1.9_3.tif,1.9,0,,,,,0,92,92,35,,,,,,,,,,,,,,,,,,,3,space,3.0558195,3,1.049,,,,,,,,,,,,,,,,,,2019_Sep_18_1902,60.97155737820093,Cloud_Experiment_FR_REAL,001,47,
images/fcloud_D1.5_3.tif,1.5,0,,,,,0,93,93,23,,,,,,,,,,,,,,,,,,,4,space,3.53644309999,4,1.086,,,,,,,,,,,,,,,,,,2019_Sep_18_1902,60.97155737820093,Cloud_Experiment_FR_REAL,001,47,
images/fcloud80-20_D1.3_3.tif,1.3,2,,,,,0,94,94,89,,,,,,,,,,,,,,,,,,,2,space,2.5267609,3,1.319,,,,,,,,,,,,,,,,,,2019_Sep_18_1902,60.97155737820093,Cloud_Experiment_FR_REAL,001,47,
images/fcloud80-20_D0.9_2.tif,0.9,2,,,,,0,95,95,76,,,,,,,,,,,,,,,,,,,2,space,4.0937175,3,1.785,,,,,,,,,,,,,,,,,,2019_Sep_18_1902,60.97155737820093,Cloud_Experiment_FR_REAL,001,47,
images/fcloud_D1.8_1.tif,1.8,0,,,,,0,96,96,30,,,,,,,,,,,,,,,,,,,2,space,5.05489160001,2,1.168,,,,,,,,,,,,,,,,,,2019_Sep_18_1902,60.97155737820093,Cloud_Experiment_FR_REAL,001,47,
images/fcloud80-20_D1.5_3.tif,1.5,2,,,,,0,97,97,95,,,,,,,,,,,,,,,,,,,2,space,5.50813,1,2.884,,,,,,,,,,,,,,,,,,2019_Sep_18_1902,60.97155737820093,Cloud_Experiment_FR_REAL,001,47,
images/fcloud80-20_D1.9_2.tif,1.9,2,,,,,0,98,98,106,,,,,,,,,,,,,,,,,,,1,space,5.45457,3,1.035,,,,,,,,,,,,,,,,,,2019_Sep_18_1902,60.97155737820093,Cloud_Experiment_FR_REAL,001,47,
images/fcloud65-35_D1.2_3.tif,1.2,1,,,,,0,99,99,50,,,,,,,,,,,,,,,,,,,2,space,2.15901849999,5,1.818,,,,,,,,,,,,,,,,,,2019_Sep_18_1902,60.97155737820093,Cloud_Experiment_FR_REAL,001,47,
images/fcloud_D1.7_2.tif,1.7,0,,,,,0,100,100,28,,,,,,,,,,,,,,,,,,,3,space,1.326902,3,1.703,,,,,,,,,,,,,,,,,,2019_Sep_18_1902,60.97155737820093,Cloud_Experiment_FR_REAL,001,47,
images/fcloud_D1.1_3.tif,1.1,0,,,,,0,101,101,11,,,,,,,,,,,,,,,,,,,1,space,5.58443799999,3,1.619,,,,,,,,,,,,,,,,,,2019_Sep_18_1902,60.97155737820093,Cloud_Experiment_FR_REAL,001,47,
images/fcloud80-20_D1.6_3.tif,1.6,2,,,,,0,102,102,98,,,,,,,,,,,,,,,,,,,2,space,2.4043218,4,0.852,,,,,,,,,,,,,,,,,,2019_Sep_18_1902,60.97155737820093,Cloud_Experiment_FR_REAL,001,47,
images/fcloud65-35_D1.6_1.tif,1.6,1,,,,,0,103,103,60,,,,,,,,,,,,,,,,,,,3,space,3.53540719999,3,2.037,,,,,,,,,,,,,,,,,,2019_Sep_18_1902,60.97155737820093,Cloud_Experiment_FR_REAL,001,47,
images/fcloud65-35_D1.9_3.tif,1.9,1,,,,,0,104,104,71,,,,,,,,,,,,,,,,,,,1,space,5.4980549,2,1.002,,,,,,,,,,,,,,,,,,2019_Sep_18_1902,60.97155737820093,Cloud_Experiment_FR_REAL,001,47,
images/fcloud80-20_D1.4_1.tif,1.4,2,,,,,0,105,105,90,,,,,,,,,,,,,,,,,,,1,space,6.76920710001,1,0.619,,,,,,,,,,,,,,,,,,2019_Sep_18_1902,60.97155737820093,Cloud_Experiment_FR_REAL,001,47,
images/fcloud80-20_D1.9_1.tif,1.9,2,,,,,0,106,106,105,,,,,,,,,,,,,,,,,,,1,space,5.18287449999,2,1.235,,,,,,,,,,,,,,,,,,2019_Sep_18_1902,60.97155737820093,Cloud_Experiment_FR_REAL,001,47,
images/fcloud_D1.6_1.tif,1.6,0,,,,,0,107,107,24,,,,,,,,,,,,,,,,,,,2,space,2.4136173,3,0.92,,,,,,,,,,,,,,,,,,2019_Sep_18_1902,60.97155737820093,Cloud_Experiment_FR_REAL,001,47,
,,,,,,,,,,,,,,,,,,,,,,,,,,,,,,,,,,,,,,,,,,,,,,space,2.1677109,,,,2019_Sep_18_1902,60.97155737820093,Cloud_Experiment_FR_REAL,001,47,
,,,,,,,,,,,,,,,,,,,,,,,,,4,14.23,,,,,,,,,,,,,,,,,,,,,,,,,2019_Sep_18_1902,60.97155737820093,Cloud_Experiment_FR_REAL,001,47,
,,,,,,,,,,,,,,,,,,,,,,,,,,,,,,,,,,5,,,,,,,,,,,,,,,,,2019_Sep_18_1902,60.97155737820093,Cloud_Experiment_FR_REAL,001,47,
,,,,,,,,,,,,,,,,,,,,,,,,,,,,,,,,,,,5,,,,,,,,,,,,,,,,2019_Sep_18_1902,60.97155737820093,Cloud_Experiment_FR_REAL,001,47,
,,,,,,,,,,,,,,,,,,,,,,,,,,,,,,,,,,,,5,,,,,,,,,,,,,,,2019_Sep_18_1902,60.97155737820093,Cloud_Experiment_FR_REAL,001,47,
,,,,,,,,,,,,,,,,,,,,,,,,,,,,,,,,,,,,,5,,,,,,,,,,,,,,2019_Sep_18_1902,60.97155737820093,Cloud_Experiment_FR_REAL,001,47,
,,,,,,,,,,,,,,,,,,,,,,,,,,,,,,,,,,,,,,4,,,,,,,,,,,,,2019_Sep_18_1902,60.97155737820093,Cloud_Experiment_FR_REAL,001,47,
,,,,,,,,,,,,,,,,,,,,,,,,,,,,,,,,,,,,,,,4,,,,,,,,,,,,2019_Sep_18_1902,60.97155737820093,Cloud_Experiment_FR_REAL,001,47,
,,,,,,,,,,,,,,,,,,,,,,,,,,,,,,,,,,,,,,,,5,,,,,,,,,,,2019_Sep_18_1902,60.97155737820093,Cloud_Experiment_FR_REAL,001,47,
,,,,,,,,,,,,,,,,,,,,,,,,,,,,,,,,,,,,,,,,,7,,,,,,,,,,2019_Sep_18_1902,60.97155737820093,Cloud_Experiment_FR_REAL,001,47,
,,,,,,,,,,,,,,,,,,,,,,,,,,,,,,,,,,,,,,,,,,6,,,,,,,,,2019_Sep_18_1902,60.97155737820093,Cloud_Experiment_FR_REAL,001,47,
,,,,,,,,,,,,,,,,,,,,,,,,,,,,,,,,,,,,,,,,,,,1,,,,,,,,2019_Sep_18_1902,60.97155737820093,Cloud_Experiment_FR_REAL,001,47,
,,,,,,,,,,,,,,,,,,,,,,,,,,,,,,,,,,,,,,,,,,,,,,,,space,1.6829324,,2019_Sep_18_1902,60.97155737820093,Cloud_Experiment_FR_REAL,001,47,
images/fcloud80-20_D1.6_4.tif,1.6,2,,,,,,,,,0,0,0,96,,,,,,,,,,,,,,,2,space,2.90048919999,4,0.952,,,,,,,,,,,,,,,,,,2019_Sep_18_1902,60.97155737820093,Cloud_Experiment_FR_REAL,001,47,
images/fcloud_D0.9_6.tif,0.9,0,,,,,,,,,0,1,1,5,,,,,,,,,,,,,,,3,space,3.4531271,3,0.904,,,,,,,,,,,,,,,,,,2019_Sep_18_1902,60.97155737820093,Cloud_Experiment_FR_REAL,001,47,
images/fcloud65-35_D1.8_5.tif,1.8,1,,,,,,,,,0,2,2,67,,,,,,,,,,,,,,,2,space,3.26727740001,3,1.352,,,,,,,,,,,,,,,,,,2019_Sep_18_1902,60.97155737820093,Cloud_Experiment_FR_REAL,001,47,
images/fcloud65-35_D0.9_5.tif,0.9,1,,,,,,,,,0,3,3,40,,,,,,,,,,,,,,,1,space,5.1179189,3,3.135,,,,,,,,,,,,,,,,,,2019_Sep_18_1902,60.97155737820093,Cloud_Experiment_FR_REAL,001,47,
images/fcloud_D0.9_5.tif,0.9,0,,,,,,,,,0,4,4,4,,,,,,,,,,,,,,,1,space,1.9970469,4,0.887,,,,,,,,,,,,,,,,,,2019_Sep_18_1902,60.97155737820093,Cloud_Experiment_FR_REAL,001,47,
images/fcloud80-20_D1.2_6.tif,1.2,2,,,,,,,,,0,5,5,86,,,,,,,,,,,,,,,2,space,1.8459268,2,1.185,,,,,,,,,,,,,,,,,,2019_Sep_18_1902,60.97155737820093,Cloud_Experiment_FR_REAL,001,47,
images/fcloud65-35_D1.3_5.tif,1.3,1,,,,,,,,,0,6,6,52,,,,,,,,,,,,,,,2,space,3.32282219999,4,0.621,,,,,,,,,,,,,,,,,,2019_Sep_18_1902,60.97155737820093,Cloud_Experiment_FR_REAL,001,47,
images/fcloud_D0.9_4.tif,0.9,0,,,,,,,,,0,7,7,3,,,,,,,,,,,,,,,1,space,5.4175329,4,0.586,,,,,,,,,,,,,,,,,,2019_Sep_18_1902,60.97155737820093,Cloud_Experiment_FR_REAL,001,47,
images/fcloud65-35_D0.8_4.tif,0.8,1,,,,,,,,,0,8,8,36,,,,,,,,,,,,,,,1,space,6.3454183,3,2.319,,,,,,,,,,,,,,,,,,2019_Sep_18_1902,60.97155737820093,Cloud_Experiment_FR_REAL,001,47,
images/fcloud65-35_D1.4_4.tif,1.4,1,,,,,,,,,0,9,9,54,,,,,,,,,,,,,,,3,space,2.69354699999,4,0.802,,,,,,,,,,,,,,,,,,2019_Sep_18_1902,60.97155737820093,Cloud_Experiment_FR_REAL,001,47,
images/fcloud_D1.4_5.tif,1.4,0,,,,,,,,,0,10,10,19,,,,,,,,,,,,,,,3,space,1.7718035,3,1.603,,,,,,,,,,,,,,,,,,2019_Sep_18_1902,60.97155737820093,Cloud_Experiment_FR_REAL,001,47,
images/fcloud80-20_D0.8_4.tif,0.8,2,,,,,,,,,0,11,11,72,,,,,,,,,,,,,,,1,space,7.10251299999,2,1.518,,,,,,,,,,,,,,,,,,2019_Sep_18_1902,60.97155737820093,Cloud_Experiment_FR_REAL,001,47,
images/fcloud_D1.5_6.tif,1.5,0,,,,,,,,,0,12,12,23,,,,,,,,,,,,,,,3,space,3.5157185,3,1.301,,,,,,,,,,,,,,,,,,2019_Sep_18_1902,60.97155737820093,Cloud_Experiment_FR_REAL,001,47,
images/fcloud_D1.8_6.tif,1.8,0,,,,,,,,,0,13,13,32,,,,,,,,,,,,,,,5,space,3.44520820001,3,1.387,,,,,,,,,,,,,,,,,,2019_Sep_18_1902,60.97155737820093,Cloud_Experiment_FR_REAL,001,47,
images/fcloud65-35_D1.3_4.tif,1.3,1,,,,,,,,,0,14,14,51,,,,,,,,,,,,,,,2,space,6.09163369999,4,0.822,,,,,,,,,,,,,,,,,,2019_Sep_18_1902,60.97155737820093,Cloud_Experiment_FR_REAL,001,47,
images/fcloud65-35_D1.1_4.tif,1.1,1,,,,,,,,,0,15,15,45,,,,,,,,,,,,,,,3,space,1.6571672,4,3.852,,,,,,,,,,,,,,,,,,2019_Sep_18_1902,60.97155737820093,Cloud_Experiment_FR_REAL,001,47,
images/fcloud65-35_D1.5_6.tif,1.5,1,,,,,,,,,0,16,16,59,,,,,,,,,,,,,,,2,space,2.3231288,3,1.602,,,,,,,,,,,,,,,,,,2019_Sep_18_1902,60.97155737820093,Cloud_Experiment_FR_REAL,001,47,
images/fcloud_D1.6_4.tif,1.6,0,,,,,,,,,0,17,17,24,,,,,,,,,,,,,,,1,space,6.3196671,1,0.603,,,,,,,,,,,,,,,,,,2019_Sep_18_1902,60.97155737820093,Cloud_Experiment_FR_REAL,001,47,
images/fcloud_D1.7_4.tif,1.7,0,,,,,,,,,0,18,18,27,,,,,,,,,,,,,,,3,space,1.86406719999,2,0.786,,,,,,,,,,,,,,,,,,2019_Sep_18_1902,60.97155737820093,Cloud_Experiment_FR_REAL,001,47,
images/fcloud_D1.6_5.tif,1.6,0,,,,,,,,,0,19,19,25,,,,,,,,,,,,,,,2,space,1.2796154,4,1.136,,,,,,,,,,,,,,,,,,2019_Sep_18_1902,60.97155737820093,Cloud_Experiment_FR_REAL,001,47,
images/fcloud65-35_D1.5_4.tif,1.5,1,,,,,,,,,0,20,20,57,,,,,,,,,,,,,,,None,None,,None,10.479,,,,,,,,,,,,,,,,,,2019_Sep_18_1902,60.97155737820093,Cloud_Experiment_FR_REAL,001,47,
images/fcloud_D1.4_6.tif,1.4,0,,,,,,,,,0,21,21,20,,,,,,,,,,,,,,,2,space,3.0701743,2,0.768,,,,,,,,,,,,,,,,,,2019_Sep_18_1902,60.97155737820093,Cloud_Experiment_FR_REAL,001,47,
images/fcloud65-35_D1.6_5.tif,1.6,1,,,,,,,,,0,22,22,61,,,,,,,,,,,,,,,1,space,6.11890069999,2,0.919,,,,,,,,,,,,,,,,,,2019_Sep_18_1902,60.97155737820093,Cloud_Experiment_FR_REAL,001,47,
images/fcloud_D1.2_5.tif,1.2,0,,,,,,,,,0,23,23,13,,,,,,,,,,,,,,,3,space,4.40607129999,4,1.15,,,,,,,,,,,,,,,,,,2019_Sep_18_1902,60.97155737820093,Cloud_Experiment_FR_REAL,001,47,
images/fcloud65-35_D1.1_6.tif,1.1,1,,,,,,,,,0,24,24,47,,,,,,,,,,,,,,,2,space,3.4633869,2,1.002,,,,,,,,,,,,,,,,,,2019_Sep_18_1902,60.97155737820093,Cloud_Experiment_FR_REAL,001,47,
images/fcloud65-35_D1.9_6.tif,1.9,1,,,,,,,,,0,25,25,71,,,,,,,,,,,,,,,1,space,3.45430740001,1,0.602,,,,,,,,,,,,,,,,,,2019_Sep_18_1902,60.97155737820093,Cloud_Experiment_FR_REAL,001,47,
images/fcloud_D1.7_5.tif,1.7,0,,,,,,,,,0,26,26,28,,,,,,,,,,,,,,,2,space,2.2139112,3,2.985,,,,,,,,,,,,,,,,,,2019_Sep_18_1902,60.97155737820093,Cloud_Experiment_FR_REAL,001,47,
images/fcloud80-20_D1.4_5.tif,1.4,2,,,,,,,,,0,27,27,91,,,,,,,,,,,,,,,1,space,6.6203632,1,2.917,,,,,,,,,,,,,,,,,,2019_Sep_18_1902,60.97155737820093,Cloud_Experiment_FR_REAL,001,47,
images/fcloud80-20_D1.5_4.tif,1.5,2,,,,,,,,,0,28,28,93,,,,,,,,,,,,,,,2,space,4.25945500001,3,0.619,,,,,,,,,,,,,,,,,,2019_Sep_18_1902,60.97155737820093,Cloud_Experiment_FR_REAL,001,47,
images/fcloud65-35_D1.7_5.tif,1.7,1,,,,,,,,,0,29,29,64,,,,,,,,,,,,,,,2,space,4.21656100001,3,0.603,,,,,,,,,,,,,,,,,,2019_Sep_18_1902,60.97155737820093,Cloud_Experiment_FR_REAL,001,47,
images/fcloud80-20_D1.7_5.tif,1.7,2,,,,,,,,,0,30,30,100,,,,,,,,,,,,,,,3,space,3.7530535,1,0.77,,,,,,,,,,,,,,,,,,2019_Sep_18_1902,60.97155737820093,Cloud_Experiment_FR_REAL,001,47,
images/fcloud_D0.8_6.tif,0.8,0,,,,,,,,,0,31,31,2,,,,,,,,,,,,,,,1,space,2.49106650001,5,1.419,,,,,,,,,,,,,,,,,,2019_Sep_18_1902,60.97155737820093,Cloud_Experiment_FR_REAL,001,47,
images/fcloud80-20_D1.8_5.tif,1.8,2,,,,,,,,,0,32,32,103,,,,,,,,,,,,,,,1,space,5.1277159,5,1.87,,,,,,,,,,,,,,,,,,2019_Sep_18_1902,60.97155737820093,Cloud_Experiment_FR_REAL,001,47,
images/fcloud80-20_D1.6_5.tif,1.6,2,,,,,,,,,0,33,33,97,,,,,,,,,,,,,,,1,space,6.71398479999,1,1.269,,,,,,,,,,,,,,,,,,2019_Sep_18_1902,60.97155737820093,Cloud_Experiment_FR_REAL,001,47,
images/fcloud65-35_D1.4_6.tif,1.4,1,,,,,,,,,0,34,34,56,,,,,,,,,,,,,,,2,space,4.5990364,3,1.185,,,,,,,,,,,,,,,,,,2019_Sep_18_1902,60.97155737820093,Cloud_Experiment_FR_REAL,001,47,
images/fcloud80-20_D1.8_4.tif,1.8,2,,,,,,,,,0,35,35,102,,,,,,,,,,,,,,,1,space,6.08276749999,1,0.854,,,,,,,,,,,,,,,,,,2019_Sep_18_1902,60.97155737820093,Cloud_Experiment_FR_REAL,001,47,
images/fcloud_D1.4_4.tif,1.4,0,,,,,,,,,0,36,36,18,,,,,,,,,,,,,,,1,space,4.9575457,1,0.419,,,,,,,,,,,,,,,,,,2019_Sep_18_1902,60.97155737820093,Cloud_Experiment_FR_REAL,001,47,
images/fcloud65-35_D1_6.tif,1.0,1,,,,,,,,,0,37,37,44,,,,,,,,,,,,,,,1,space,5.2959101,2,0.588,,,,,,,,,,,,,,,,,,2019_Sep_18_1902,60.97155737820093,Cloud_Experiment_FR_REAL,001,47,
images/fcloud65-35_D1.8_6.tif,1.8,1,,,,,,,,,0,38,38,68,,,,,,,,,,,,,,,1,space,5.32185759999,3,4.115,,,,,,,,,,,,,,,,,,2019_Sep_18_1902,60.97155737820093,Cloud_Experiment_FR_REAL,001,47,
images/fcloud65-35_D1.6_6.tif,1.6,1,,,,,,,,,0,39,39,62,,,,,,,,,,,,,,,2,space,4.43235649999,4,1.12,,,,,,,,,,,,,,,,,,2019_Sep_18_1902,60.97155737820093,Cloud_Experiment_FR_REAL,001,47,
images/fcloud_D1.3_5.tif,1.3,0,,,,,,,,,0,40,40,16,,,,,,,,,,,,,,,1,space,3.30560250001,4,2.833,,,,,,,,,,,,,,,,,,2019_Sep_18_1902,60.97155737820093,Cloud_Experiment_FR_REAL,001,47,
images/fcloud65-35_D0.9_4.tif,0.9,1,,,,,,,,,0,41,41,39,,,,,,,,,,,,,,,1,space,7.1714678,3,1.004,,,,,,,,,,,,,,,,,,2019_Sep_18_1902,60.97155737820093,Cloud_Experiment_FR_REAL,001,47,
images/fcloud65-35_D1.9_5.tif,1.9,1,,,,,,,,,0,42,42,70,,,,,,,,,,,,,,,1,space,6.84342039999,2,0.653,,,,,,,,,,,,,,,,,,2019_Sep_18_1902,60.97155737820093,Cloud_Experiment_FR_REAL,001,47,
images/fcloud80-20_D0.8_5.tif,0.8,2,,,,,,,,,0,43,43,73,,,,,,,,,,,,,,,3,space,1.8037167,3,0.684,,,,,,,,,,,,,,,,,,2019_Sep_18_1902,60.97155737820093,Cloud_Experiment_FR_REAL,001,47,
images/fcloud65-35_D0.8_5.tif,0.8,1,,,,,,,,,0,44,44,37,,,,,,,,,,,,,,,1,space,6.7505958,2,1.053,,,,,,,,,,,,,,,,,,2019_Sep_18_1902,60.97155737820093,Cloud_Experiment_FR_REAL,001,47,
images/fcloud_D1.6_6.tif,1.6,0,,,,,,,,,0,45,45,26,,,,,,,,,,,,,,,3,space,3.67863750001,3,0.755,,,,,,,,,,,,,,,,,,2019_Sep_18_1902,60.97155737820093,Cloud_Experiment_FR_REAL,001,47,
images/fcloud_D1.2_4.tif,1.2,0,,,,,,,,,0,46,46,12,,,,,,,,,,,,,,,1,space,6.3280789,2,3.134,,,,,,,,,,,,,,,,,,2019_Sep_18_1902,60.97155737820093,Cloud_Experiment_FR_REAL,001,47,
images/fcloud65-35_D1.1_5.tif,1.1,1,,,,,,,,,0,47,47,46,,,,,,,,,,,,,,,1,space,6.2496539,1,0.47,,,,,,,,,,,,,,,,,,2019_Sep_18_1902,60.97155737820093,Cloud_Experiment_FR_REAL,001,47,
images/fcloud_D1.9_5.tif,1.9,0,,,,,,,,,0,48,48,34,,,,,,,,,,,,,,,2,space,2.77466930001,4,0.771,,,,,,,,,,,,,,,,,,2019_Sep_18_1902,60.97155737820093,Cloud_Experiment_FR_REAL,001,47,
images/fcloud65-35_D1.2_5.tif,1.2,1,,,,,,,,,0,49,49,49,,,,,,,,,,,,,,,2,space,2.45090400001,3,0.802,,,,,,,,,,,,,,,,,,2019_Sep_18_1902,60.97155737820093,Cloud_Experiment_FR_REAL,001,47,
images/fcloud80-20_D1.1_6.tif,1.1,2,,,,,,,,,0,50,50,83,,,,,,,,,,,,,,,2,space,3.538586,2,0.619,,,,,,,,,,,,,,,,,,2019_Sep_18_1902,60.97155737820093,Cloud_Experiment_FR_REAL,001,47,
images/fcloud80-20_D1.5_5.tif,1.5,2,,,,,,,,,0,51,51,94,,,,,,,,,,,,,,,1,space,4.71647670001,2,0.935,,,,,,,,,,,,,,,,,,2019_Sep_18_1902,60.97155737820093,Cloud_Experiment_FR_REAL,001,47,
images/fcloud65-35_D1.7_6.tif,1.7,1,,,,,,,,,0,52,52,65,,,,,,,,,,,,,,,2,space,2.7822644,1,1.152,,,,,,,,,,,,,,,,,,2019_Sep_18_1902,60.97155737820093,Cloud_Experiment_FR_REAL,001,47,
images/fcloud65-35_D1.3_6.tif,1.3,1,,,,,,,,,0,53,53,53,,,,,,,,,,,,,,,2,space,1.9128494,2,0.985,,,,,,,,,,,,,,,,,,2019_Sep_18_1902,60.97155737820093,Cloud_Experiment_FR_REAL,001,47,
images/fcloud_D1.7_6.tif,1.7,0,,,,,,,,,0,54,54,29,,,,,,,,,,,,,,,2,space,2.7789817,4,0.786,,,,,,,,,,,,,,,,,,2019_Sep_18_1902,60.97155737820093,Cloud_Experiment_FR_REAL,001,47,
images/fcloud80-20_D0.9_5.tif,0.9,2,,,,,,,,,0,55,55,76,,,,,,,,,,,,,,,2,space,4.64591940001,3,0.753,,,,,,,,,,,,,,,,,,2019_Sep_18_1902,60.97155737820093,Cloud_Experiment_FR_REAL,001,47,
images/fcloud65-35_D1_5.tif,1.0,1,,,,,,,,,0,56,56,43,,,,,,,,,,,,,,,3,None,,4,0.653,,,,,,,,,,,,,,,,,,2019_Sep_18_1902,60.97155737820093,Cloud_Experiment_FR_REAL,001,47,
images/fcloud80-20_D1.6_6.tif,1.6,2,,,,,,,,,0,57,57,98,,,,,,,,,,,,,,,1,space,4.34117160001,3,1.884,,,,,,,,,,,,,,,,,,2019_Sep_18_1902,60.97155737820093,Cloud_Experiment_FR_REAL,001,47,
images/fcloud_D1_5.tif,1.0,0,,,,,,,,,0,58,58,7,,,,,,,,,,,,,,,3,space,4.589689,3,2.036,,,,,,,,,,,,,,,,,,2019_Sep_18_1902,60.97155737820093,Cloud_Experiment_FR_REAL,001,47,
images/fcloud_D1.3_6.tif,1.3,0,,,,,,,,,0,59,59,17,,,,,,,,,,,,,,,1,space,7.39817260001,2,0.986,,,,,,,,,,,,,,,,,,2019_Sep_18_1902,60.97155737820093,Cloud_Experiment_FR_REAL,001,47,
images/fcloud80-20_D0.9_4.tif,0.9,2,,,,,,,,,0,60,60,75,,,,,,,,,,,,,,,1,space,3.3671442,3,1.42,,,,,,,,,,,,,,,,,,2019_Sep_18_1902,60.97155737820093,Cloud_Experiment_FR_REAL,001,47,
images/fcloud_D1.9_6.tif,1.9,0,,,,,,,,,0,61,61,35,,,,,,,,,,,,,,,2,space,4.754503,3,0.669,,,,,,,,,,,,,,,,,,2019_Sep_18_1902,60.97155737820093,Cloud_Experiment_FR_REAL,001,47,
images/fcloud80-20_D1.2_5.tif,1.2,2,,,,,,,,,0,62,62,85,,,,,,,,,,,,,,,1,space,6.38699319999,4,0.737,,,,,,,,,,,,,,,,,,2019_Sep_18_1902,60.97155737820093,Cloud_Experiment_FR_REAL,001,47,
images/fcloud80-20_D1.3_6.tif,1.3,2,,,,,,,,,0,63,63,89,,,,,,,,,,,,,,,2,space,4.448451,2,1.553,,,,,,,,,,,,,,,,,,2019_Sep_18_1902,60.97155737820093,Cloud_Experiment_FR_REAL,001,47,
images/fcloud_D1.9_4.tif,1.9,0,,,,,,,,,0,64,64,33,,,,,,,,,,,,,,,3,space,4.0077058,2,0.785,,,,,,,,,,,,,,,,,,2019_Sep_18_1902,60.97155737820093,Cloud_Experiment_FR_REAL,001,47,
images/fcloud_D1.3_4.tif,1.3,0,,,,,,,,,0,65,65,15,,,,,,,,,,,,,,,2,space,3.02863209999,3,1.035,,,,,,,,,,,,,,,,,,2019_Sep_18_1902,60.97155737820093,Cloud_Experiment_FR_REAL,001,47,
images/fcloud65-35_D1.5_5.tif,1.5,1,,,,,,,,,0,66,66,58,,,,,,,,,,,,,,,3,space,2.49447870001,2,0.818,,,,,,,,,,,,,,,,,,2019_Sep_18_1902,60.97155737820093,Cloud_Experiment_FR_REAL,001,47,
images/fcloud80-20_D1.4_6.tif,1.4,2,,,,,,,,,0,67,67,92,,,,,,,,,,,,,,,2,space,4.88642349999,2,1.419,,,,,,,,,,,,,,,,,,2019_Sep_18_1902,60.97155737820093,Cloud_Experiment_FR_REAL,001,47,
images/fcloud80-20_D1.1_5.tif,1.1,2,,,,,,,,,0,68,68,82,,,,,,,,,,,,,,,2,space,3.99337510001,2,0.489,,,,,,,,,,,,,,,,,,2019_Sep_18_1902,60.97155737820093,Cloud_Experiment_FR_REAL,001,47,
images/fcloud80-20_D1.3_4.tif,1.3,2,,,,,,,,,0,69,69,87,,,,,,,,,,,,,,,3,space,2.5278864,3,0.786,,,,,,,,,,,,,,,,,,2019_Sep_18_1902,60.97155737820093,Cloud_Experiment_FR_REAL,001,47,
images/fcloud80-20_D1.5_6.tif,1.5,2,,,,,,,,,0,70,70,95,,,,,,,,,,,,,,,2,space,3.6017516,3,0.753,,,,,,,,,,,,,,,,,,2019_Sep_18_1902,60.97155737820093,Cloud_Experiment_FR_REAL,001,47,
images/fcloud_D1.1_4.tif,1.1,0,,,,,,,,,0,71,71,9,,,,,,,,,,,,,,,3,space,4.75860649999,3,0.819,,,,,,,,,,,,,,,,,,2019_Sep_18_1902,60.97155737820093,Cloud_Experiment_FR_REAL,001,47,
images/fcloud65-35_D1.9_4.tif,1.9,1,,,,,,,,,0,72,72,69,,,,,,,,,,,,,,,2,space,4.53219519999,4,0.887,,,,,,,,,,,,,,,,,,2019_Sep_18_1902,60.97155737820093,Cloud_Experiment_FR_REAL,001,47,
images/fcloud_D0.8_4.tif,0.8,0,,,,,,,,,0,73,73,0,,,,,,,,,,,,,,,1,space,5.2594585,3,0.785,,,,,,,,,,,,,,,,,,2019_Sep_18_1902,60.97155737820093,Cloud_Experiment_FR_REAL,001,47,
images/fcloud80-20_D1_6.tif,1.0,2,,,,,,,,,0,74,74,80,,,,,,,,,,,,,,,1,space,6.1372079,3,0.503,,,,,,,,,,,,,,,,,,2019_Sep_18_1902,60.97155737820093,Cloud_Experiment_FR_REAL,001,47,
images/fcloud_D1.8_4.tif,1.8,0,,,,,,,,,0,75,75,30,,,,,,,,,,,,,,,None,None,,None,9.393,,,,,,,,,,,,,,,,,,2019_Sep_18_1902,60.97155737820093,Cloud_Experiment_FR_REAL,001,47,
images/fcloud65-35_D1.2_4.tif,1.2,1,,,,,,,,,0,76,76,48,,,,,,,,,,,,,,,1,space,2.93104329999,3,0.952,,,,,,,,,,,,,,,,,,2019_Sep_18_1902,60.97155737820093,Cloud_Experiment_FR_REAL,001,47,
images/fcloud80-20_D1.1_4.tif,1.1,2,,,,,,,,,0,77,77,81,,,,,,,,,,,,,,,2,space,1.74858570001,3,1.135,,,,,,,,,,,,,,,,,,2019_Sep_18_1902,60.97155737820093,Cloud_Experiment_FR_REAL,001,47,
images/fcloud80-20_D1.7_4.tif,1.7,2,,,,,,,,,0,78,78,99,,,,,,,,,,,,,,,2,space,4.94024180001,2,0.686,,,,,,,,,,,,,,,,,,2019_Sep_18_1902,60.97155737820093,Cloud_Experiment_FR_REAL,001,47,
images/fcloud65-35_D1.6_4.tif,1.6,1,,,,,,,,,0,79,79,60,,,,,,,,,,,,,,,2,space,5.3475726,4,0.769,,,,,,,,,,,,,,,,,,2019_Sep_18_1902,60.97155737820093,Cloud_Experiment_FR_REAL,001,47,
images/fcloud80-20_D1.9_6.tif,1.9,2,,,,,,,,,0,80,80,107,,,,,,,,,,,,,,,2,space,3.5173865,4,1.334,,,,,,,,,,,,,,,,,,2019_Sep_18_1902,60.97155737820093,Cloud_Experiment_FR_REAL,001,47,
images/fcloud_D1.5_4.tif,1.5,0,,,,,,,,,0,81,81,21,,,,,,,,,,,,,,,2,space,5.7442769,3,0.869,,,,,,,,,,,,,,,,,,2019_Sep_18_1902,60.97155737820093,Cloud_Experiment_FR_REAL,001,47,
images/fcloud_D1.1_6.tif,1.1,0,,,,,,,,,0,82,82,11,,,,,,,,,,,,,,,1,space,4.5574186,2,0.653,,,,,,,,,,,,,,,,,,2019_Sep_18_1902,60.97155737820093,Cloud_Experiment_FR_REAL,001,47,
images/fcloud65-35_D0.9_6.tif,0.9,1,,,,,,,,,0,83,83,41,,,,,,,,,,,,,,,1,space,5.89484939999,1,0.586,,,,,,,,,,,,,,,,,,2019_Sep_18_1902,60.97155737820093,Cloud_Experiment_FR_REAL,001,47,
images/fcloud_D1_6.tif,1.0,0,,,,,,,,,0,84,84,8,,,,,,,,,,,,,,,3,space,3.4362653,4,0.952,,,,,,,,,,,,,,,,,,2019_Sep_18_1902,60.97155737820093,Cloud_Experiment_FR_REAL,001,47,
images/fcloud_D1_4.tif,1.0,0,,,,,,,,,0,85,85,6,,,,,,,,,,,,,,,2,space,3.81992330001,4,0.819,,,,,,,,,,,,,,,,,,2019_Sep_18_1902,60.97155737820093,Cloud_Experiment_FR_REAL,001,47,
images/fcloud80-20_D1.9_5.tif,1.9,2,,,,,,,,,0,86,86,106,,,,,,,,,,,,,,,1,space,2.7615622,3,1.835,,,,,,,,,,,,,,,,,,2019_Sep_18_1902,60.97155737820093,Cloud_Experiment_FR_REAL,001,47,
images/fcloud_D0.8_5.tif,0.8,0,,,,,,,,,0,87,87,1,,,,,,,,,,,,,,,2,space,1.3998384,2,2.368,,,,,,,,,,,,,,,,,,2019_Sep_18_1902,60.97155737820093,Cloud_Experiment_FR_REAL,001,47,
images/fcloud80-20_D1.3_5.tif,1.3,2,,,,,,,,,0,88,88,88,,,,,,,,,,,,,,,2,space,2.8660963,3,0.918,,,,,,,,,,,,,,,,,,2019_Sep_18_1902,60.97155737820093,Cloud_Experiment_FR_REAL,001,47,
images/fcloud80-20_D1.2_4.tif,1.2,2,,,,,,,,,0,89,89,84,,,,,,,,,,,,,,,2,space,3.82791220001,2,0.635,,,,,,,,,,,,,,,,,,2019_Sep_18_1902,60.97155737820093,Cloud_Experiment_FR_REAL,001,47,
images/fcloud65-35_D1.8_4.tif,1.8,1,,,,,,,,,0,90,90,66,,,,,,,,,,,,,,,2,space,4.2287867,3,0.736,,,,,,,,,,,,,,,,,,2019_Sep_18_1902,60.97155737820093,Cloud_Experiment_FR_REAL,001,47,
images/fcloud80-20_D1.9_4.tif,1.9,2,,,,,,,,,0,91,91,105,,,,,,,,,,,,,,,2,space,2.157162,2,1.069,,,,,,,,,,,,,,,,,,2019_Sep_18_1902,60.97155737820093,Cloud_Experiment_FR_REAL,001,47,
images/fcloud_D1.2_6.tif,1.2,0,,,,,,,,,0,92,92,14,,,,,,,,,,,,,,,1,space,3.46569900001,2,1.917,,,,,,,,,,,,,,,,,,2019_Sep_18_1902,60.97155737820093,Cloud_Experiment_FR_REAL,001,47,
images/fcloud65-35_D0.8_6.tif,0.8,1,,,,,,,,,0,93,93,38,,,,,,,,,,,,,,,1,None,,1,4.05,,,,,,,,,,,,,,,,,,2019_Sep_18_1902,60.97155737820093,Cloud_Experiment_FR_REAL,001,47,
images/fcloud80-20_D1_4.tif,1.0,2,,,,,,,,,0,94,94,78,,,,,,,,,,,,,,,2,space,3.01916510001,3,0.987,,,,,,,,,,,,,,,,,,2019_Sep_18_1902,60.97155737820093,Cloud_Experiment_FR_REAL,001,47,
images/fcloud80-20_D1.7_6.tif,1.7,2,,,,,,,,,0,95,95,101,,,,,,,,,,,,,,,2,space,2.37591659999,3,0.919,,,,,,,,,,,,,,,,,,2019_Sep_18_1902,60.97155737820093,Cloud_Experiment_FR_REAL,001,47,
images/fcloud65-35_D1.4_5.tif,1.4,1,,,,,,,,,0,96,96,55,,,,,,,,,,,,,,,2,space,4.5381893,2,2.603,,,,,,,,,,,,,,,,,,2019_Sep_18_1902,60.97155737820093,Cloud_Experiment_FR_REAL,001,47,
images/fcloud_D1.8_5.tif,1.8,0,,,,,,,,,0,97,97,31,,,,,,,,,,,,,,,2,space,1.96180840001,2,0.488,,,,,,,,,,,,,,,,,,2019_Sep_18_1902,60.97155737820093,Cloud_Experiment_FR_REAL,001,47,
images/fcloud80-20_D0.9_6.tif,0.9,2,,,,,,,,,0,98,98,77,,,,,,,,,,,,,,,2,space,4.4223257,3,0.737,,,,,,,,,,,,,,,,,,2019_Sep_18_1902,60.97155737820093,Cloud_Experiment_FR_REAL,001,47,
images/fcloud65-35_D1.7_4.tif,1.7,1,,,,,,,,,0,99,99,63,,,,,,,,,,,,,,,2,space,4.96589000001,3,1.534,,,,,,,,,,,,,,,,,,2019_Sep_18_1902,60.97155737820093,Cloud_Experiment_FR_REAL,001,47,
images/fcloud_D1.1_5.tif,1.1,0,,,,,,,,,0,100,100,10,,,,,,,,,,,,,,,2,space,4.57574479999,3,0.453,,,,,,,,,,,,,,,,,,2019_Sep_18_1902,60.97155737820093,Cloud_Experiment_FR_REAL,001,47,
images/fcloud80-20_D1.8_6.tif,1.8,2,,,,,,,,,0,101,101,104,,,,,,,,,,,,,,,2,space,5.0947149,4,0.602,,,,,,,,,,,,,,,,,,2019_Sep_18_1902,60.97155737820093,Cloud_Experiment_FR_REAL,001,47,
images/fcloud80-20_D0.8_6.tif,0.8,2,,,,,,,,,0,102,102,74,,,,,,,,,,,,,,,1,space,1.4605895,5,0.819,,,,,,,,,,,,,,,,,,2019_Sep_18_1902,60.97155737820093,Cloud_Experiment_FR_REAL,001,47,
images/fcloud65-35_D1.2_6.tif,1.2,1,,,,,,,,,0,103,103,50,,,,,,,,,,,,,,,2,space,2.42207839999,4,1.036,,,,,,,,,,,,,,,,,,2019_Sep_18_1902,60.97155737820093,Cloud_Experiment_FR_REAL,001,47,
images/fcloud_D1.5_5.tif,1.5,0,,,,,,,,,0,104,104,22,,,,,,,,,,,,,,,1,space,2.29046230001,5,0.785,,,,,,,,,,,,,,,,,,2019_Sep_18_1902,60.97155737820093,Cloud_Experiment_FR_REAL,001,47,
images/fcloud65-35_D1_4.tif,1.0,1,,,,,,,,,0,105,105,42,,,,,,,,,,,,,,,2,space,2.63956550001,4,0.537,,,,,,,,,,,,,,,,,,2019_Sep_18_1902,60.97155737820093,Cloud_Experiment_FR_REAL,001,47,
images/fcloud80-20_D1.4_4.tif,1.4,2,,,,,,,,,0,106,106,90,,,,,,,,,,,,,,,3,space,4.330015,3,0.788,,,,,,,,,,,,,,,,,,2019_Sep_18_1902,60.97155737820093,Cloud_Experiment_FR_REAL,001,47,
images/fcloud80-20_D1_5.tif,1.0,2,,,,,,,,,0,107,107,79,,,,,,,,,,,,,,,1,space,6.46307339999,3,0.602,,,,,,,,,,,,,,,,,,2019_Sep_18_1902,60.97155737820093,Cloud_Experiment_FR_REAL,001,47,
,,,,,,,,,,,,,,,,,,,,,,,,,,,,,,,,,,,,,,,,,,,,,,space,1.38266670001,,,,2019_Sep_18_1902,60.97155737820093,Cloud_Experiment_FR_REAL,001,47,
,,,,,,,,,,,,,,,,,,,,,,,,,3,6.702,,,,,,,,,,,,,,,,,,,,,,,,,2019_Sep_18_1902,60.97155737820093,Cloud_Experiment_FR_REAL,001,47,
,,,,,,,,,,,,,,,,,,,,,,,,,,,,,,,,,,5,,,,,,,,,,,,,,,,,2019_Sep_18_1902,60.97155737820093,Cloud_Experiment_FR_REAL,001,47,
,,,,,,,,,,,,,,,,,,,,,,,,,,,,,,,,,,,5,,,,,,,,,,,,,,,,2019_Sep_18_1902,60.97155737820093,Cloud_Experiment_FR_REAL,001,47,
,,,,,,,,,,,,,,,,,,,,,,,,,,,,,,,,,,,,5,,,,,,,,,,,,,,,2019_Sep_18_1902,60.97155737820093,Cloud_Experiment_FR_REAL,001,47,
,,,,,,,,,,,,,,,,,,,,,,,,,,,,,,,,,,,,,5,,,,,,,,,,,,,,2019_Sep_18_1902,60.97155737820093,Cloud_Experiment_FR_REAL,001,47,
,,,,,,,,,,,,,,,,,,,,,,,,,,,,,,,,,,,,,,5,,,,,,,,,,,,,2019_Sep_18_1902,60.97155737820093,Cloud_Experiment_FR_REAL,001,47,
,,,,,,,,,,,,,,,,,,,,,,,,,,,,,,,,,,,,,,,5,,,,,,,,,,,,2019_Sep_18_1902,60.97155737820093,Cloud_Experiment_FR_REAL,001,47,
,,,,,,,,,,,,,,,,,,,,,,,,,,,,,,,,,,,,,,,,5,,,,,,,,,,,2019_Sep_18_1902,60.97155737820093,Cloud_Experiment_FR_REAL,001,47,
,,,,,,,,,,,,,,,,,,,,,,,,,,,,,,,,,,,,,,,,,7,,,,,,,,,,2019_Sep_18_1902,60.97155737820093,Cloud_Experiment_FR_REAL,001,47,
,,,,,,,,,,,,,,,,,,,,,,,,,,,,,,,,,,,,,,,,,,5,,,,,,,,,2019_Sep_18_1902,60.97155737820093,Cloud_Experiment_FR_REAL,001,47,
,,,,,,,,,,,,,,,,,,,,,,,,,,,,,,,,,,,,,,,,,,,3,,,,,,,,2019_Sep_18_1902,60.97155737820093,Cloud_Experiment_FR_REAL,001,47,
,,,,,,,,,,,,,,,,,,,,,,,,,,,,,,,,,,,,,,,,,,,,,,,,space,93.8529125,,2019_Sep_18_1902,60.97155737820093,Cloud_Experiment_FR_REAL,001,47,
images/fcloud65-35_D1.9_8.tif,1.9,1,,,,,,,,,,,,,0,0,0,93,,,,,,,,,,,3,space,2.5885045,4,0.602,,,,,,,,,,,,,,,,,,2019_Sep_18_1902,60.97155737820093,Cloud_Experiment_FR_REAL,001,47,
images/fcloud_D0.8_10.tif,0.8,0,,,,,,,,,,,,,0,1,1,3,,,,,,,,,,,3,space,3.77329500001,3,0.686,,,,,,,,,,,,,,,,,,2019_Sep_18_1902,60.97155737820093,Cloud_Experiment_FR_REAL,001,47,
images/fcloud80-20_D0.9_9.tif,0.9,2,,,,,,,,,,,,,0,2,2,102,,,,,,,,,,,1,space,6.0146959,1,0.418,,,,,,,,,,,,,,,,,,2019_Sep_18_1902,60.97155737820093,Cloud_Experiment_FR_REAL,001,47,
images/fcloud80-20_D1.3_7.tif,1.3,2,,,,,,,,,,,,,0,3,3,116,,,,,,,,,,,3,space,3.9165677,4,0.953,,,,,,,,,,,,,,,,,,2019_Sep_18_1902,60.97155737820093,Cloud_Experiment_FR_REAL,001,47,
images/fcloud_D1.7_8.tif,1.7,0,,,,,,,,,,,,,0,4,4,37,,,,,,,,,,,3,space,3.6688251,3,0.587,,,,,,,,,,,,,,,,,,2019_Sep_18_1902,60.97155737820093,Cloud_Experiment_FR_REAL,001,47,
images/fcloud80-20_D0.8_10.tif,0.8,2,,,,,,,,,,,,,0,5,5,99,,,,,,,,,,,2,space,5.63877210001,2,1.869,,,,,,,,,,,,,,,,,,2019_Sep_18_1902,60.97155737820093,Cloud_Experiment_FR_REAL,001,47,
images/fcloud80-20_D1.3_9.tif,1.3,2,,,,,,,,,,,,,0,6,6,118,,,,,,,,,,,3,space,2.26416559999,4,0.771,,,,,,,,,,,,,,,,,,2019_Sep_18_1902,60.97155737820093,Cloud_Experiment_FR_REAL,001,47,
images/fcloud80-20_D1.6_9.tif,1.6,2,,,,,,,,,,,,,0,7,7,130,,,,,,,,,,,2,space,3.8043724,4,1.353,,,,,,,,,,,,,,,,,,2019_Sep_18_1902,60.97155737820093,Cloud_Experiment_FR_REAL,001,47,
images/fcloud80-20_D1.8_10.tif,1.8,2,,,,,,,,,,,,,0,8,8,139,,,,,,,,,,,1,space,4.9327587,1,0.519,,,,,,,,,,,,,,,,,,2019_Sep_18_1902,60.97155737820093,Cloud_Experiment_FR_REAL,001,47,
images/fcloud80-20_D0.8_7.tif,0.8,2,,,,,,,,,,,,,0,9,9,96,,,,,,,,,,,1,space,4.0557728,2,0.902,,,,,,,,,,,,,,,,,,2019_Sep_18_1902,60.97155737820093,Cloud_Experiment_FR_REAL,001,47,
images/fcloud_D1.4_8.tif,1.4,0,,,,,,,,,,,,,0,10,10,25,,,,,,,,,,,2,space,2.7428293,3,0.602,,,,,,,,,,,,,,,,,,2019_Sep_18_1902,60.97155737820093,Cloud_Experiment_FR_REAL,001,47,
images/fcloud80-20_D1.5_10.tif,1.5,2,,,,,,,,,,,,,0,11,11,127,,,,,,,,,,,3,space,2.7061447,4,0.752,,,,,,,,,,,,,,,,,,2019_Sep_18_1902,60.97155737820093,Cloud_Experiment_FR_REAL,001,47,
images/fcloud_D1.5_7.tif,1.5,0,,,,,,,,,,,,,0,12,12,28,,,,,,,,,,,2,space,3.85231859999,4,1.035,,,,,,,,,,,,,,,,,,2019_Sep_18_1902,60.97155737820093,Cloud_Experiment_FR_REAL,001,47,
images/fcloud65-35_D0.9_7.tif,0.9,1,,,,,,,,,,,,,0,13,13,52,,,,,,,,,,,1,space,7.32355109999,2,0.785,,,,,,,,,,,,,,,,,,2019_Sep_18_1902,60.97155737820093,Cloud_Experiment_FR_REAL,001,47,
images/fcloud65-35_D1.4_9.tif,1.4,1,,,,,,,,,,,,,0,14,14,74,,,,,,,,,,,3,space,2.53683110001,4,1.419,,,,,,,,,,,,,,,,,,2019_Sep_18_1902,60.97155737820093,Cloud_Experiment_FR_REAL,001,47,
images/fcloud80-20_D1_7.tif,1.0,2,,,,,,,,,,,,,0,15,15,104,,,,,,,,,,,1,space,6.9276556,1,1.418,,,,,,,,,,,,,,,,,,2019_Sep_18_1902,60.97155737820093,Cloud_Experiment_FR_REAL,001,47,
images/fcloud65-35_D1.9_10.tif,1.9,1,,,,,,,,,,,,,0,16,16,95,,,,,,,,,,,1,space,5.8104403,2,0.737,,,,,,,,,,,,,,,,,,2019_Sep_18_1902,60.97155737820093,Cloud_Experiment_FR_REAL,001,47,
images/fcloud65-35_D1_7.tif,1.0,1,,,,,,,,,,,,,0,17,17,56,,,,,,,,,,,3,space,3.707476,4,0.619,,,,,,,,,,,,,,,,,,2019_Sep_18_1902,60.97155737820093,Cloud_Experiment_FR_REAL,001,47,
images/fcloud65-35_D1.2_9.tif,1.2,1,,,,,,,,,,,,,0,18,18,66,,,,,,,,,,,3,space,5.75696329999,4,0.769,,,,,,,,,,,,,,,,,,2019_Sep_18_1902,60.97155737820093,Cloud_Experiment_FR_REAL,001,47,
images/fcloud_D1.5_9.tif,1.5,0,,,,,,,,,,,,,0,19,19,30,,,,,,,,,,,2,space,4.19784209999,4,0.668,,,,,,,,,,,,,,,,,,2019_Sep_18_1902,60.97155737820093,Cloud_Experiment_FR_REAL,001,47,
images/fcloud80-20_D1.1_8.tif,1.1,2,,,,,,,,,,,,,0,20,20,109,,,,,,,,,,,None,None,,None,9.859,,,,,,,,,,,,,,,,,,2019_Sep_18_1902,60.97155737820093,Cloud_Experiment_FR_REAL,001,47,
images/fcloud80-20_D1.9_8.tif,1.9,2,,,,,,,,,,,,,0,21,21,141,,,,,,,,,,,2,space,4.58342,3,4.783,,,,,,,,,,,,,,,,,,2019_Sep_18_1902,60.97155737820093,Cloud_Experiment_FR_REAL,001,47,
images/fcloud65-35_D1.8_7.tif,1.8,1,,,,,,,,,,,,,0,22,22,88,,,,,,,,,,,3,space,4.92220350001,2,1.435,,,,,,,,,,,,,,,,,,2019_Sep_18_1902,60.97155737820093,Cloud_Experiment_FR_REAL,001,47,
images/fcloud80-20_D1.8_8.tif,1.8,2,,,,,,,,,,,,,0,23,23,137,,,,,,,,,,,2,space,5.7275024,3,0.637,,,,,,,,,,,,,,,,,,2019_Sep_18_1902,60.97155737820093,Cloud_Experiment_FR_REAL,001,47,
images/fcloud80-20_D1.3_10.tif,1.3,2,,,,,,,,,,,,,0,24,24,119,,,,,,,,,,,3,space,1.63007860001,3,1.204,,,,,,,,,,,,,,,,,,2019_Sep_18_1902,60.97155737820093,Cloud_Experiment_FR_REAL,001,47,
images/fcloud65-35_D1.2_8.tif,1.2,1,,,,,,,,,,,,,0,25,25,65,,,,,,,,,,,2,space,5.45609270001,3,0.486,,,,,,,,,,,,,,,,,,2019_Sep_18_1902,60.97155737820093,Cloud_Experiment_FR_REAL,001,47,
images/fcloud_D0.9_8.tif,0.9,0,,,,,,,,,,,,,0,26,26,5,,,,,,,,,,,1,space,6.075455,2,0.469,,,,,,,,,,,,,,,,,,2019_Sep_18_1902,60.97155737820093,Cloud_Experiment_FR_REAL,001,47,
images/fcloud80-20_D1.5_7.tif,1.5,2,,,,,,,,,,,,,0,27,27,124,,,,,,,,,,,1,space,6.85810110001,1,2.484,,,,,,,,,,,,,,,,,,2019_Sep_18_1902,60.97155737820093,Cloud_Experiment_FR_REAL,001,47,
images/fcloud80-20_D1.8_9.tif,1.8,2,,,,,,,,,,,,,0,28,28,138,,,,,,,,,,,2,space,5.35055870001,4,0.635,,,,,,,,,,,,,,,,,,2019_Sep_18_1902,60.97155737820093,Cloud_Experiment_FR_REAL,001,47,
images/fcloud_D0.9_10.tif,0.9,0,,,,,,,,,,,,,0,29,29,7,,,,,,,,,,,None,None,,None,9.793,,,,,,,,,,,,,,,,,,2019_Sep_18_1902,60.97155737820093,Cloud_Experiment_FR_REAL,001,47,
images/fcloud_D1.8_10.tif,1.8,0,,,,,,,,,,,,,0,30,30,43,,,,,,,,,,,3,space,3.57929720001,3,1.9,,,,,,,,,,,,,,,,,,2019_Sep_18_1902,60.97155737820093,Cloud_Experiment_FR_REAL,001,47,
images/fcloud_D0.8_8.tif,0.8,0,,,,,,,,,,,,,0,31,31,1,,,,,,,,,,,3,space,2.6990907,3,1.767,,,,,,,,,,,,,,,,,,2019_Sep_18_1902,60.97155737820093,Cloud_Experiment_FR_REAL,001,47,
images/fcloud_D1.1_7.tif,1.1,0,,,,,,,,,,,,,0,32,32,12,,,,,,,,,,,1,space,6.78604219999,2,0.468,,,,,,,,,,,,,,,,,,2019_Sep_18_1902,60.97155737820093,Cloud_Experiment_FR_REAL,001,47,
images/fcloud65-35_D0.9_10.tif,0.9,1,,,,,,,,,,,,,0,33,33,55,,,,,,,,,,,2,space,5.9044438,2,0.702,,,,,,,,,,,,,,,,,,2019_Sep_18_1902,60.97155737820093,Cloud_Experiment_FR_REAL,001,47,
images/fcloud80-20_D1.6_7.tif,1.6,2,,,,,,,,,,,,,0,34,34,128,,,,,,,,,,,2,space,2.3633277,5,1.135,,,,,,,,,,,,,,,,,,2019_Sep_18_1902,60.97155737820093,Cloud_Experiment_FR_REAL,001,47,
images/fcloud65-35_D1.4_10.tif,1.4,1,,,,,,,,,,,,,0,35,35,75,,,,,,,,,,,2,space,3.3057189,2,0.62,,,,,,,,,,,,,,,,,,2019_Sep_18_1902,60.97155737820093,Cloud_Experiment_FR_REAL,001,47,
images/fcloud_D1.3_7.tif,1.3,0,,,,,,,,,,,,,0,36,36,20,,,,,,,,,,,3,space,1.5701213,4,1.136,,,,,,,,,,,,,,,,,,2019_Sep_18_1902,60.97155737820093,Cloud_Experiment_FR_REAL,001,47,
images/fcloud80-20_D1.6_8.tif,1.6,2,,,,,,,,,,,,,0,37,37,129,,,,,,,,,,,1,space,5.6003133,4,0.57,,,,,,,,,,,,,,,,,,2019_Sep_18_1902,60.97155737820093,Cloud_Experiment_FR_REAL,001,47,
images/fcloud65-35_D1.2_10.tif,1.2,1,,,,,,,,,,,,,0,38,38,67,,,,,,,,,,,3,space,3.8086364,3,1.218,,,,,,,,,,,,,,,,,,2019_Sep_18_1902,60.97155737820093,Cloud_Experiment_FR_REAL,001,47,
images/fcloud_D1.1_8.tif,1.1,0,,,,,,,,,,,,,0,39,39,13,,,,,,,,,,,5,None,,2,1.169,,,,,,,,,,,,,,,,,,2019_Sep_18_1902,60.97155737820093,Cloud_Experiment_FR_REAL,001,47,
images/fcloud65-35_D1.7_7.tif,1.7,1,,,,,,,,,,,,,0,40,40,84,,,,,,,,,,,3,space,2.458352,3,1.469,,,,,,,,,,,,,,,,,,2019_Sep_18_1902,60.97155737820093,Cloud_Experiment_FR_REAL,001,47,
images/fcloud65-35_D0.9_9.tif,0.9,1,,,,,,,,,,,,,0,41,41,54,,,,,,,,,,,2,space,3.2351579,2,0.835,,,,,,,,,,,,,,,,,,2019_Sep_18_1902,60.97155737820093,Cloud_Experiment_FR_REAL,001,47,
images/fcloud_D1.2_7.tif,1.2,0,,,,,,,,,,,,,0,42,42,16,,,,,,,,,,,3,space,1.5084245,3,0.952,,,,,,,,,,,,,,,,,,2019_Sep_18_1902,60.97155737820093,Cloud_Experiment_FR_REAL,001,47,
images/fcloud65-35_D0.8_10.tif,0.8,1,,,,,,,,,,,,,0,43,43,51,,,,,,,,,,,1,space,6.5000362,1,2.918,,,,,,,,,,,,,,,,,,2019_Sep_18_1902,60.97155737820093,Cloud_Experiment_FR_REAL,001,47,
images/fcloud_D1.7_9.tif,1.7,0,,,,,,,,,,,,,0,44,44,38,,,,,,,,,,,None,space,4.1941048,None,12.992,,,,,,,,,,,,,,,,,,2019_Sep_18_1902,60.97155737820093,Cloud_Experiment_FR_REAL,001,47,
images/fcloud_D1_7.tif,1.0,0,,,,,,,,,,,,,0,45,45,8,,,,,,,,,,,2,space,3.83202290001,4,0.935,,,,,,,,,,,,,,,,,,2019_Sep_18_1902,60.97155737820093,Cloud_Experiment_FR_REAL,001,47,
images/fcloud65-35_D1.8_9.tif,1.8,1,,,,,,,,,,,,,0,46,46,90,,,,,,,,,,,2,space,2.34598690001,4,0.771,,,,,,,,,,,,,,,,,,2019_Sep_18_1902,60.97155737820093,Cloud_Experiment_FR_REAL,001,47,
images/fcloud80-20_D1.4_8.tif,1.4,2,,,,,,,,,,,,,0,47,47,121,,,,,,,,,,,1,space,3.02030600001,2,0.602,,,,,,,,,,,,,,,,,,2019_Sep_18_1902,60.97155737820093,Cloud_Experiment_FR_REAL,001,47,
images/fcloud80-20_D1.3_8.tif,1.3,2,,,,,,,,,,,,,0,48,48,117,,,,,,,,,,,1,space,4.46913160001,2,0.703,,,,,,,,,,,,,,,,,,2019_Sep_18_1902,60.97155737820093,Cloud_Experiment_FR_REAL,001,47,
images/fcloud65-35_D1.8_10.tif,1.8,1,,,,,,,,,,,,,0,49,49,91,,,,,,,,,,,1,space,3.58289009999,2,0.786,,,,,,,,,,,,,,,,,,2019_Sep_18_1902,60.97155737820093,Cloud_Experiment_FR_REAL,001,47,
images/fcloud65-35_D1_9.tif,1.0,1,,,,,,,,,,,,,0,50,50,58,,,,,,,,,,,4,space,1.0316824,3,1.203,,,,,,,,,,,,,,,,,,2019_Sep_18_1902,60.97155737820093,Cloud_Experiment_FR_REAL,001,47,
images/fcloud65-35_D1.2_7.tif,1.2,1,,,,,,,,,,,,,0,51,51,64,,,,,,,,,,,4,space,2.84710270001,3,0.819,,,,,,,,,,,,,,,,,,2019_Sep_18_1902,60.97155737820093,Cloud_Experiment_FR_REAL,001,47,
images/fcloud65-35_D1.7_10.tif,1.7,1,,,,,,,,,,,,,0,52,52,87,,,,,,,,,,,2,space,3.09312429999,5,1.552,,,,,,,,,,,,,,,,,,2019_Sep_18_1902,60.97155737820093,Cloud_Experiment_FR_REAL,001,47,
images/fcloud65-35_D1.1_7.tif,1.1,1,,,,,,,,,,,,,0,53,53,60,,,,,,,,,,,2,space,5.54850620001,3,0.835,,,,,,,,,,,,,,,,,,2019_Sep_18_1902,60.97155737820093,Cloud_Experiment_FR_REAL,001,47,
images/fcloud_D1.7_7.tif,1.7,0,,,,,,,,,,,,,0,54,54,36,,,,,,,,,,,2,space,4.76681460001,2,1.369,,,,,,,,,,,,,,,,,,2019_Sep_18_1902,60.97155737820093,Cloud_Experiment_FR_REAL,001,47,
images/fcloud_D1.1_9.tif,1.1,0,,,,,,,,,,,,,0,55,55,14,,,,,,,,,,,1,space,3.8250021,1,0.685,,,,,,,,,,,,,,,,,,2019_Sep_18_1902,60.97155737820093,Cloud_Experiment_FR_REAL,001,47,
images/fcloud80-20_D1.5_9.tif,1.5,2,,,,,,,,,,,,,0,56,56,126,,,,,,,,,,,1,space,2.54023129999,3,0.737,,,,,,,,,,,,,,,,,,2019_Sep_18_1902,60.97155737820093,Cloud_Experiment_FR_REAL,001,47,
images/fcloud80-20_D1.1_7.tif,1.1,2,,,,,,,,,,,,,0,57,57,108,,,,,,,,,,,1,space,4.3519523,3,0.667,,,,,,,,,,,,,,,,,,2019_Sep_18_1902,60.97155737820093,Cloud_Experiment_FR_REAL,001,47,
images/fcloud_D1.2_9.tif,1.2,0,,,,,,,,,,,,,0,58,58,18,,,,,,,,,,,3,space,2.65799009999,2,1.301,,,,,,,,,,,,,,,,,,2019_Sep_18_1902,60.97155737820093,Cloud_Experiment_FR_REAL,001,47,
images/fcloud80-20_D1.6_10.tif,1.6,2,,,,,,,,,,,,,0,59,59,131,,,,,,,,,,,1,space,6.916235,2,1.801,,,,,,,,,,,,,,,,,,2019_Sep_18_1902,60.97155737820093,Cloud_Experiment_FR_REAL,001,47,
images/fcloud80-20_D1.9_7.tif,1.9,2,,,,,,,,,,,,,0,60,60,140,,,,,,,,,,,1,space,6.49923829999,2,0.736,,,,,,,,,,,,,,,,,,2019_Sep_18_1902,60.97155737820093,Cloud_Experiment_FR_REAL,001,47,
images/fcloud_D1.4_7.tif,1.4,0,,,,,,,,,,,,,0,61,61,24,,,,,,,,,,,2,space,3.0861384,2,1.084,,,,,,,,,,,,,,,,,,2019_Sep_18_1902,60.97155737820093,Cloud_Experiment_FR_REAL,001,47,
images/fcloud80-20_D1.7_7.tif,1.7,2,,,,,,,,,,,,,0,62,62,132,,,,,,,,,,,2,space,4.3646702,3,2.102,,,,,,,,,,,,,,,,,,2019_Sep_18_1902,60.97155737820093,Cloud_Experiment_FR_REAL,001,47,
images/fcloud65-35_D1.4_7.tif,1.4,1,,,,,,,,,,,,,0,63,63,72,,,,,,,,,,,1,space,6.9335541,3,0.867,,,,,,,,,,,,,,,,,,2019_Sep_18_1902,60.97155737820093,Cloud_Experiment_FR_REAL,001,47,
images/fcloud65-35_D0.8_9.tif,0.8,1,,,,,,,,,,,,,0,64,64,50,,,,,,,,,,,None,None,,None,11.292,,,,,,,,,,,,,,,,,,2019_Sep_18_1902,60.97155737820093,Cloud_Experiment_FR_REAL,001,47,
images/fcloud65-35_D1.3_7.tif,1.3,1,,,,,,,,,,,,,0,65,65,68,,,,,,,,,,,2,space,1.9801801,2,0.886,,,,,,,,,,,,,,,,,,2019_Sep_18_1902,60.97155737820093,Cloud_Experiment_FR_REAL,001,47,
images/fcloud_D1_10.tif,1.0,0,,,,,,,,,,,,,0,66,66,11,,,,,,,,,,,2,space,1.4147836,3,2.4,,,,,,,,,,,,,,,,,,2019_Sep_18_1902,60.97155737820093,Cloud_Experiment_FR_REAL,001,47,
images/fcloud_D0.8_9.tif,0.8,0,,,,,,,,,,,,,0,67,67,2,,,,,,,,,,,2,space,4.4505795,3,0.652,,,,,,,,,,,,,,,,,,2019_Sep_18_1902,60.97155737820093,Cloud_Experiment_FR_REAL,001,47,
images/fcloud80-20_D1.2_8.tif,1.2,2,,,,,,,,,,,,,0,68,68,113,,,,,,,,,,,1,space,5.1155554,1,0.635,,,,,,,,,,,,,,,,,,2019_Sep_18_1902,60.97155737820093,Cloud_Experiment_FR_REAL,001,47,
images/fcloud_D1.1_10.tif,1.1,0,,,,,,,,,,,,,0,69,69,15,,,,,,,,,,,2,space,5.88142209999,3,0.536,,,,,,,,,,,,,,,,,,2019_Sep_18_1902,60.97155737820093,Cloud_Experiment_FR_REAL,001,47,
images/fcloud65-35_D1.9_7.tif,1.9,1,,,,,,,,,,,,,0,70,70,92,,,,,,,,,,,2,space,2.4135411,4,0.836,,,,,,,,,,,,,,,,,,2019_Sep_18_1902,60.97155737820093,Cloud_Experiment_FR_REAL,001,47,
images/fcloud80-20_D1_10.tif,1.0,2,,,,,,,,,,,,,0,71,71,107,,,,,,,,,,,3,space,3.5626643,4,0.668,,,,,,,,,,,,,,,,,,2019_Sep_18_1902,60.97155737820093,Cloud_Experiment_FR_REAL,001,47,
images/fcloud80-20_D0.9_7.tif,0.9,2,,,,,,,,,,,,,0,72,72,100,,,,,,,,,,,2,space,5.85655720001,3,0.737,,,,,,,,,,,,,,,,,,2019_Sep_18_1902,60.97155737820093,Cloud_Experiment_FR_REAL,001,47,
images/fcloud65-35_D1_8.tif,1.0,1,,,,,,,,,,,,,0,73,73,57,,,,,,,,,,,2,space,2.0321846,2,1.702,,,,,,,,,,,,,,,,,,2019_Sep_18_1902,60.97155737820093,Cloud_Experiment_FR_REAL,001,47,
images/fcloud65-35_D1.3_8.tif,1.3,1,,,,,,,,,,,,,0,74,74,69,,,,,,,,,,,3,space,3.1660059,3,0.569,,,,,,,,,,,,,,,,,,2019_Sep_18_1902,60.97155737820093,Cloud_Experiment_FR_REAL,001,47,
images/fcloud65-35_D0.9_8.tif,0.9,1,,,,,,,,,,,,,0,75,75,53,,,,,,,,,,,3,space,2.9975697,3,1.136,,,,,,,,,,,,,,,,,,2019_Sep_18_1902,60.97155737820093,Cloud_Experiment_FR_REAL,001,47,
images/fcloud65-35_D1_10.tif,1.0,1,,,,,,,,,,,,,0,76,76,59,,,,,,,,,,,2,None,,3,1.85,,,,,,,,,,,,,,,,,,2019_Sep_18_1902,60.97155737820093,Cloud_Experiment_FR_REAL,001,47,
images/fcloud65-35_D1.9_9.tif,1.9,1,,,,,,,,,,,,,0,77,77,94,,,,,,,,,,,1,None,,4,0.987,,,,,,,,,,,,,,,,,,2019_Sep_18_1902,60.97155737820093,Cloud_Experiment_FR_REAL,001,47,
images/fcloud80-20_D1.4_7.tif,1.4,2,,,,,,,,,,,,,0,78,78,120,,,,,,,,,,,1,space,3.43088860001,2,0.72,,,,,,,,,,,,,,,,,,2019_Sep_18_1902,60.97155737820093,Cloud_Experiment_FR_REAL,001,47,
images/fcloud80-20_D1.7_9.tif,1.7,2,,,,,,,,,,,,,0,79,79,134,,,,,,,,,,,1,space,6.11410410001,3,1.817,,,,,,,,,,,,,,,,,,2019_Sep_18_1902,60.97155737820093,Cloud_Experiment_FR_REAL,001,47,
images/fcloud80-20_D1_8.tif,1.0,2,,,,,,,,,,,,,0,80,80,105,,,,,,,,,,,2,space,4.57745150001,2,0.438,,,,,,,,,,,,,,,,,,2019_Sep_18_1902,60.97155737820093,Cloud_Experiment_FR_REAL,001,47,
images/fcloud65-35_D1.5_9.tif,1.5,1,,,,,,,,,,,,,0,81,81,78,,,,,,,,,,,2,space,3.2919899,4,0.635,,,,,,,,,,,,,,,,,,2019_Sep_18_1902,60.97155737820093,Cloud_Experiment_FR_REAL,001,47,
images/fcloud80-20_D0.9_10.tif,0.9,2,,,,,,,,,,,,,0,82,82,103,,,,,,,,,,,1,space,6.63025629999,3,4.434,,,,,,,,,,,,,,,,,,2019_Sep_18_1902,60.97155737820093,Cloud_Experiment_FR_REAL,001,47,
images/fcloud80-20_D0.9_8.tif,0.9,2,,,,,,,,,,,,,0,83,83,101,,,,,,,,,,,1,space,5.0887657,2,1.036,,,,,,,,,,,,,,,,,,2019_Sep_18_1902,60.97155737820093,Cloud_Experiment_FR_REAL,001,47,
images/fcloud80-20_D1.1_9.tif,1.1,2,,,,,,,,,,,,,0,84,84,110,,,,,,,,,,,2,space,3.8197952,2,0.837,,,,,,,,,,,,,,,,,,2019_Sep_18_1902,60.97155737820093,Cloud_Experiment_FR_REAL,001,47,
images/fcloud_D1.9_10.tif,1.9,0,,,,,,,,,,,,,0,85,85,47,,,,,,,,,,,3,space,5.35220369999,3,0.653,,,,,,,,,,,,,,,,,,2019_Sep_18_1902,60.97155737820093,Cloud_Experiment_FR_REAL,001,47,
images/fcloud65-35_D1.6_9.tif,1.6,1,,,,,,,,,,,,,0,86,86,82,,,,,,,,,,,2,space,4.7656922,3,0.436,,,,,,,,,,,,,,,,,,2019_Sep_18_1902,60.97155737820093,Cloud_Experiment_FR_REAL,001,47,
images/fcloud_D1.6_9.tif,1.6,0,,,,,,,,,,,,,0,87,87,34,,,,,,,,,,,3,space,3.6174587,4,0.986,,,,,,,,,,,,,,,,,,2019_Sep_18_1902,60.97155737820093,Cloud_Experiment_FR_REAL,001,47,
images/fcloud_D1.2_10.tif,1.2,0,,,,,,,,,,,,,0,88,88,19,,,,,,,,,,,3,space,3.1979894,3,1.121,,,,,,,,,,,,,,,,,,2019_Sep_18_1902,60.97155737820093,Cloud_Experiment_FR_REAL,001,47,
images/fcloud65-35_D1.5_8.tif,1.5,1,,,,,,,,,,,,,0,89,89,77,,,,,,,,,,,2,space,3.10869400001,4,1.069,,,,,,,,,,,,,,,,,,2019_Sep_18_1902,60.97155737820093,Cloud_Experiment_FR_REAL,001,47,
images/fcloud65-35_D1.3_9.tif,1.3,1,,,,,,,,,,,,,0,90,90,70,,,,,,,,,,,1,space,2.15228910001,5,0.886,,,,,,,,,,,,,,,,,,2019_Sep_18_1902,60.97155737820093,Cloud_Experiment_FR_REAL,001,47,
images/fcloud80-20_D1.2_7.tif,1.2,2,,,,,,,,,,,,,0,91,91,112,,,,,,,,,,,3,space,3.40666509999,3,0.519,,,,,,,,,,,,,,,,,,2019_Sep_18_1902,60.97155737820093,Cloud_Experiment_FR_REAL,001,47,
images/fcloud_D1.6_7.tif,1.6,0,,,,,,,,,,,,,0,92,92,32,,,,,,,,,,,4,space,2.2546249,3,0.472,,,,,,,,,,,,,,,,,,2019_Sep_18_1902,60.97155737820093,Cloud_Experiment_FR_REAL,001,47,
images/fcloud80-20_D1.8_7.tif,1.8,2,,,,,,,,,,,,,0,93,93,136,,,,,,,,,,,1,space,5.3261659,2,1.268,,,,,,,,,,,,,,,,,,2019_Sep_18_1902,60.97155737820093,Cloud_Experiment_FR_REAL,001,47,
images/fcloud_D1.9_8.tif,1.9,0,,,,,,,,,,,,,0,94,94,45,,,,,,,,,,,2,space,2.58109620001,3,0.684,,,,,,,,,,,,,,,,,,2019_Sep_18_1902,60.97155737820093,Cloud_Experiment_FR_REAL,001,47,
images/fcloud_D1.6_10.tif,1.6,0,,,,,,,,,,,,,0,95,95,35,,,,,,,,,,,2,space,4.2485612,3,2.402,,,,,,,,,,,,,,,,,,2019_Sep_18_1902,60.97155737820093,Cloud_Experiment_FR_REAL,001,47,
images/fcloud80-20_D1.9_10.tif,1.9,2,,,,,,,,,,,,,0,96,96,143,,,,,,,,,,,2,space,2.1638757,3,0.471,,,,,,,,,,,,,,,,,,2019_Sep_18_1902,60.97155737820093,Cloud_Experiment_FR_REAL,001,47,
images/fcloud65-35_D1.5_10.tif,1.5,1,,,,,,,,,,,,,0,97,97,79,,,,,,,,,,,2,space,6.2404983,1,0.504,,,,,,,,,,,,,,,,,,2019_Sep_18_1902,60.97155737820093,Cloud_Experiment_FR_REAL,001,47,
images/fcloud_D1.3_8.tif,1.3,0,,,,,,,,,,,,,0,98,98,21,,,,,,,,,,,1,space,5.96717789999,1,0.654,,,,,,,,,,,,,,,,,,2019_Sep_18_1902,60.97155737820093,Cloud_Experiment_FR_REAL,001,47,
images/fcloud_D1.6_8.tif,1.6,0,,,,,,,,,,,,,0,99,99,33,,,,,,,,,,,2,space,4.20135800001,2,0.586,,,,,,,,,,,,,,,,,,2019_Sep_18_1902,60.97155737820093,Cloud_Experiment_FR_REAL,001,47,
images/fcloud65-35_D1.6_8.tif,1.6,1,,,,,,,,,,,,,0,100,100,81,,,,,,,,,,,1,space,6.4117744,3,0.901,,,,,,,,,,,,,,,,,,2019_Sep_18_1902,60.97155737820093,Cloud_Experiment_FR_REAL,001,47,
images/fcloud_D0.9_7.tif,0.9,0,,,,,,,,,,,,,0,101,101,4,,,,,,,,,,,2,space,3.5475476,4,0.851,,,,,,,,,,,,,,,,,,2019_Sep_18_1902,60.97155737820093,Cloud_Experiment_FR_REAL,001,47,
images/fcloud_D1.9_9.tif,1.9,0,,,,,,,,,,,,,0,102,102,46,,,,,,,,,,,2,space,6.7119962,2,2.334,,,,,,,,,,,,,,,,,,2019_Sep_18_1902,60.97155737820093,Cloud_Experiment_FR_REAL,001,47,
images/fcloud80-20_D1.5_8.tif,1.5,2,,,,,,,,,,,,,0,103,103,125,,,,,,,,,,,1,space,4.8303399,5,0.804,,,,,,,,,,,,,,,,,,2019_Sep_18_1902,60.97155737820093,Cloud_Experiment_FR_REAL,001,47,
images/fcloud80-20_D0.8_8.tif,0.8,2,,,,,,,,,,,,,0,104,104,97,,,,,,,,,,,1,space,2.419591,1,0.469,,,,,,,,,,,,,,,,,,2019_Sep_18_1902,60.97155737820093,Cloud_Experiment_FR_REAL,001,47,
images/fcloud80-20_D1.7_10.tif,1.7,2,,,,,,,,,,,,,0,105,105,135,,,,,,,,,,,2,space,5.09840989999,3,0.752,,,,,,,,,,,,,,,,,,2019_Sep_18_1902,60.97155737820093,Cloud_Experiment_FR_REAL,001,47,
images/fcloud_D1.3_10.tif,1.3,0,,,,,,,,,,,,,0,106,106,23,,,,,,,,,,,3,space,2.6011325,3,0.919,,,,,,,,,,,,,,,,,,2019_Sep_18_1902,60.97155737820093,Cloud_Experiment_FR_REAL,001,47,
images/fcloud_D1.2_8.tif,1.2,0,,,,,,,,,,,,,0,107,107,17,,,,,,,,,,,2,space,4.8276878,4,0.47,,,,,,,,,,,,,,,,,,2019_Sep_18_1902,60.97155737820093,Cloud_Experiment_FR_REAL,001,47,
images/fcloud80-20_D1_9.tif,1.0,2,,,,,,,,,,,,,0,108,108,106,,,,,,,,,,,2,space,2.6845097,3,1.069,,,,,,,,,,,,,,,,,,2019_Sep_18_1902,60.97155737820093,Cloud_Experiment_FR_REAL,001,47,
images/fcloud65-35_D1.1_8.tif,1.1,1,,,,,,,,,,,,,0,109,109,61,,,,,,,,,,,2,space,5.492157,4,0.502,,,,,,,,,,,,,,,,,,2019_Sep_18_1902,60.97155737820093,Cloud_Experiment_FR_REAL,001,47,
images/fcloud_D1.3_9.tif,1.3,0,,,,,,,,,,,,,0,110,110,22,,,,,,,,,,,1,space,6.24792000001,2,0.869,,,,,,,,,,,,,,,,,,2019_Sep_18_1902,60.97155737820093,Cloud_Experiment_FR_REAL,001,47,
images/fcloud65-35_D1.8_8.tif,1.8,1,,,,,,,,,,,,,0,111,111,89,,,,,,,,,,,1,space,6.1814876,2,0.62,,,,,,,,,,,,,,,,,,2019_Sep_18_1902,60.97155737820093,Cloud_Experiment_FR_REAL,001,47,
images/fcloud_D1.5_8.tif,1.5,0,,,,,,,,,,,,,0,112,112,29,,,,,,,,,,,3,space,2.6906476,2,1.568,,,,,,,,,,,,,,,,,,2019_Sep_18_1902,60.97155737820093,Cloud_Experiment_FR_REAL,001,47,
images/fcloud_D1.9_7.tif,1.9,0,,,,,,,,,,,,,0,113,113,44,,,,,,,,,,,1,space,6.0296412,2,0.536,,,,,,,,,,,,,,,,,,2019_Sep_18_1902,60.97155737820093,Cloud_Experiment_FR_REAL,001,47,
images/fcloud80-20_D0.8_9.tif,0.8,2,,,,,,,,,,,,,0,114,114,98,,,,,,,,,,,1,space,2.901106,1,0.587,,,,,,,,,,,,,,,,,,2019_Sep_18_1902,60.97155737820093,Cloud_Experiment_FR_REAL,001,47,
images/fcloud_D1_9.tif,1.0,0,,,,,,,,,,,,,0,115,115,10,,,,,,,,,,,1,space,2.10907960001,3,1.018,,,,,,,,,,,,,,,,,,2019_Sep_18_1902,60.97155737820093,Cloud_Experiment_FR_REAL,001,47,
images/fcloud65-35_D1.6_7.tif,1.6,1,,,,,,,,,,,,,0,116,116,80,,,,,,,,,,,2,space,3.06540070001,2,1.053,,,,,,,,,,,,,,,,,,2019_Sep_18_1902,60.97155737820093,Cloud_Experiment_FR_REAL,001,47,
images/fcloud_D1.8_8.tif,1.8,0,,,,,,,,,,,,,0,117,117,41,,,,,,,,,,,5,space,2.821386,4,2.169,,,,,,,,,,,,,,,,,,2019_Sep_18_1902,60.97155737820093,Cloud_Experiment_FR_REAL,001,47,
images/fcloud65-35_D1.4_8.tif,1.4,1,,,,,,,,,,,,,0,118,118,73,,,,,,,,,,,2,space,4.99169909999,2,3.3,,,,,,,,,,,,,,,,,,2019_Sep_18_1902,60.97155737820093,Cloud_Experiment_FR_REAL,001,47,
images/fcloud_D1.7_10.tif,1.7,0,,,,,,,,,,,,,0,119,119,39,,,,,,,,,,,2,space,4.257189,1,0.703,,,,,,,,,,,,,,,,,,2019_Sep_18_1902,60.97155737820093,Cloud_Experiment_FR_REAL,001,47,
images/fcloud80-20_D1.1_10.tif,1.1,2,,,,,,,,,,,,,0,120,120,111,,,,,,,,,,,2,space,4.0443319,2,0.419,,,,,,,,,,,,,,,,,,2019_Sep_18_1902,60.97155737820093,Cloud_Experiment_FR_REAL,001,47,
images/fcloud65-35_D1.1_10.tif,1.1,1,,,,,,,,,,,,,0,121,121,63,,,,,,,,,,,3,space,3.9325241,3,0.502,,,,,,,,,,,,,,,,,,2019_Sep_18_1902,60.97155737820093,Cloud_Experiment_FR_REAL,001,47,
images/fcloud80-20_D1.2_10.tif,1.2,2,,,,,,,,,,,,,0,122,122,115,,,,,,,,,,,2,space,1.96336369999,4,0.719,,,,,,,,,,,,,,,,,,2019_Sep_18_1902,60.97155737820093,Cloud_Experiment_FR_REAL,001,47,
images/fcloud80-20_D1.2_9.tif,1.2,2,,,,,,,,,,,,,0,123,123,114,,,,,,,,,,,1,space,4.20201189999,4,1.12,,,,,,,,,,,,,,,,,,2019_Sep_18_1902,60.97155737820093,Cloud_Experiment_FR_REAL,001,47,
images/fcloud80-20_D1.4_10.tif,1.4,2,,,,,,,,,,,,,0,124,124,123,,,,,,,,,,,2,space,1.35796740001,3,0.737,,,,,,,,,,,,,,,,,,2019_Sep_18_1902,60.97155737820093,Cloud_Experiment_FR_REAL,001,47,
images/fcloud_D1.8_9.tif,1.8,0,,,,,,,,,,,,,0,125,125,42,,,,,,,,,,,3,space,2.74078250001,2,0.886,,,,,,,,,,,,,,,,,,2019_Sep_18_1902,60.97155737820093,Cloud_Experiment_FR_REAL,001,47,
images/fcloud_D1_8.tif,1.0,0,,,,,,,,,,,,,0,126,126,9,,,,,,,,,,,3,None,,4,0.918,,,,,,,,,,,,,,,,,,2019_Sep_18_1902,60.97155737820093,Cloud_Experiment_FR_REAL,001,47,
images/fcloud65-35_D1.7_9.tif,1.7,1,,,,,,,,,,,,,0,127,127,86,,,,,,,,,,,1,None,,2,0.503,,,,,,,,,,,,,,,,,,2019_Sep_18_1902,60.97155737820093,Cloud_Experiment_FR_REAL,001,47,
images/fcloud_D1.4_9.tif,1.4,0,,,,,,,,,,,,,0,128,128,26,,,,,,,,,,,2,space,2.4146113,3,2.418,,,,,,,,,,,,,,,,,,2019_Sep_18_1902,60.97155737820093,Cloud_Experiment_FR_REAL,001,47,
images/fcloud_D0.8_7.tif,0.8,0,,,,,,,,,,,,,0,129,129,0,,,,,,,,,,,2,space,3.0345911,3,0.718,,,,,,,,,,,,,,,,,,2019_Sep_18_1902,60.97155737820093,Cloud_Experiment_FR_REAL,001,47,
images/fcloud65-35_D1.6_10.tif,1.6,1,,,,,,,,,,,,,0,130,130,83,,,,,,,,,,,2,space,3.6591679,2,1.203,,,,,,,,,,,,,,,,,,2019_Sep_18_1902,60.97155737820093,Cloud_Experiment_FR_REAL,001,47,
images/fcloud80-20_D1.4_9.tif,1.4,2,,,,,,,,,,,,,0,131,131,122,,,,,,,,,,,1,space,5.92935959999,2,3.4,,,,,,,,,,,,,,,,,,2019_Sep_18_1902,60.97155737820093,Cloud_Experiment_FR_REAL,001,47,
images/fcloud_D1.8_7.tif,1.8,0,,,,,,,,,,,,,0,132,132,40,,,,,,,,,,,1,space,6.43395169999,2,0.587,,,,,,,,,,,,,,,,,,2019_Sep_18_1902,60.97155737820093,Cloud_Experiment_FR_REAL,001,47,
images/fcloud_D1.4_10.tif,1.4,0,,,,,,,,,,,,,0,133,133,27,,,,,,,,,,,2,space,4.40440319999,2,0.537,,,,,,,,,,,,,,,,,,2019_Sep_18_1902,60.97155737820093,Cloud_Experiment_FR_REAL,001,47,
images/fcloud65-35_D1.3_10.tif,1.3,1,,,,,,,,,,,,,0,134,134,71,,,,,,,,,,,1,space,1.7499907,2,0.537,,,,,,,,,,,,,,,,,,2019_Sep_18_1902,60.97155737820093,Cloud_Experiment_FR_REAL,001,47,
images/fcloud65-35_D0.8_8.tif,0.8,1,,,,,,,,,,,,,0,135,135,49,,,,,,,,,,,2,space,3.5147632,2,0.636,,,,,,,,,,,,,,,,,,2019_Sep_18_1902,60.97155737820093,Cloud_Experiment_FR_REAL,001,47,
images/fcloud65-35_D1.1_9.tif,1.1,1,,,,,,,,,,,,,0,136,136,62,,,,,,,,,,,2,space,5.8357421,4,0.47,,,,,,,,,,,,,,,,,,2019_Sep_18_1902,60.97155737820093,Cloud_Experiment_FR_REAL,001,47,
images/fcloud80-20_D1.9_9.tif,1.9,2,,,,,,,,,,,,,0,137,137,142,,,,,,,,,,,2,space,4.8755372,1,0.419,,,,,,,,,,,,,,,,,,2019_Sep_18_1902,60.97155737820093,Cloud_Experiment_FR_REAL,001,47,
images/fcloud65-35_D1.5_7.tif,1.5,1,,,,,,,,,,,,,0,138,138,76,,,,,,,,,,,2,space,1.4628446,2,0.62,,,,,,,,,,,,,,,,,,2019_Sep_18_1902,60.97155737820093,Cloud_Experiment_FR_REAL,001,47,
images/fcloud80-20_D1.7_8.tif,1.7,2,,,,,,,,,,,,,0,139,139,133,,,,,,,,,,,2,space,4.2627963,3,0.486,,,,,,,,,,,,,,,,,,2019_Sep_18_1902,60.97155737820093,Cloud_Experiment_FR_REAL,001,47,
images/fcloud_D0.9_9.tif,0.9,0,,,,,,,,,,,,,0,140,140,6,,,,,,,,,,,3,space,3.2858976,3,0.569,,,,,,,,,,,,,,,,,,2019_Sep_18_1902,60.97155737820093,Cloud_Experiment_FR_REAL,001,47,
images/fcloud_D1.5_10.tif,1.5,0,,,,,,,,,,,,,0,141,141,31,,,,,,,,,,,2,space,5.1121424,3,3.784,,,,,,,,,,,,,,,,,,2019_Sep_18_1902,60.97155737820093,Cloud_Experiment_FR_REAL,001,47,
images/fcloud65-35_D1.7_8.tif,1.7,1,,,,,,,,,,,,,0,142,142,85,,,,,,,,,,,2,space,5.82459769999,2,3.367,,,,,,,,,,,,,,,,,,2019_Sep_18_1902,60.97155737820093,Cloud_Experiment_FR_REAL,001,47,
images/fcloud65-35_D0.8_7.tif,0.8,1,,,,,,,,,,,,,0,143,143,48,,,,,,,,,,,2,space,5.2518046,4,1.018,,,,,,,,,,,,,,,,,,2019_Sep_18_1902,60.97155737820093,Cloud_Experiment_FR_REAL,001,47,
,,,,,,,,,,,,,,,,,,,,,,,,,2,6.739,,,,,,,,,,,,,,,,,,,,,,,,,2019_Sep_18_1902,60.97155737820093,Cloud_Experiment_FR_REAL,001,47,
,,,,,,,,,,,,,,,,,,,,,,,,,,,,,,,,,,5,,,,,,,,,,,,,,,,,2019_Sep_18_1902,60.97155737820093,Cloud_Experiment_FR_REAL,001,47,
,,,,,,,,,,,,,,,,,,,,,,,,,,,,,,,,,,,4,,,,,,,,,,,,,,,,2019_Sep_18_1902,60.97155737820093,Cloud_Experiment_FR_REAL,001,47,
,,,,,,,,,,,,,,,,,,,,,,,,,,,,,,,,,,,,4,,,,,,,,,,,,,,,2019_Sep_18_1902,60.97155737820093,Cloud_Experiment_FR_REAL,001,47,
,,,,,,,,,,,,,,,,,,,,,,,,,,,,,,,,,,,,,4,,,,,,,,,,,,,,2019_Sep_18_1902,60.97155737820093,Cloud_Experiment_FR_REAL,001,47,
,,,,,,,,,,,,,,,,,,,,,,,,,,,,,,,,,,,,,,4,,,,,,,,,,,,,2019_Sep_18_1902,60.97155737820093,Cloud_Experiment_FR_REAL,001,47,
,,,,,,,,,,,,,,,,,,,,,,,,,,,,,,,,,,,,,,,4,,,,,,,,,,,,2019_Sep_18_1902,60.97155737820093,Cloud_Experiment_FR_REAL,001,47,
,,,,,,,,,,,,,,,,,,,,,,,,,,,,,,,,,,,,,,,,6,,,,,,,,,,,2019_Sep_18_1902,60.97155737820093,Cloud_Experiment_FR_REAL,001,47,
,,,,,,,,,,,,,,,,,,,,,,,,,,,,,,,,,,,,,,,,,7,,,,,,,,,,2019_Sep_18_1902,60.97155737820093,Cloud_Experiment_FR_REAL,001,47,
,,,,,,,,,,,,,,,,,,,,,,,,,,,,,,,,,,,,,,,,,,6,,,,,,,,,2019_Sep_18_1902,60.97155737820093,Cloud_Experiment_FR_REAL,001,47,
,,,,,,,,,,,,,,,,,,,,,,,,,,,,,,,,,,,,,,,,,,,4,,,,,,,,2019_Sep_18_1902,60.97155737820093,Cloud_Experiment_FR_REAL,001,47,
,,,,,,,,,,,,,,,,,,,,,,,,,,,,,,,,,,,,,,,,,,,,,,,,,,6,2019_Sep_18_1902,60.97155737820093,Cloud_Experiment_FR_REAL,001,47,
