ImageFile,FD,Contrast,trials_4.thisRepN,trials_4.thisTrialN,trials_4.thisN,trials_4.thisIndex,trials.thisRepN,trials.thisTrialN,trials.thisN,trials.thisIndex,trials_2.thisRepN,trials_2.thisTrialN,trials_2.thisN,trials_2.thisIndex,trials_3.thisRepN,trials_3.thisTrialN,trials_3.thisN,trials_3.thisIndex,end_instructions.keys,end_instructions.rt,key_resp_4.keys,key_resp_4.rt,key_resp_6.keys,key_resp_6.rt,Fatigue.response,Fatigue.rt,key_resp_5.keys,key_resp_5.rt,n_objets.response,reaction_time.keys,reaction_time.rt,vividness.response,vividness.rt,Flow01.response,Flow02.response,Flow03.response,Flow04.response,Flow05.response,Flow06.response,Flow07.response,Flow08.response,Flow09.response,Flow10.response,key_resp_2.keys,key_resp_2.rt,key_resp_8.keys,key_resp_8.rt,key_resp_3.keys,key_resp_3.rt,Redondance_question.response,date,frameRate,expName,session,participant,
,,,,,,,,,,,,,,,,,,,space,14.6465171,,,,,,,,,,,,,,,,,,,,,,,,,,,,,,,2019_Sep_19_1637,59.76114664917558,Cloud_Experiment_FR_REAL,001,48,
,,,,,,,,,,,,,,,,,,,,,space,90.1560308,,,,,,,,,,,,,,,,,,,,,,,,,,,,,2019_Sep_19_1637,59.76114664917558,Cloud_Experiment_FR_REAL,001,48,
,,,,,,,,,,,,,,,,,,,,,,,space,52.8725591,,,,,,,,,,,,,,,,,,,,,,,,,,,2019_Sep_19_1637,59.76114664917558,Cloud_Experiment_FR_REAL,001,48,
,,,,,,,,,,,,,,,,,,,,,,,,,7,8.773,,,,,,,,,,,,,,,,,,,,,,,,,2019_Sep_19_1637,59.76114664917558,Cloud_Experiment_FR_REAL,001,48,
,,,,,,,,,,,,,,,,,,,,,,,,,,,space,4.6981535,,,,,,,,,,,,,,,,,,,,,,,2019_Sep_19_1637,59.76114664917558,Cloud_Experiment_FR_REAL,001,48,
pratique/fcloud80-20_D1_30,1.0,2,0,0,0,9,,,,,,,,,,,,,,,,,,,,,,,1,space,6.2141072,2,15.272,,,,,,,,,,,,,,,,,,2019_Sep_19_1637,59.76114664917558,Cloud_Experiment_FR_REAL,001,48,
pratique/fcloud80-20_D1.8_30,1.8,2,0,1,1,4,,,,,,,,,,,,,,,,,,,,,,,1,None,,1,0.986,,,,,,,,,,,,,,,,,,2019_Sep_19_1637,59.76114664917558,Cloud_Experiment_FR_REAL,001,48,
pratique/fcloud65-35_D1.6_30,1.6,1,0,2,2,2,,,,,,,,,,,,,,,,,,,,,,,1,space,5.7754896,2,4.383,,,,,,,,,,,,,,,,,,2019_Sep_19_1637,59.76114664917558,Cloud_Experiment_FR_REAL,001,48,
pratique/fcloud_D0.8_30,0.8,0,0,3,3,0,,,,,,,,,,,,,,,,,,,,,,,1,space,1.7487401,5,1.684,,,,,,,,,,,,,,,,,,2019_Sep_19_1637,59.76114664917558,Cloud_Experiment_FR_REAL,001,48,
pratique/fcloud80-20_D1.5_30,1.5,2,0,4,4,8,,,,,,,,,,,,,,,,,,,,,,,None,None,,None,13.355,,,,,,,,,,,,,,,,,,2019_Sep_19_1637,59.76114664917558,Cloud_Experiment_FR_REAL,001,48,
pratique/fcloud_D1.6_28,1.6,0,0,5,5,5,,,,,,,,,,,,,,,,,,,,,,,1,space,4.8560303,3,2.7,,,,,,,,,,,,,,,,,,2019_Sep_19_1637,59.76114664917558,Cloud_Experiment_FR_REAL,001,48,
pratique/fcloud_D1.4_30,1.4,0,0,6,6,1,,,,,,,,,,,,,,,,,,,,,,,None,space,6.8982034,None,13.773,,,,,,,,,,,,,,,,,,2019_Sep_19_1637,59.76114664917558,Cloud_Experiment_FR_REAL,001,48,
pratique/fcloud65-35_D1.9_29,1.9,1,0,7,7,7,,,,,,,,,,,,,,,,,,,,,,,None,None,,None,23.564,,,,,,,,,,,,,,,,,,2019_Sep_19_1637,59.76114664917558,Cloud_Experiment_FR_REAL,001,48,
pratique/fcloud65-35_D1.3_30,1.3,1,0,8,8,6,,,,,,,,,,,,,,,,,,,,,,,None,None,,None,33.439,,,,,,,,,,,,,,,,,,2019_Sep_19_1637,59.76114664917558,Cloud_Experiment_FR_REAL,001,48,
pratique/fcloud65-35_D1.2_30,1.2,1,0,9,9,3,,,,,,,,,,,,,,,,,,,,,,,1,space,12.5973305,1,4.4,,,,,,,,,,,,,,,,,,2019_Sep_19_1637,59.76114664917558,Cloud_Experiment_FR_REAL,001,48,
,,,,,,,,,,,,,,,,,,,,,,,,,,,,,,,,,,3,,,,,,,,,,,,,,,,,2019_Sep_19_1637,59.76114664917558,Cloud_Experiment_FR_REAL,001,48,
,,,,,,,,,,,,,,,,,,,,,,,,,,,,,,,,,,,4,,,,,,,,,,,,,,,,2019_Sep_19_1637,59.76114664917558,Cloud_Experiment_FR_REAL,001,48,
,,,,,,,,,,,,,,,,,,,,,,,,,,,,,,,,,,,,2,,,,,,,,,,,,,,,2019_Sep_19_1637,59.76114664917558,Cloud_Experiment_FR_REAL,001,48,
,,,,,,,,,,,,,,,,,,,,,,,,,,,,,,,,,,,,,6,,,,,,,,,,,,,,2019_Sep_19_1637,59.76114664917558,Cloud_Experiment_FR_REAL,001,48,
,,,,,,,,,,,,,,,,,,,,,,,,,,,,,,,,,,,,,,4,,,,,,,,,,,,,2019_Sep_19_1637,59.76114664917558,Cloud_Experiment_FR_REAL,001,48,
,,,,,,,,,,,,,,,,,,,,,,,,,,,,,,,,,,,,,,,3,,,,,,,,,,,,2019_Sep_19_1637,59.76114664917558,Cloud_Experiment_FR_REAL,001,48,
,,,,,,,,,,,,,,,,,,,,,,,,,,,,,,,,,,,,,,,,3,,,,,,,,,,,2019_Sep_19_1637,59.76114664917558,Cloud_Experiment_FR_REAL,001,48,
,,,,,,,,,,,,,,,,,,,,,,,,,,,,,,,,,,,,,,,,,5,,,,,,,,,,2019_Sep_19_1637,59.76114664917558,Cloud_Experiment_FR_REAL,001,48,
,,,,,,,,,,,,,,,,,,,,,,,,,,,,,,,,,,,,,,,,,,5,,,,,,,,,2019_Sep_19_1637,59.76114664917558,Cloud_Experiment_FR_REAL,001,48,
,,,,,,,,,,,,,,,,,,,,,,,,,,,,,,,,,,,,,,,,,,,2,,,,,,,,2019_Sep_19_1637,59.76114664917558,Cloud_Experiment_FR_REAL,001,48,
,,,,,,,,,,,,,,,,,,,,,,,,,,,,,,,,,,,,,,,,,,,,space,1.601145,,,,,,2019_Sep_19_1637,59.76114664917558,Cloud_Experiment_FR_REAL,001,48,
images/fcloud80-20_D1.3_3.tif,1.3,2,,,,,0,0,0,89,,,,,,,,,,,,,,,,,,,1,space,4.0744302,2,3.917,,,,,,,,,,,,,,,,,,2019_Sep_19_1637,59.76114664917558,Cloud_Experiment_FR_REAL,001,48,
images/fcloud65-35_D1.9_3.tif,1.9,1,,,,,0,1,1,71,,,,,,,,,,,,,,,,,,,None,None,,None,13.123,,,,,,,,,,,,,,,,,,2019_Sep_19_1637,59.76114664917558,Cloud_Experiment_FR_REAL,001,48,
images/fcloud80-20_D1.9_3.tif,1.9,2,,,,,0,2,2,107,,,,,,,,,,,,,,,,,,,None,None,,None,21.966,,,,,,,,,,,,,,,,,,2019_Sep_19_1637,59.76114664917558,Cloud_Experiment_FR_REAL,001,48,
images/fcloud_D1_1.tif,1.0,0,,,,,0,3,3,6,,,,,,,,,,,,,,,,,,,1,None,,1,1.551,,,,,,,,,,,,,,,,,,2019_Sep_19_1637,59.76114664917558,Cloud_Experiment_FR_REAL,001,48,
images/fcloud_D1.3_1.tif,1.3,0,,,,,0,4,4,15,,,,,,,,,,,,,,,,,,,None,None,,None,16.021,,,,,,,,,,,,,,,,,,2019_Sep_19_1637,59.76114664917558,Cloud_Experiment_FR_REAL,001,48,
images/fcloud80-20_D1.4_3.tif,1.4,2,,,,,0,5,5,92,,,,,,,,,,,,,,,,,,,None,None,,None,25.863,,,,,,,,,,,,,,,,,,2019_Sep_19_1637,59.76114664917558,Cloud_Experiment_FR_REAL,001,48,
images/fcloud80-20_D1.2_3.tif,1.2,2,,,,,0,6,6,86,,,,,,,,,,,,,,,,,,,1,space,3.693275,3,3.0,,,,,,,,,,,,,,,,,,2019_Sep_19_1637,59.76114664917558,Cloud_Experiment_FR_REAL,001,48,
images/fcloud80-20_D1.3_1.tif,1.3,2,,,,,0,7,7,87,,,,,,,,,,,,,,,,,,,None,None,,None,12.057,,,,,,,,,,,,,,,,,,2019_Sep_19_1637,59.76114664917558,Cloud_Experiment_FR_REAL,001,48,
images/fcloud65-35_D1.2_2.tif,1.2,1,,,,,0,8,8,49,,,,,,,,,,,,,,,,,,,None,None,,None,22.716,,,,,,,,,,,,,,,,,,2019_Sep_19_1637,59.76114664917558,Cloud_Experiment_FR_REAL,001,48,
images/fcloud65-35_D1.3_3.tif,1.3,1,,,,,0,9,9,53,,,,,,,,,,,,,,,,,,,None,None,,None,32.49,,,,,,,,,,,,,,,,,,2019_Sep_19_1637,59.76114664917558,Cloud_Experiment_FR_REAL,001,48,
images/fcloud80-20_D1.7_3.tif,1.7,2,,,,,0,10,10,101,,,,,,,,,,,,,,,,,,,None,None,,None,43.013,,,,,,,,,,,,,,,,,,2019_Sep_19_1637,59.76114664917558,Cloud_Experiment_FR_REAL,001,48,
images/fcloud65-35_D0.8_2.tif,0.8,1,,,,,0,11,11,37,,,,,,,,,,,,,,,,,,,1,space,6.7781713,4,2.185,,,,,,,,,,,,,,,,,,2019_Sep_19_1637,59.76114664917558,Cloud_Experiment_FR_REAL,001,48,
images/fcloud_D1.1_1.tif,1.1,0,,,,,0,12,12,9,,,,,,,,,,,,,,,,,,,1,space,3.927548,4,1.601,,,,,,,,,,,,,,,,,,2019_Sep_19_1637,59.76114664917558,Cloud_Experiment_FR_REAL,001,48,
images/fcloud_D0.8_1.tif,0.8,0,,,,,0,13,13,0,,,,,,,,,,,,,,,,,,,2,space,2.1718388,3,2.434,,,,,,,,,,,,,,,,,,2019_Sep_19_1637,59.76114664917558,Cloud_Experiment_FR_REAL,001,48,
images/fcloud65-35_D1.9_1.tif,1.9,1,,,,,0,14,14,69,,,,,,,,,,,,,,,,,,,None,None,,None,13.538,,,,,,,,,,,,,,,,,,2019_Sep_19_1637,59.76114664917558,Cloud_Experiment_FR_REAL,001,48,
images/fcloud_D0.9_1.tif,0.9,0,,,,,0,15,15,3,,,,,,,,,,,,,,,,,,,1,space,3.1033051,5,1.185,,,,,,,,,,,,,,,,,,2019_Sep_19_1637,59.76114664917558,Cloud_Experiment_FR_REAL,001,48,
images/fcloud65-35_D1.1_3.tif,1.1,1,,,,,0,16,16,47,,,,,,,,,,,,,,,,,,,1,space,6.8146309,3,1.069,,,,,,,,,,,,,,,,,,2019_Sep_19_1637,59.76114664917558,Cloud_Experiment_FR_REAL,001,48,
images/fcloud_D1_2.tif,1.0,0,,,,,0,17,17,7,,,,,,,,,,,,,,,,,,,1,space,6.2295019,2,1.169,,,,,,,,,,,,,,,,,,2019_Sep_19_1637,59.76114664917558,Cloud_Experiment_FR_REAL,001,48,
images/fcloud_D0.9_2.tif,0.9,0,,,,,0,18,18,4,,,,,,,,,,,,,,,,,,,1,space,5.9632287,3,1.269,,,,,,,,,,,,,,,,,,2019_Sep_19_1637,59.76114664917558,Cloud_Experiment_FR_REAL,001,48,
images/fcloud_D1.6_3.tif,1.6,0,,,,,0,19,19,26,,,,,,,,,,,,,,,,,,,None,None,,None,10.576,,,,,,,,,,,,,,,,,,2019_Sep_19_1637,59.76114664917558,Cloud_Experiment_FR_REAL,001,48,
images/fcloud_D1.5_2.tif,1.5,0,,,,,0,20,20,22,,,,,,,,,,,,,,,,,,,None,None,,None,20.483,,,,,,,,,,,,,,,,,,2019_Sep_19_1637,59.76114664917558,Cloud_Experiment_FR_REAL,001,48,
images/fcloud80-20_D1.3_2.tif,1.3,2,,,,,0,21,21,88,,,,,,,,,,,,,,,,,,,None,None,,None,29.659,,,,,,,,,,,,,,,,,,2019_Sep_19_1637,59.76114664917558,Cloud_Experiment_FR_REAL,001,48,
images/fcloud65-35_D1.2_3.tif,1.2,1,,,,,0,22,22,50,,,,,,,,,,,,,,,,,,,1,space,6.8526423,1,0.652,,,,,,,,,,,,,,,,,,2019_Sep_19_1637,59.76114664917558,Cloud_Experiment_FR_REAL,001,48,
images/fcloud80-20_D1.1_2.tif,1.1,2,,,,,0,23,23,82,,,,,,,,,,,,,,,,,,,1,None,,1,0.619,,,,,,,,,,,,,,,,,,2019_Sep_19_1637,59.76114664917558,Cloud_Experiment_FR_REAL,001,48,
images/fcloud65-35_D1.1_2.tif,1.1,1,,,,,0,24,24,46,,,,,,,,,,,,,,,,,,,1,space,7.0790397,1,0.986,,,,,,,,,,,,,,,,,,2019_Sep_19_1637,59.76114664917558,Cloud_Experiment_FR_REAL,001,48,
images/fcloud65-35_D1.1_1.tif,1.1,1,,,,,0,25,25,45,,,,,,,,,,,,,,,,,,,None,None,,None,9.892,,,,,,,,,,,,,,,,,,2019_Sep_19_1637,59.76114664917558,Cloud_Experiment_FR_REAL,001,48,
images/fcloud80-20_D0.8_1.tif,0.8,2,,,,,0,26,26,72,,,,,,,,,,,,,,,,,,,1,space,3.9982781,2,1.335,,,,,,,,,,,,,,,,,,2019_Sep_19_1637,59.76114664917558,Cloud_Experiment_FR_REAL,001,48,
images/fcloud65-35_D1.7_3.tif,1.7,1,,,,,0,27,27,65,,,,,,,,,,,,,,,,,,,None,None,,None,10.659,,,,,,,,,,,,,,,,,,2019_Sep_19_1637,59.76114664917558,Cloud_Experiment_FR_REAL,001,48,
images/fcloud65-35_D1.4_3.tif,1.4,1,,,,,0,28,28,56,,,,,,,,,,,,,,,,,,,None,None,,None,19.7,,,,,,,,,,,,,,,,,,2019_Sep_19_1637,59.76114664917558,Cloud_Experiment_FR_REAL,001,48,
images/fcloud80-20_D1.6_3.tif,1.6,2,,,,,0,29,29,98,,,,,,,,,,,,,,,,,,,None,None,,None,29.842,,,,,,,,,,,,,,,,,,2019_Sep_19_1637,59.76114664917558,Cloud_Experiment_FR_REAL,001,48,
images/fcloud80-20_D1_1.tif,1.0,2,,,,,0,30,30,78,,,,,,,,,,,,,,,,,,,1,None,,1,0.72,,,,,,,,,,,,,,,,,,2019_Sep_19_1637,59.76114664917558,Cloud_Experiment_FR_REAL,001,48,
images/fcloud_D1.9_1.tif,1.9,0,,,,,0,31,31,33,,,,,,,,,,,,,,,,,,,None,None,,None,10.159,,,,,,,,,,,,,,,,,,2019_Sep_19_1637,59.76114664917558,Cloud_Experiment_FR_REAL,001,48,
images/fcloud65-35_D1.8_3.tif,1.8,1,,,,,0,32,32,68,,,,,,,,,,,,,,,,,,,None,None,,None,18.702,,,,,,,,,,,,,,,,,,2019_Sep_19_1637,59.76114664917558,Cloud_Experiment_FR_REAL,001,48,
images/fcloud80-20_D1.1_1.tif,1.1,2,,,,,0,33,33,81,,,,,,,,,,,,,,,,,,,None,None,,None,27.179,,,,,,,,,,,,,,,,,,2019_Sep_19_1637,59.76114664917558,Cloud_Experiment_FR_REAL,001,48,
images/fcloud_D1.5_3.tif,1.5,0,,,,,0,34,34,23,,,,,,,,,,,,,,,,,,,1,space,2.4887319,4,1.835,,,,,,,,,,,,,,,,,,2019_Sep_19_1637,59.76114664917558,Cloud_Experiment_FR_REAL,001,48,
images/fcloud_D1.2_3.tif,1.2,0,,,,,0,35,35,14,,,,,,,,,,,,,,,,,,,None,None,,None,10.876,,,,,,,,,,,,,,,,,,2019_Sep_19_1637,59.76114664917558,Cloud_Experiment_FR_REAL,001,48,
images/fcloud65-35_D1.8_2.tif,1.8,1,,,,,0,36,36,67,,,,,,,,,,,,,,,,,,,None,None,,None,19.568,,,,,,,,,,,,,,,,,,2019_Sep_19_1637,59.76114664917558,Cloud_Experiment_FR_REAL,001,48,
images/fcloud65-35_D1.3_1.tif,1.3,1,,,,,0,37,37,51,,,,,,,,,,,,,,,,,,,None,None,,None,28.143,,,,,,,,,,,,,,,,,,2019_Sep_19_1637,59.76114664917558,Cloud_Experiment_FR_REAL,001,48,
images/fcloud_D1.3_3.tif,1.3,0,,,,,0,38,38,17,,,,,,,,,,,,,,,,,,,3,space,4.4731014,4,1.767,,,,,,,,,,,,,,,,,,2019_Sep_19_1637,59.76114664917558,Cloud_Experiment_FR_REAL,001,48,
images/fcloud80-20_D0.9_2.tif,0.9,2,,,,,0,39,39,76,,,,,,,,,,,,,,,,,,,None,None,,None,10.375,,,,,,,,,,,,,,,,,,2019_Sep_19_1637,59.76114664917558,Cloud_Experiment_FR_REAL,001,48,
images/fcloud80-20_D1_2.tif,1.0,2,,,,,0,40,40,79,,,,,,,,,,,,,,,,,,,None,None,,None,18.736,,,,,,,,,,,,,,,,,,2019_Sep_19_1637,59.76114664917558,Cloud_Experiment_FR_REAL,001,48,
images/fcloud_D1.6_2.tif,1.6,0,,,,,0,41,41,25,,,,,,,,,,,,,,,,,,,None,None,,None,27.528,,,,,,,,,,,,,,,,,,2019_Sep_19_1637,59.76114664917558,Cloud_Experiment_FR_REAL,001,48,
images/fcloud80-20_D1.5_3.tif,1.5,2,,,,,0,42,42,95,,,,,,,,,,,,,,,,,,,None,None,,None,36.07,,,,,,,,,,,,,,,,,,2019_Sep_19_1637,59.76114664917558,Cloud_Experiment_FR_REAL,001,48,
images/fcloud65-35_D1.5_1.tif,1.5,1,,,,,0,43,43,57,,,,,,,,,,,,,,,,,,,None,None,,None,44.763,,,,,,,,,,,,,,,,,,2019_Sep_19_1637,59.76114664917558,Cloud_Experiment_FR_REAL,001,48,
images/fcloud_D1.2_2.tif,1.2,0,,,,,0,44,44,13,,,,,,,,,,,,,,,,,,,1,space,7.6945879,2,1.119,,,,,,,,,,,,,,,,,,2019_Sep_19_1637,59.76114664917558,Cloud_Experiment_FR_REAL,001,48,
images/fcloud_D1.7_1.tif,1.7,0,,,,,0,45,45,27,,,,,,,,,,,,,,,,,,,None,None,,None,10.243,,,,,,,,,,,,,,,,,,2019_Sep_19_1637,59.76114664917558,Cloud_Experiment_FR_REAL,001,48,
images/fcloud80-20_D1.5_2.tif,1.5,2,,,,,0,46,46,94,,,,,,,,,,,,,,,,,,,None,None,,None,18.752,,,,,,,,,,,,,,,,,,2019_Sep_19_1637,59.76114664917558,Cloud_Experiment_FR_REAL,001,48,
images/fcloud_D0.8_3.tif,0.8,0,,,,,0,47,47,2,,,,,,,,,,,,,,,,,,,1,space,3.7260527,4,1.385,,,,,,,,,,,,,,,,,,2019_Sep_19_1637,59.76114664917558,Cloud_Experiment_FR_REAL,001,48,
images/fcloud65-35_D0.9_1.tif,0.9,1,,,,,0,48,48,39,,,,,,,,,,,,,,,,,,,None,None,,None,11.108,,,,,,,,,,,,,,,,,,2019_Sep_19_1637,59.76114664917558,Cloud_Experiment_FR_REAL,001,48,
images/fcloud_D1_3.tif,1.0,0,,,,,0,49,49,8,,,,,,,,,,,,,,,,,,,1,space,3.6639541,4,2.434,,,,,,,,,,,,,,,,,,2019_Sep_19_1637,59.76114664917558,Cloud_Experiment_FR_REAL,001,48,
images/fcloud80-20_D1.6_2.tif,1.6,2,,,,,0,50,50,97,,,,,,,,,,,,,,,,,,,1,None,,1,0.518,,,,,,,,,,,,,,,,,,2019_Sep_19_1637,59.76114664917558,Cloud_Experiment_FR_REAL,001,48,
images/fcloud65-35_D1_3.tif,1.0,1,,,,,0,51,51,44,,,,,,,,,,,,,,,,,,,None,None,,None,8.944,,,,,,,,,,,,,,,,,,2019_Sep_19_1637,59.76114664917558,Cloud_Experiment_FR_REAL,001,48,
images/fcloud65-35_D1.6_3.tif,1.6,1,,,,,0,52,52,62,,,,,,,,,,,,,,,,,,,None,None,,None,17.419,,,,,,,,,,,,,,,,,,2019_Sep_19_1637,59.76114664917558,Cloud_Experiment_FR_REAL,001,48,
images/fcloud_D1.4_1.tif,1.4,0,,,,,0,53,53,18,,,,,,,,,,,,,,,,,,,3,space,5.0072965,3,3.084,,,,,,,,,,,,,,,,,,2019_Sep_19_1637,59.76114664917558,Cloud_Experiment_FR_REAL,001,48,
images/fcloud_D1.6_1.tif,1.6,0,,,,,0,54,54,24,,,,,,,,,,,,,,,,,,,3,space,5.9433514,2,1.103,,,,,,,,,,,,,,,,,,2019_Sep_19_1637,59.76114664917558,Cloud_Experiment_FR_REAL,001,48,
images/fcloud65-35_D1.9_2.tif,1.9,1,,,,,0,55,55,70,,,,,,,,,,,,,,,,,,,None,None,,None,9.694,,,,,,,,,,,,,,,,,,2019_Sep_19_1637,59.76114664917558,Cloud_Experiment_FR_REAL,001,48,
images/fcloud65-35_D1.6_1.tif,1.6,1,,,,,0,56,56,60,,,,,,,,,,,,,,,,,,,2,None,,3,1.402,,,,,,,,,,,,,,,,,,2019_Sep_19_1637,59.76114664917558,Cloud_Experiment_FR_REAL,001,48,
images/fcloud80-20_D0.9_1.tif,0.9,2,,,,,0,57,57,75,,,,,,,,,,,,,,,,,,,None,space,2.6299092,None,11.093,,,,,,,,,,,,,,,,,,2019_Sep_19_1637,59.76114664917558,Cloud_Experiment_FR_REAL,001,48,
images/fcloud65-35_D1.3_2.tif,1.3,1,,,,,0,58,58,52,,,,,,,,,,,,,,,,,,,1,space,4.9126771,3,1.036,,,,,,,,,,,,,,,,,,2019_Sep_19_1637,59.76114664917558,Cloud_Experiment_FR_REAL,001,48,
images/fcloud_D1.1_3.tif,1.1,0,,,,,0,59,59,11,,,,,,,,,,,,,,,,,,,None,None,,None,11.224,,,,,,,,,,,,,,,,,,2019_Sep_19_1637,59.76114664917558,Cloud_Experiment_FR_REAL,001,48,
images/fcloud_D1.8_1.tif,1.8,0,,,,,0,60,60,30,,,,,,,,,,,,,,,,,,,1,space,4.1070125,1,1.052,,,,,,,,,,,,,,,,,,2019_Sep_19_1637,59.76114664917558,Cloud_Experiment_FR_REAL,001,48,
images/fcloud80-20_D1.9_1.tif,1.9,2,,,,,0,61,61,105,,,,,,,,,,,,,,,,,,,None,None,,None,10.925,,,,,,,,,,,,,,,,,,2019_Sep_19_1637,59.76114664917558,Cloud_Experiment_FR_REAL,001,48,
images/fcloud_D1.7_2.tif,1.7,0,,,,,0,62,62,28,,,,,,,,,,,,,,,,,,,None,None,,None,19.552,,,,,,,,,,,,,,,,,,2019_Sep_19_1637,59.76114664917558,Cloud_Experiment_FR_REAL,001,48,
images/fcloud_D1.9_3.tif,1.9,0,,,,,0,63,63,35,,,,,,,,,,,,,,,,,,,1,space,7.7094544,1,0.603,,,,,,,,,,,,,,,,,,2019_Sep_19_1637,59.76114664917558,Cloud_Experiment_FR_REAL,001,48,
images/fcloud80-20_D1.7_2.tif,1.7,2,,,,,0,64,64,100,,,,,,,,,,,,,,,,,,,None,None,,None,9.144,,,,,,,,,,,,,,,,,,2019_Sep_19_1637,59.76114664917558,Cloud_Experiment_FR_REAL,001,48,
images/fcloud65-35_D1.5_2.tif,1.5,1,,,,,0,65,65,58,,,,,,,,,,,,,,,,,,,None,None,,None,17.671,,,,,,,,,,,,,,,,,,2019_Sep_19_1637,59.76114664917558,Cloud_Experiment_FR_REAL,001,48,
images/fcloud_D1.5_1.tif,1.5,0,,,,,0,66,66,21,,,,,,,,,,,,,,,,,,,1,space,3.7282817,4,1.152,,,,,,,,,,,,,,,,,,2019_Sep_19_1637,59.76114664917558,Cloud_Experiment_FR_REAL,001,48,
images/fcloud65-35_D1.5_3.tif,1.5,1,,,,,0,67,67,59,,,,,,,,,,,,,,,,,,,1,space,6.5909065,2,1.519,,,,,,,,,,,,,,,,,,2019_Sep_19_1637,59.76114664917558,Cloud_Experiment_FR_REAL,001,48,
images/fcloud80-20_D1.8_1.tif,1.8,2,,,,,0,68,68,102,,,,,,,,,,,,,,,,,,,None,None,,None,10.076,,,,,,,,,,,,,,,,,,2019_Sep_19_1637,59.76114664917558,Cloud_Experiment_FR_REAL,001,48,
images/fcloud_D1.3_2.tif,1.3,0,,,,,0,69,69,16,,,,,,,,,,,,,,,,,,,1,space,1.4851458,4,1.867,,,,,,,,,,,,,,,,,,2019_Sep_19_1637,59.76114664917558,Cloud_Experiment_FR_REAL,001,48,
images/fcloud_D1.8_3.tif,1.8,0,,,,,0,70,70,32,,,,,,,,,,,,,,,,,,,None,None,,None,10.677,,,,,,,,,,,,,,,,,,2019_Sep_19_1637,59.76114664917558,Cloud_Experiment_FR_REAL,001,48,
images/fcloud80-20_D1.2_1.tif,1.2,2,,,,,0,71,71,84,,,,,,,,,,,,,,,,,,,None,None,,None,19.168,,,,,,,,,,,,,,,,,,2019_Sep_19_1637,59.76114664917558,Cloud_Experiment_FR_REAL,001,48,
images/fcloud65-35_D1.7_1.tif,1.7,1,,,,,0,72,72,63,,,,,,,,,,,,,,,,,,,None,None,,None,27.877,,,,,,,,,,,,,,,,,,2019_Sep_19_1637,59.76114664917558,Cloud_Experiment_FR_REAL,001,48,
images/fcloud65-35_D1.8_1.tif,1.8,1,,,,,0,73,73,66,,,,,,,,,,,,,,,,,,,None,None,,None,36.404,,,,,,,,,,,,,,,,,,2019_Sep_19_1637,59.76114664917558,Cloud_Experiment_FR_REAL,001,48,
images/fcloud80-20_D0.8_3.tif,0.8,2,,,,,0,74,74,74,,,,,,,,,,,,,,,,,,,None,None,,None,44.98,,,,,,,,,,,,,,,,,,2019_Sep_19_1637,59.76114664917558,Cloud_Experiment_FR_REAL,001,48,
images/fcloud65-35_D1_1.tif,1.0,1,,,,,0,75,75,42,,,,,,,,,,,,,,,,,,,None,None,,None,53.472,,,,,,,,,,,,,,,,,,2019_Sep_19_1637,59.76114664917558,Cloud_Experiment_FR_REAL,001,48,
images/fcloud65-35_D0.9_3.tif,0.9,1,,,,,0,76,76,41,,,,,,,,,,,,,,,,,,,1,None,,1,0.636,,,,,,,,,,,,,,,,,,2019_Sep_19_1637,59.76114664917558,Cloud_Experiment_FR_REAL,001,48,
images/fcloud80-20_D1.8_3.tif,1.8,2,,,,,0,77,77,104,,,,,,,,,,,,,,,,,,,None,None,,None,9.344,,,,,,,,,,,,,,,,,,2019_Sep_19_1637,59.76114664917558,Cloud_Experiment_FR_REAL,001,48,
images/fcloud_D1.7_3.tif,1.7,0,,,,,0,78,78,29,,,,,,,,,,,,,,,,,,,None,None,,None,17.869,,,,,,,,,,,,,,,,,,2019_Sep_19_1637,59.76114664917558,Cloud_Experiment_FR_REAL,001,48,
images/fcloud_D1.2_1.tif,1.2,0,,,,,0,79,79,12,,,,,,,,,,,,,,,,,,,None,None,,None,26.396,,,,,,,,,,,,,,,,,,2019_Sep_19_1637,59.76114664917558,Cloud_Experiment_FR_REAL,001,48,
images/fcloud80-20_D1.4_1.tif,1.4,2,,,,,0,80,80,90,,,,,,,,,,,,,,,,,,,None,None,,None,35.054,,,,,,,,,,,,,,,,,,2019_Sep_19_1637,59.76114664917558,Cloud_Experiment_FR_REAL,001,48,
images/fcloud80-20_D1.8_2.tif,1.8,2,,,,,0,81,81,103,,,,,,,,,,,,,,,,,,,None,None,,None,43.63,,,,,,,,,,,,,,,,,,2019_Sep_19_1637,59.76114664917558,Cloud_Experiment_FR_REAL,001,48,
images/fcloud80-20_D1.7_1.tif,1.7,2,,,,,0,82,82,99,,,,,,,,,,,,,,,,,,,None,None,,None,52.073,,,,,,,,,,,,,,,,,,2019_Sep_19_1637,59.76114664917558,Cloud_Experiment_FR_REAL,001,48,
images/fcloud65-35_D1_2.tif,1.0,1,,,,,0,83,83,43,,,,,,,,,,,,,,,,,,,2,space,4.6920919,3,1.935,,,,,,,,,,,,,,,,,,2019_Sep_19_1637,59.76114664917558,Cloud_Experiment_FR_REAL,001,48,
images/fcloud65-35_D1.6_2.tif,1.6,1,,,,,0,84,84,61,,,,,,,,,,,,,,,,,,,1,space,8.0289292,1,0.652,,,,,,,,,,,,,,,,,,2019_Sep_19_1637,59.76114664917558,Cloud_Experiment_FR_REAL,001,48,
images/fcloud80-20_D1.6_1.tif,1.6,2,,,,,0,85,85,96,,,,,,,,,,,,,,,,,,,None,None,,None,10.242,,,,,,,,,,,,,,,,,,2019_Sep_19_1637,59.76114664917558,Cloud_Experiment_FR_REAL,001,48,
images/fcloud_D1.4_3.tif,1.4,0,,,,,0,86,86,20,,,,,,,,,,,,,,,,,,,None,None,,None,20.717,,,,,,,,,,,,,,,,,,2019_Sep_19_1637,59.76114664917558,Cloud_Experiment_FR_REAL,001,48,
images/fcloud80-20_D0.9_3.tif,0.9,2,,,,,0,87,87,77,,,,,,,,,,,,,,,,,,,None,None,,None,29.211,,,,,,,,,,,,,,,,,,2019_Sep_19_1637,59.76114664917558,Cloud_Experiment_FR_REAL,001,48,
images/fcloud80-20_D1.5_1.tif,1.5,2,,,,,0,88,88,93,,,,,,,,,,,,,,,,,,,None,None,,None,37.736,,,,,,,,,,,,,,,,,,2019_Sep_19_1637,59.76114664917558,Cloud_Experiment_FR_REAL,001,48,
images/fcloud80-20_D0.8_2.tif,0.8,2,,,,,0,89,89,73,,,,,,,,,,,,,,,,,,,None,None,,None,46.278,,,,,,,,,,,,,,,,,,2019_Sep_19_1637,59.76114664917558,Cloud_Experiment_FR_REAL,001,48,
images/fcloud65-35_D0.9_2.tif,0.9,1,,,,,0,90,90,40,,,,,,,,,,,,,,,,,,,1,space,5.7118627,1,0.47,,,,,,,,,,,,,,,,,,2019_Sep_19_1637,59.76114664917558,Cloud_Experiment_FR_REAL,001,48,
images/fcloud_D1.4_2.tif,1.4,0,,,,,0,91,91,19,,,,,,,,,,,,,,,,,,,None,None,,None,9.311,,,,,,,,,,,,,,,,,,2019_Sep_19_1637,59.76114664917558,Cloud_Experiment_FR_REAL,001,48,
images/fcloud65-35_D0.8_3.tif,0.8,1,,,,,0,92,92,38,,,,,,,,,,,,,,,,,,,1,space,7.2199015,1,0.603,,,,,,,,,,,,,,,,,,2019_Sep_19_1637,59.76114664917558,Cloud_Experiment_FR_REAL,001,48,
images/fcloud_D1.8_2.tif,1.8,0,,,,,0,93,93,31,,,,,,,,,,,,,,,,,,,None,None,,None,9.827,,,,,,,,,,,,,,,,,,2019_Sep_19_1637,59.76114664917558,Cloud_Experiment_FR_REAL,001,48,
images/fcloud65-35_D1.7_2.tif,1.7,1,,,,,0,94,94,64,,,,,,,,,,,,,,,,,,,None,None,,None,18.569,,,,,,,,,,,,,,,,,,2019_Sep_19_1637,59.76114664917558,Cloud_Experiment_FR_REAL,001,48,
images/fcloud80-20_D1_3.tif,1.0,2,,,,,0,95,95,80,,,,,,,,,,,,,,,,,,,1,space,2.5445956,2,0.636,,,,,,,,,,,,,,,,,,2019_Sep_19_1637,59.76114664917558,Cloud_Experiment_FR_REAL,001,48,
images/fcloud_D1.1_2.tif,1.1,0,,,,,0,96,96,10,,,,,,,,,,,,,,,,,,,1,space,4.8994069,4,1.234,,,,,,,,,,,,,,,,,,2019_Sep_19_1637,59.76114664917558,Cloud_Experiment_FR_REAL,001,48,
images/fcloud_D1.9_2.tif,1.9,0,,,,,0,97,97,34,,,,,,,,,,,,,,,,,,,None,None,,None,10.109,,,,,,,,,,,,,,,,,,2019_Sep_19_1637,59.76114664917558,Cloud_Experiment_FR_REAL,001,48,
images/fcloud65-35_D1.4_2.tif,1.4,1,,,,,0,98,98,55,,,,,,,,,,,,,,,,,,,1,space,7.2203846,1,0.669,,,,,,,,,,,,,,,,,,2019_Sep_19_1637,59.76114664917558,Cloud_Experiment_FR_REAL,001,48,
images/fcloud80-20_D1.4_2.tif,1.4,2,,,,,0,99,99,91,,,,,,,,,,,,,,,,,,,1,space,4.5809001,1,2.916,,,,,,,,,,,,,,,,,,2019_Sep_19_1637,59.76114664917558,Cloud_Experiment_FR_REAL,001,48,
images/fcloud80-20_D1.9_2.tif,1.9,2,,,,,0,100,100,106,,,,,,,,,,,,,,,,,,,None,None,,None,11.44,,,,,,,,,,,,,,,,,,2019_Sep_19_1637,59.76114664917558,Cloud_Experiment_FR_REAL,001,48,
images/fcloud80-20_D1.1_3.tif,1.1,2,,,,,0,101,101,83,,,,,,,,,,,,,,,,,,,None,None,,None,19.95,,,,,,,,,,,,,,,,,,2019_Sep_19_1637,59.76114664917558,Cloud_Experiment_FR_REAL,001,48,
images/fcloud65-35_D1.4_1.tif,1.4,1,,,,,0,102,102,54,,,,,,,,,,,,,,,,,,,1,None,,1,0.536,,,,,,,,,,,,,,,,,,2019_Sep_19_1637,59.76114664917558,Cloud_Experiment_FR_REAL,001,48,
images/fcloud_D0.9_3.tif,0.9,0,,,,,0,103,103,5,,,,,,,,,,,,,,,,,,,None,None,,None,9.527,,,,,,,,,,,,,,,,,,2019_Sep_19_1637,59.76114664917558,Cloud_Experiment_FR_REAL,001,48,
images/fcloud80-20_D1.2_2.tif,1.2,2,,,,,0,104,104,85,,,,,,,,,,,,,,,,,,,None,None,,None,18.569,,,,,,,,,,,,,,,,,,2019_Sep_19_1637,59.76114664917558,Cloud_Experiment_FR_REAL,001,48,
images/fcloud65-35_D0.8_1.tif,0.8,1,,,,,0,105,105,36,,,,,,,,,,,,,,,,,,,None,None,,None,27.246,,,,,,,,,,,,,,,,,,2019_Sep_19_1637,59.76114664917558,Cloud_Experiment_FR_REAL,001,48,
images/fcloud65-35_D1.2_1.tif,1.2,1,,,,,0,106,106,48,,,,,,,,,,,,,,,,,,,None,None,,None,35.705,,,,,,,,,,,,,,,,,,2019_Sep_19_1637,59.76114664917558,Cloud_Experiment_FR_REAL,001,48,
images/fcloud_D0.8_2.tif,0.8,0,,,,,0,107,107,1,,,,,,,,,,,,,,,,,,,1,space,3.017625,3,0.852,,,,,,,,,,,,,,,,,,2019_Sep_19_1637,59.76114664917558,Cloud_Experiment_FR_REAL,001,48,
,,,,,,,,,,,,,,,,,,,,,,,,,,,,,,,,,,,,,,,,,,,,,,space,3.4829412,,,,2019_Sep_19_1637,59.76114664917558,Cloud_Experiment_FR_REAL,001,48,
,,,,,,,,,,,,,,,,,,,,,,,,,6,14.514,,,,,,,,,,,,,,,,,,,,,,,,,2019_Sep_19_1637,59.76114664917558,Cloud_Experiment_FR_REAL,001,48,
,,,,,,,,,,,,,,,,,,,,,,,,,,,,,,,,,,5,,,,,,,,,,,,,,,,,2019_Sep_19_1637,59.76114664917558,Cloud_Experiment_FR_REAL,001,48,
,,,,,,,,,,,,,,,,,,,,,,,,,,,,,,,,,,,5,,,,,,,,,,,,,,,,2019_Sep_19_1637,59.76114664917558,Cloud_Experiment_FR_REAL,001,48,
,,,,,,,,,,,,,,,,,,,,,,,,,,,,,,,,,,,,2,,,,,,,,,,,,,,,2019_Sep_19_1637,59.76114664917558,Cloud_Experiment_FR_REAL,001,48,
,,,,,,,,,,,,,,,,,,,,,,,,,,,,,,,,,,,,,5,,,,,,,,,,,,,,2019_Sep_19_1637,59.76114664917558,Cloud_Experiment_FR_REAL,001,48,
,,,,,,,,,,,,,,,,,,,,,,,,,,,,,,,,,,,,,,4,,,,,,,,,,,,,2019_Sep_19_1637,59.76114664917558,Cloud_Experiment_FR_REAL,001,48,
,,,,,,,,,,,,,,,,,,,,,,,,,,,,,,,,,,,,,,,5,,,,,,,,,,,,2019_Sep_19_1637,59.76114664917558,Cloud_Experiment_FR_REAL,001,48,
,,,,,,,,,,,,,,,,,,,,,,,,,,,,,,,,,,,,,,,,4,,,,,,,,,,,2019_Sep_19_1637,59.76114664917558,Cloud_Experiment_FR_REAL,001,48,
,,,,,,,,,,,,,,,,,,,,,,,,,,,,,,,,,,,,,,,,,7,,,,,,,,,,2019_Sep_19_1637,59.76114664917558,Cloud_Experiment_FR_REAL,001,48,
,,,,,,,,,,,,,,,,,,,,,,,,,,,,,,,,,,,,,,,,,,6,,,,,,,,,2019_Sep_19_1637,59.76114664917558,Cloud_Experiment_FR_REAL,001,48,
,,,,,,,,,,,,,,,,,,,,,,,,,,,,,,,,,,,,,,,,,,,4,,,,,,,,2019_Sep_19_1637,59.76114664917558,Cloud_Experiment_FR_REAL,001,48,
,,,,,,,,,,,,,,,,,,,,,,,,,,,,,,,,,,,,,,,,,,,,,,,,space,338.7396222,,2019_Sep_19_1637,59.76114664917558,Cloud_Experiment_FR_REAL,001,48,
images/fcloud_D1.4_6.tif,1.4,0,,,,,,,,,0,0,0,20,,,,,,,,,,,,,,,None,None,,None,417.421,,,,,,,,,,,,,,,,,,2019_Sep_19_1637,59.76114664917558,Cloud_Experiment_FR_REAL,001,48,
images/fcloud80-20_D1.7_4.tif,1.7,2,,,,,,,,,0,1,1,99,,,,,,,,,,,,,,,None,None,,None,426.114,,,,,,,,,,,,,,,,,,2019_Sep_19_1637,59.76114664917558,Cloud_Experiment_FR_REAL,001,48,
images/fcloud80-20_D1.8_5.tif,1.8,2,,,,,,,,,0,2,2,103,,,,,,,,,,,,,,,None,None,,None,434.689,,,,,,,,,,,,,,,,,,2019_Sep_19_1637,59.76114664917558,Cloud_Experiment_FR_REAL,001,48,
images/fcloud80-20_D1.4_6.tif,1.4,2,,,,,,,,,0,3,3,92,,,,,,,,,,,,,,,None,None,,None,443.349,,,,,,,,,,,,,,,,,,2019_Sep_19_1637,59.76114664917558,Cloud_Experiment_FR_REAL,001,48,
images/fcloud_D1.1_5.tif,1.1,0,,,,,,,,,0,4,4,10,,,,,,,,,,,,,,,1,space,6.1815987,1,0.619,,,,,,,,,,,,,,,,,,2019_Sep_19_1637,59.76114664917558,Cloud_Experiment_FR_REAL,001,48,
images/fcloud65-35_D1.8_5.tif,1.8,1,,,,,,,,,0,5,5,67,,,,,,,,,,,,,,,None,None,,None,9.143,,,,,,,,,,,,,,,,,,2019_Sep_19_1637,59.76114664917558,Cloud_Experiment_FR_REAL,001,48,
images/fcloud65-35_D0.9_4.tif,0.9,1,,,,,,,,,0,6,6,39,,,,,,,,,,,,,,,1,space,3.7575136,4,2.052,,,,,,,,,,,,,,,,,,2019_Sep_19_1637,59.76114664917558,Cloud_Experiment_FR_REAL,001,48,
images/fcloud_D1.9_6.tif,1.9,0,,,,,,,,,0,7,7,35,,,,,,,,,,,,,,,None,None,,None,11.208,,,,,,,,,,,,,,,,,,2019_Sep_19_1637,59.76114664917558,Cloud_Experiment_FR_REAL,001,48,
images/fcloud80-20_D1.6_4.tif,1.6,2,,,,,,,,,0,8,8,96,,,,,,,,,,,,,,,None,None,,None,19.701,,,,,,,,,,,,,,,,,,2019_Sep_19_1637,59.76114664917558,Cloud_Experiment_FR_REAL,001,48,
images/fcloud65-35_D1_4.tif,1.0,1,,,,,,,,,0,9,9,42,,,,,,,,,,,,,,,1,space,3.3243648,4,2.801,,,,,,,,,,,,,,,,,,2019_Sep_19_1637,59.76114664917558,Cloud_Experiment_FR_REAL,001,48,
images/fcloud80-20_D1.7_6.tif,1.7,2,,,,,,,,,0,10,10,101,,,,,,,,,,,,,,,None,None,,None,11.259,,,,,,,,,,,,,,,,,,2019_Sep_19_1637,59.76114664917558,Cloud_Experiment_FR_REAL,001,48,
images/fcloud80-20_D1.4_5.tif,1.4,2,,,,,,,,,0,11,11,91,,,,,,,,,,,,,,,1,space,2.6250977,1,0.819,,,,,,,,,,,,,,,,,,2019_Sep_19_1637,59.76114664917558,Cloud_Experiment_FR_REAL,001,48,
images/fcloud65-35_D1.2_6.tif,1.2,1,,,,,,,,,0,12,12,50,,,,,,,,,,,,,,,2,space,4.0474339,3,1.834,,,,,,,,,,,,,,,,,,2019_Sep_19_1637,59.76114664917558,Cloud_Experiment_FR_REAL,001,48,
images/fcloud_D1_5.tif,1.0,0,,,,,,,,,0,13,13,7,,,,,,,,,,,,,,,1,None,,1,1.001,,,,,,,,,,,,,,,,,,2019_Sep_19_1637,59.76114664917558,Cloud_Experiment_FR_REAL,001,48,
images/fcloud65-35_D1.5_5.tif,1.5,1,,,,,,,,,0,14,14,58,,,,,,,,,,,,,,,None,None,,None,9.561,,,,,,,,,,,,,,,,,,2019_Sep_19_1637,59.76114664917558,Cloud_Experiment_FR_REAL,001,48,
images/fcloud_D1_6.tif,1.0,0,,,,,,,,,0,15,15,8,,,,,,,,,,,,,,,2,space,5.1175925,4,1.318,,,,,,,,,,,,,,,,,,2019_Sep_19_1637,59.76114664917558,Cloud_Experiment_FR_REAL,001,48,
images/fcloud80-20_D1.1_5.tif,1.1,2,,,,,,,,,0,16,16,82,,,,,,,,,,,,,,,1,space,3.2832014,3,0.968,,,,,,,,,,,,,,,,,,2019_Sep_19_1637,59.76114664917558,Cloud_Experiment_FR_REAL,001,48,
images/fcloud65-35_D1.1_6.tif,1.1,1,,,,,,,,,0,17,17,47,,,,,,,,,,,,,,,1,space,7.1665433,1,0.62,,,,,,,,,,,,,,,,,,2019_Sep_19_1637,59.76114664917558,Cloud_Experiment_FR_REAL,001,48,
images/fcloud_D1.3_5.tif,1.3,0,,,,,,,,,0,18,18,16,,,,,,,,,,,,,,,1,space,4.5016566,2,1.65,,,,,,,,,,,,,,,,,,2019_Sep_19_1637,59.76114664917558,Cloud_Experiment_FR_REAL,001,48,
images/fcloud_D1.9_4.tif,1.9,0,,,,,,,,,0,19,19,33,,,,,,,,,,,,,,,None,None,,None,10.925,,,,,,,,,,,,,,,,,,2019_Sep_19_1637,59.76114664917558,Cloud_Experiment_FR_REAL,001,48,
images/fcloud65-35_D1.8_6.tif,1.8,1,,,,,,,,,0,20,20,68,,,,,,,,,,,,,,,None,None,,None,20.068,,,,,,,,,,,,,,,,,,2019_Sep_19_1637,59.76114664917558,Cloud_Experiment_FR_REAL,001,48,
images/fcloud65-35_D1.5_4.tif,1.5,1,,,,,,,,,0,21,21,57,,,,,,,,,,,,,,,None,None,,None,29.159,,,,,,,,,,,,,,,,,,2019_Sep_19_1637,59.76114664917558,Cloud_Experiment_FR_REAL,001,48,
images/fcloud_D1.2_6.tif,1.2,0,,,,,,,,,0,22,22,14,,,,,,,,,,,,,,,2,space,1.8127911,3,3.233,,,,,,,,,,,,,,,,,,2019_Sep_19_1637,59.76114664917558,Cloud_Experiment_FR_REAL,001,48,
images/fcloud65-35_D1.7_6.tif,1.7,1,,,,,,,,,0,23,23,65,,,,,,,,,,,,,,,None,None,,None,12.774,,,,,,,,,,,,,,,,,,2019_Sep_19_1637,59.76114664917558,Cloud_Experiment_FR_REAL,001,48,
images/fcloud65-35_D0.8_6.tif,0.8,1,,,,,,,,,0,24,24,38,,,,,,,,,,,,,,,None,None,,None,21.533,,,,,,,,,,,,,,,,,,2019_Sep_19_1637,59.76114664917558,Cloud_Experiment_FR_REAL,001,48,
images/fcloud_D1.4_4.tif,1.4,0,,,,,,,,,0,25,25,18,,,,,,,,,,,,,,,1,space,3.9278225,1,0.769,,,,,,,,,,,,,,,,,,2019_Sep_19_1637,59.76114664917558,Cloud_Experiment_FR_REAL,001,48,
images/fcloud80-20_D0.9_4.tif,0.9,2,,,,,,,,,0,26,26,75,,,,,,,,,,,,,,,None,None,,None,9.759,,,,,,,,,,,,,,,,,,2019_Sep_19_1637,59.76114664917558,Cloud_Experiment_FR_REAL,001,48,
images/fcloud_D1.8_5.tif,1.8,0,,,,,,,,,0,27,27,31,,,,,,,,,,,,,,,None,None,,None,18.801,,,,,,,,,,,,,,,,,,2019_Sep_19_1637,59.76114664917558,Cloud_Experiment_FR_REAL,001,48,
images/fcloud_D1.8_4.tif,1.8,0,,,,,,,,,0,28,28,30,,,,,,,,,,,,,,,None,None,,None,27.86,,,,,,,,,,,,,,,,,,2019_Sep_19_1637,59.76114664917558,Cloud_Experiment_FR_REAL,001,48,
images/fcloud_D1.3_6.tif,1.3,0,,,,,,,,,0,29,29,17,,,,,,,,,,,,,,,3,space,7.8790326,2,1.335,,,,,,,,,,,,,,,,,,2019_Sep_19_1637,59.76114664917558,Cloud_Experiment_FR_REAL,001,48,
images/fcloud65-35_D1.6_5.tif,1.6,1,,,,,,,,,0,30,30,61,,,,,,,,,,,,,,,None,None,,None,10.494,,,,,,,,,,,,,,,,,,2019_Sep_19_1637,59.76114664917558,Cloud_Experiment_FR_REAL,001,48,
images/fcloud80-20_D1.9_4.tif,1.9,2,,,,,,,,,0,31,31,105,,,,,,,,,,,,,,,None,None,,None,18.985,,,,,,,,,,,,,,,,,,2019_Sep_19_1637,59.76114664917558,Cloud_Experiment_FR_REAL,001,48,
images/fcloud80-20_D1.5_5.tif,1.5,2,,,,,,,,,0,32,32,94,,,,,,,,,,,,,,,None,None,,None,27.595,,,,,,,,,,,,,,,,,,2019_Sep_19_1637,59.76114664917558,Cloud_Experiment_FR_REAL,001,48,
images/fcloud65-35_D1.7_4.tif,1.7,1,,,,,,,,,0,33,33,63,,,,,,,,,,,,,,,None,None,,None,36.27,,,,,,,,,,,,,,,,,,2019_Sep_19_1637,59.76114664917558,Cloud_Experiment_FR_REAL,001,48,
images/fcloud_D1.8_6.tif,1.8,0,,,,,,,,,0,34,34,32,,,,,,,,,,,,,,,1,space,7.5994913,1,0.669,,,,,,,,,,,,,,,,,,2019_Sep_19_1637,59.76114664917558,Cloud_Experiment_FR_REAL,001,48,
images/fcloud65-35_D1.3_5.tif,1.3,1,,,,,,,,,0,35,35,52,,,,,,,,,,,,,,,1,space,1.6298435,2,1.535,,,,,,,,,,,,,,,,,,2019_Sep_19_1637,59.76114664917558,Cloud_Experiment_FR_REAL,001,48,
images/fcloud80-20_D1.6_6.tif,1.6,2,,,,,,,,,0,36,36,98,,,,,,,,,,,,,,,1,space,5.520448,2,1.119,,,,,,,,,,,,,,,,,,2019_Sep_19_1637,59.76114664917558,Cloud_Experiment_FR_REAL,001,48,
images/fcloud65-35_D1.3_4.tif,1.3,1,,,,,,,,,0,37,37,51,,,,,,,,,,,,,,,None,space,8.1669246,None,10.443,,,,,,,,,,,,,,,,,,2019_Sep_19_1637,59.76114664917558,Cloud_Experiment_FR_REAL,001,48,
images/fcloud_D1.7_5.tif,1.7,0,,,,,,,,,0,38,38,28,,,,,,,,,,,,,,,None,None,,None,19.402,,,,,,,,,,,,,,,,,,2019_Sep_19_1637,59.76114664917558,Cloud_Experiment_FR_REAL,001,48,
images/fcloud80-20_D1_5.tif,1.0,2,,,,,,,,,0,39,39,79,,,,,,,,,,,,,,,None,None,,None,28.044,,,,,,,,,,,,,,,,,,2019_Sep_19_1637,59.76114664917558,Cloud_Experiment_FR_REAL,001,48,
images/fcloud80-20_D0.9_5.tif,0.9,2,,,,,,,,,0,40,40,76,,,,,,,,,,,,,,,1,space,3.1213666,4,1.402,,,,,,,,,,,,,,,,,,2019_Sep_19_1637,59.76114664917558,Cloud_Experiment_FR_REAL,001,48,
images/fcloud65-35_D1.9_4.tif,1.9,1,,,,,,,,,0,41,41,69,,,,,,,,,,,,,,,None,None,,None,10.11,,,,,,,,,,,,,,,,,,2019_Sep_19_1637,59.76114664917558,Cloud_Experiment_FR_REAL,001,48,
images/fcloud65-35_D1.9_6.tif,1.9,1,,,,,,,,,0,42,42,71,,,,,,,,,,,,,,,None,None,,None,18.937,,,,,,,,,,,,,,,,,,2019_Sep_19_1637,59.76114664917558,Cloud_Experiment_FR_REAL,001,48,
images/fcloud65-35_D1.4_5.tif,1.4,1,,,,,,,,,0,43,43,55,,,,,,,,,,,,,,,None,None,,None,27.627,,,,,,,,,,,,,,,,,,2019_Sep_19_1637,59.76114664917558,Cloud_Experiment_FR_REAL,001,48,
images/fcloud_D0.9_6.tif,0.9,0,,,,,,,,,0,44,44,5,,,,,,,,,,,,,,,1,space,3.9452443,4,0.985,,,,,,,,,,,,,,,,,,2019_Sep_19_1637,59.76114664917558,Cloud_Experiment_FR_REAL,001,48,
images/fcloud65-35_D1_5.tif,1.0,1,,,,,,,,,0,45,45,43,,,,,,,,,,,,,,,None,space,8.1775982,None,10.243,,,,,,,,,,,,,,,,,,2019_Sep_19_1637,59.76114664917558,Cloud_Experiment_FR_REAL,001,48,
images/fcloud_D0.8_4.tif,0.8,0,,,,,,,,,0,46,46,0,,,,,,,,,,,,,,,None,None,,None,18.635,,,,,,,,,,,,,,,,,,2019_Sep_19_1637,59.76114664917558,Cloud_Experiment_FR_REAL,001,48,
images/fcloud80-20_D1.2_6.tif,1.2,2,,,,,,,,,0,47,47,86,,,,,,,,,,,,,,,1,None,,3,0.803,,,,,,,,,,,,,,,,,,2019_Sep_19_1637,59.76114664917558,Cloud_Experiment_FR_REAL,001,48,
images/fcloud80-20_D0.9_6.tif,0.9,2,,,,,,,,,0,48,48,77,,,,,,,,,,,,,,,None,None,,None,9.327,,,,,,,,,,,,,,,,,,2019_Sep_19_1637,59.76114664917558,Cloud_Experiment_FR_REAL,001,48,
images/fcloud65-35_D1.6_6.tif,1.6,1,,,,,,,,,0,49,49,62,,,,,,,,,,,,,,,None,None,,None,18.269,,,,,,,,,,,,,,,,,,2019_Sep_19_1637,59.76114664917558,Cloud_Experiment_FR_REAL,001,48,
images/fcloud80-20_D1.1_6.tif,1.1,2,,,,,,,,,0,50,50,83,,,,,,,,,,,,,,,None,None,,None,26.879,,,,,,,,,,,,,,,,,,2019_Sep_19_1637,59.76114664917558,Cloud_Experiment_FR_REAL,001,48,
images/fcloud80-20_D1.5_6.tif,1.5,2,,,,,,,,,0,51,51,95,,,,,,,,,,,,,,,None,None,,None,35.637,,,,,,,,,,,,,,,,,,2019_Sep_19_1637,59.76114664917558,Cloud_Experiment_FR_REAL,001,48,
images/fcloud80-20_D0.8_6.tif,0.8,2,,,,,,,,,0,52,52,74,,,,,,,,,,,,,,,None,None,,None,44.462,,,,,,,,,,,,,,,,,,2019_Sep_19_1637,59.76114664917558,Cloud_Experiment_FR_REAL,001,48,
images/fcloud65-35_D1.3_6.tif,1.3,1,,,,,,,,,0,53,53,53,,,,,,,,,,,,,,,1,space,3.6807785,2,0.669,,,,,,,,,,,,,,,,,,2019_Sep_19_1637,59.76114664917558,Cloud_Experiment_FR_REAL,001,48,
images/fcloud65-35_D1.7_5.tif,1.7,1,,,,,,,,,0,54,54,64,,,,,,,,,,,,,,,1,space,4.527009,1,0.569,,,,,,,,,,,,,,,,,,2019_Sep_19_1637,59.76114664917558,Cloud_Experiment_FR_REAL,001,48,
images/fcloud65-35_D1_6.tif,1.0,1,,,,,,,,,0,55,55,44,,,,,,,,,,,,,,,None,None,,None,9.743,,,,,,,,,,,,,,,,,,2019_Sep_19_1637,59.76114664917558,Cloud_Experiment_FR_REAL,001,48,
images/fcloud_D0.8_6.tif,0.8,0,,,,,,,,,0,56,56,2,,,,,,,,,,,,,,,None,None,,None,18.486,,,,,,,,,,,,,,,,,,2019_Sep_19_1637,59.76114664917558,Cloud_Experiment_FR_REAL,001,48,
images/fcloud_D1.1_6.tif,1.1,0,,,,,,,,,0,57,57,11,,,,,,,,,,,,,,,None,None,,None,27.194,,,,,,,,,,,,,,,,,,2019_Sep_19_1637,59.76114664917558,Cloud_Experiment_FR_REAL,001,48,
images/fcloud65-35_D0.8_4.tif,0.8,1,,,,,,,,,0,58,58,36,,,,,,,,,,,,,,,1,space,4.7733842,2,0.786,,,,,,,,,,,,,,,,,,2019_Sep_19_1637,59.76114664917558,Cloud_Experiment_FR_REAL,001,48,
images/fcloud80-20_D1.9_6.tif,1.9,2,,,,,,,,,0,59,59,107,,,,,,,,,,,,,,,None,None,,None,9.727,,,,,,,,,,,,,,,,,,2019_Sep_19_1637,59.76114664917558,Cloud_Experiment_FR_REAL,001,48,
images/fcloud80-20_D1.4_4.tif,1.4,2,,,,,,,,,0,60,60,90,,,,,,,,,,,,,,,None,None,,None,18.303,,,,,,,,,,,,,,,,,,2019_Sep_19_1637,59.76114664917558,Cloud_Experiment_FR_REAL,001,48,
images/fcloud80-20_D1.7_5.tif,1.7,2,,,,,,,,,0,61,61,100,,,,,,,,,,,,,,,1,space,5.319573,1,0.47,,,,,,,,,,,,,,,,,,2019_Sep_19_1637,59.76114664917558,Cloud_Experiment_FR_REAL,001,48,
images/fcloud_D1.1_4.tif,1.1,0,,,,,,,,,0,62,62,9,,,,,,,,,,,,,,,None,None,,None,10.692,,,,,,,,,,,,,,,,,,2019_Sep_19_1637,59.76114664917558,Cloud_Experiment_FR_REAL,001,48,
images/fcloud80-20_D1.2_4.tif,1.2,2,,,,,,,,,0,63,63,84,,,,,,,,,,,,,,,None,None,,None,24.097,,,,,,,,,,,,,,,,,,2019_Sep_19_1637,59.76114664917558,Cloud_Experiment_FR_REAL,001,48,
images/fcloud65-35_D1.9_5.tif,1.9,1,,,,,,,,,0,64,64,70,,,,,,,,,,,,,,,None,None,,None,32.622,,,,,,,,,,,,,,,,,,2019_Sep_19_1637,59.76114664917558,Cloud_Experiment_FR_REAL,001,48,
images/fcloud80-20_D1.3_5.tif,1.3,2,,,,,,,,,0,65,65,88,,,,,,,,,,,,,,,None,None,,None,41.516,,,,,,,,,,,,,,,,,,2019_Sep_19_1637,59.76114664917558,Cloud_Experiment_FR_REAL,001,48,
images/fcloud80-20_D1.8_6.tif,1.8,2,,,,,,,,,0,66,66,104,,,,,,,,,,,,,,,None,None,,None,50.141,,,,,,,,,,,,,,,,,,2019_Sep_19_1637,59.76114664917558,Cloud_Experiment_FR_REAL,001,48,
images/fcloud_D1.9_5.tif,1.9,0,,,,,,,,,0,67,67,34,,,,,,,,,,,,,,,None,None,,None,58.868,,,,,,,,,,,,,,,,,,2019_Sep_19_1637,59.76114664917558,Cloud_Experiment_FR_REAL,001,48,
images/fcloud65-35_D1.4_4.tif,1.4,1,,,,,,,,,0,68,68,54,,,,,,,,,,,,,,,None,None,,None,68.425,,,,,,,,,,,,,,,,,,2019_Sep_19_1637,59.76114664917558,Cloud_Experiment_FR_REAL,001,48,
images/fcloud65-35_D0.9_6.tif,0.9,1,,,,,,,,,0,69,69,41,,,,,,,,,,,,,,,None,None,,None,77.234,,,,,,,,,,,,,,,,,,2019_Sep_19_1637,59.76114664917558,Cloud_Experiment_FR_REAL,001,48,
images/fcloud80-20_D1_4.tif,1.0,2,,,,,,,,,0,70,70,78,,,,,,,,,,,,,,,None,None,,None,85.96,,,,,,,,,,,,,,,,,,2019_Sep_19_1637,59.76114664917558,Cloud_Experiment_FR_REAL,001,48,
images/fcloud_D1.5_6.tif,1.5,0,,,,,,,,,0,71,71,23,,,,,,,,,,,,,,,1,space,5.8190815,1,0.521,,,,,,,,,,,,,,,,,,2019_Sep_19_1637,59.76114664917558,Cloud_Experiment_FR_REAL,001,48,
images/fcloud_D1.2_4.tif,1.2,0,,,,,,,,,0,72,72,12,,,,,,,,,,,,,,,None,None,,None,9.61,,,,,,,,,,,,,,,,,,2019_Sep_19_1637,59.76114664917558,Cloud_Experiment_FR_REAL,001,48,
images/fcloud_D1.5_4.tif,1.5,0,,,,,,,,,0,73,73,21,,,,,,,,,,,,,,,None,None,,None,18.452,,,,,,,,,,,,,,,,,,2019_Sep_19_1637,59.76114664917558,Cloud_Experiment_FR_REAL,001,48,
images/fcloud65-35_D1.1_5.tif,1.1,1,,,,,,,,,0,74,74,46,,,,,,,,,,,,,,,2,space,5.2080343,2,0.852,,,,,,,,,,,,,,,,,,2019_Sep_19_1637,59.76114664917558,Cloud_Experiment_FR_REAL,001,48,
images/fcloud65-35_D1.1_4.tif,1.1,1,,,,,,,,,0,75,75,45,,,,,,,,,,,,,,,None,None,,None,9.826,,,,,,,,,,,,,,,,,,2019_Sep_19_1637,59.76114664917558,Cloud_Experiment_FR_REAL,001,48,
images/fcloud_D1.6_5.tif,1.6,0,,,,,,,,,0,76,76,25,,,,,,,,,,,,,,,None,None,,None,18.752,,,,,,,,,,,,,,,,,,2019_Sep_19_1637,59.76114664917558,Cloud_Experiment_FR_REAL,001,48,
images/fcloud80-20_D1.8_4.tif,1.8,2,,,,,,,,,0,77,77,102,,,,,,,,,,,,,,,None,None,,None,27.111,,,,,,,,,,,,,,,,,,2019_Sep_19_1637,59.76114664917558,Cloud_Experiment_FR_REAL,001,48,
images/fcloud65-35_D1.6_4.tif,1.6,1,,,,,,,,,0,78,78,60,,,,,,,,,,,,,,,None,None,,None,35.638,,,,,,,,,,,,,,,,,,2019_Sep_19_1637,59.76114664917558,Cloud_Experiment_FR_REAL,001,48,
images/fcloud80-20_D0.8_4.tif,0.8,2,,,,,,,,,0,79,79,72,,,,,,,,,,,,,,,None,None,,None,44.262,,,,,,,,,,,,,,,,,,2019_Sep_19_1637,59.76114664917558,Cloud_Experiment_FR_REAL,001,48,
images/fcloud80-20_D1.3_6.tif,1.3,2,,,,,,,,,0,80,80,89,,,,,,,,,,,,,,,2,space,2.5512284,3,1.085,,,,,,,,,,,,,,,,,,2019_Sep_19_1637,59.76114664917558,Cloud_Experiment_FR_REAL,001,48,
images/fcloud_D1.3_4.tif,1.3,0,,,,,,,,,0,81,81,15,,,,,,,,,,,,,,,1,None,,1,5.099,,,,,,,,,,,,,,,,,,2019_Sep_19_1637,59.76114664917558,Cloud_Experiment_FR_REAL,001,48,
images/fcloud_D1.6_6.tif,1.6,0,,,,,,,,,0,82,82,26,,,,,,,,,,,,,,,2,space,8.0537093,2,1.418,,,,,,,,,,,,,,,,,,2019_Sep_19_1637,59.76114664917558,Cloud_Experiment_FR_REAL,001,48,
images/fcloud_D1_4.tif,1.0,0,,,,,,,,,0,83,83,6,,,,,,,,,,,,,,,2,space,4.2742903,2,0.619,,,,,,,,,,,,,,,,,,2019_Sep_19_1637,59.76114664917558,Cloud_Experiment_FR_REAL,001,48,
images/fcloud_D0.9_4.tif,0.9,0,,,,,,,,,0,84,84,3,,,,,,,,,,,,,,,1,space,3.7355367,1,0.652,,,,,,,,,,,,,,,,,,2019_Sep_19_1637,59.76114664917558,Cloud_Experiment_FR_REAL,001,48,
images/fcloud_D1.7_6.tif,1.7,0,,,,,,,,,0,85,85,29,,,,,,,,,,,,,,,1,space,3.6701062,2,0.77,,,,,,,,,,,,,,,,,,2019_Sep_19_1637,59.76114664917558,Cloud_Experiment_FR_REAL,001,48,
images/fcloud_D1.6_4.tif,1.6,0,,,,,,,,,0,86,86,24,,,,,,,,,,,,,,,None,None,,None,9.676,,,,,,,,,,,,,,,,,,2019_Sep_19_1637,59.76114664917558,Cloud_Experiment_FR_REAL,001,48,
images/fcloud80-20_D1.1_4.tif,1.1,2,,,,,,,,,0,87,87,81,,,,,,,,,,,,,,,None,None,,None,18.287,,,,,,,,,,,,,,,,,,2019_Sep_19_1637,59.76114664917558,Cloud_Experiment_FR_REAL,001,48,
images/fcloud65-35_D1.5_6.tif,1.5,1,,,,,,,,,0,88,88,59,,,,,,,,,,,,,,,None,None,,None,27.078,,,,,,,,,,,,,,,,,,2019_Sep_19_1637,59.76114664917558,Cloud_Experiment_FR_REAL,001,48,
images/fcloud80-20_D1.9_5.tif,1.9,2,,,,,,,,,0,89,89,106,,,,,,,,,,,,,,,None,None,,None,35.737,,,,,,,,,,,,,,,,,,2019_Sep_19_1637,59.76114664917558,Cloud_Experiment_FR_REAL,001,48,
images/fcloud65-35_D0.9_5.tif,0.9,1,,,,,,,,,0,90,90,40,,,,,,,,,,,,,,,2,space,2.7969372,3,1.851,,,,,,,,,,,,,,,,,,2019_Sep_19_1637,59.76114664917558,Cloud_Experiment_FR_REAL,001,48,
images/fcloud80-20_D1_6.tif,1.0,2,,,,,,,,,0,91,91,80,,,,,,,,,,,,,,,1,space,4.8442774,2,0.519,,,,,,,,,,,,,,,,,,2019_Sep_19_1637,59.76114664917558,Cloud_Experiment_FR_REAL,001,48,
images/fcloud_D1.2_5.tif,1.2,0,,,,,,,,,0,92,92,13,,,,,,,,,,,,,,,None,None,,None,9.577,,,,,,,,,,,,,,,,,,2019_Sep_19_1637,59.76114664917558,Cloud_Experiment_FR_REAL,001,48,
images/fcloud_D0.9_5.tif,0.9,0,,,,,,,,,0,93,93,4,,,,,,,,,,,,,,,2,space,1.7372223,4,1.701,,,,,,,,,,,,,,,,,,2019_Sep_19_1637,59.76114664917558,Cloud_Experiment_FR_REAL,001,48,
images/fcloud_D0.8_5.tif,0.8,0,,,,,,,,,0,94,94,1,,,,,,,,,,,,,,,1,None,,1,0.468,,,,,,,,,,,,,,,,,,2019_Sep_19_1637,59.76114664917558,Cloud_Experiment_FR_REAL,001,48,
images/fcloud65-35_D1.4_6.tif,1.4,1,,,,,,,,,0,95,95,56,,,,,,,,,,,,,,,None,None,,None,10.177,,,,,,,,,,,,,,,,,,2019_Sep_19_1637,59.76114664917558,Cloud_Experiment_FR_REAL,001,48,
images/fcloud65-35_D1.2_4.tif,1.2,1,,,,,,,,,0,96,96,48,,,,,,,,,,,,,,,None,None,,None,18.685,,,,,,,,,,,,,,,,,,2019_Sep_19_1637,59.76114664917558,Cloud_Experiment_FR_REAL,001,48,
images/fcloud_D1.4_5.tif,1.4,0,,,,,,,,,0,97,97,19,,,,,,,,,,,,,,,2,space,5.7905598,3,1.119,,,,,,,,,,,,,,,,,,2019_Sep_19_1637,59.76114664917558,Cloud_Experiment_FR_REAL,001,48,
images/fcloud80-20_D1.6_5.tif,1.6,2,,,,,,,,,0,98,98,97,,,,,,,,,,,,,,,None,None,,None,9.676,,,,,,,,,,,,,,,,,,2019_Sep_19_1637,59.76114664917558,Cloud_Experiment_FR_REAL,001,48,
images/fcloud_D1.7_4.tif,1.7,0,,,,,,,,,0,99,99,27,,,,,,,,,,,,,,,None,None,,None,18.37,,,,,,,,,,,,,,,,,,2019_Sep_19_1637,59.76114664917558,Cloud_Experiment_FR_REAL,001,48,
images/fcloud80-20_D1.2_5.tif,1.2,2,,,,,,,,,0,100,100,85,,,,,,,,,,,,,,,None,None,,None,26.962,,,,,,,,,,,,,,,,,,2019_Sep_19_1637,59.76114664917558,Cloud_Experiment_FR_REAL,001,48,
images/fcloud65-35_D0.8_5.tif,0.8,1,,,,,,,,,0,101,101,37,,,,,,,,,,,,,,,None,None,,None,36.188,,,,,,,,,,,,,,,,,,2019_Sep_19_1637,59.76114664917558,Cloud_Experiment_FR_REAL,001,48,
images/fcloud80-20_D1.3_4.tif,1.3,2,,,,,,,,,0,102,102,87,,,,,,,,,,,,,,,None,None,,None,44.863,,,,,,,,,,,,,,,,,,2019_Sep_19_1637,59.76114664917558,Cloud_Experiment_FR_REAL,001,48,
images/fcloud65-35_D1.2_5.tif,1.2,1,,,,,,,,,0,103,103,49,,,,,,,,,,,,,,,None,None,,None,53.473,,,,,,,,,,,,,,,,,,2019_Sep_19_1637,59.76114664917558,Cloud_Experiment_FR_REAL,001,48,
images/fcloud65-35_D1.8_4.tif,1.8,1,,,,,,,,,0,104,104,66,,,,,,,,,,,,,,,None,None,,None,62.581,,,,,,,,,,,,,,,,,,2019_Sep_19_1637,59.76114664917558,Cloud_Experiment_FR_REAL,001,48,
images/fcloud80-20_D1.5_4.tif,1.5,2,,,,,,,,,0,105,105,93,,,,,,,,,,,,,,,1,space,5.5545824,2,0.636,,,,,,,,,,,,,,,,,,2019_Sep_19_1637,59.76114664917558,Cloud_Experiment_FR_REAL,001,48,
images/fcloud80-20_D0.8_5.tif,0.8,2,,,,,,,,,0,106,106,73,,,,,,,,,,,,,,,None,None,,None,8.993,,,,,,,,,,,,,,,,,,2019_Sep_19_1637,59.76114664917558,Cloud_Experiment_FR_REAL,001,48,
images/fcloud_D1.5_5.tif,1.5,0,,,,,,,,,0,107,107,22,,,,,,,,,,,,,,,2,space,3.3314829,1,0.653,,,,,,,,,,,,,,,,,,2019_Sep_19_1637,59.76114664917558,Cloud_Experiment_FR_REAL,001,48,
,,,,,,,,,,,,,,,,,,,,,,,,,,,,,,,,,,,,,,,,,,,,,,space,2.0846783,,,,2019_Sep_19_1637,59.76114664917558,Cloud_Experiment_FR_REAL,001,48,
,,,,,,,,,,,,,,,,,,,,,,,,,4,15.746,,,,,,,,,,,,,,,,,,,,,,,,,2019_Sep_19_1637,59.76114664917558,Cloud_Experiment_FR_REAL,001,48,
,,,,,,,,,,,,,,,,,,,,,,,,,,,,,,,,,,5,,,,,,,,,,,,,,,,,2019_Sep_19_1637,59.76114664917558,Cloud_Experiment_FR_REAL,001,48,
,,,,,,,,,,,,,,,,,,,,,,,,,,,,,,,,,,,5,,,,,,,,,,,,,,,,2019_Sep_19_1637,59.76114664917558,Cloud_Experiment_FR_REAL,001,48,
,,,,,,,,,,,,,,,,,,,,,,,,,,,,,,,,,,,,3,,,,,,,,,,,,,,,2019_Sep_19_1637,59.76114664917558,Cloud_Experiment_FR_REAL,001,48,
,,,,,,,,,,,,,,,,,,,,,,,,,,,,,,,,,,,,,3,,,,,,,,,,,,,,2019_Sep_19_1637,59.76114664917558,Cloud_Experiment_FR_REAL,001,48,
,,,,,,,,,,,,,,,,,,,,,,,,,,,,,,,,,,,,,,3,,,,,,,,,,,,,2019_Sep_19_1637,59.76114664917558,Cloud_Experiment_FR_REAL,001,48,
,,,,,,,,,,,,,,,,,,,,,,,,,,,,,,,,,,,,,,,4,,,,,,,,,,,,2019_Sep_19_1637,59.76114664917558,Cloud_Experiment_FR_REAL,001,48,
,,,,,,,,,,,,,,,,,,,,,,,,,,,,,,,,,,,,,,,,4,,,,,,,,,,,2019_Sep_19_1637,59.76114664917558,Cloud_Experiment_FR_REAL,001,48,
,,,,,,,,,,,,,,,,,,,,,,,,,,,,,,,,,,,,,,,,,5,,,,,,,,,,2019_Sep_19_1637,59.76114664917558,Cloud_Experiment_FR_REAL,001,48,
,,,,,,,,,,,,,,,,,,,,,,,,,,,,,,,,,,,,,,,,,,5,,,,,,,,,2019_Sep_19_1637,59.76114664917558,Cloud_Experiment_FR_REAL,001,48,
,,,,,,,,,,,,,,,,,,,,,,,,,,,,,,,,,,,,,,,,,,,3,,,,,,,,2019_Sep_19_1637,59.76114664917558,Cloud_Experiment_FR_REAL,001,48,
,,,,,,,,,,,,,,,,,,,,,,,,,,,,,,,,,,,,,,,,,,,,,,,,space,320.3078319,,2019_Sep_19_1637,59.76114664917558,Cloud_Experiment_FR_REAL,001,48,
images/fcloud65-35_D1.6_9.tif,1.6,1,,,,,,,,,,,,,0,0,0,82,,,,,,,,,,,None,None,,None,385.15,,,,,,,,,,,,,,,,,,2019_Sep_19_1637,59.76114664917558,Cloud_Experiment_FR_REAL,001,48,
images/fcloud_D1.9_7.tif,1.9,0,,,,,,,,,,,,,0,1,1,44,,,,,,,,,,,None,None,,None,394.091,,,,,,,,,,,,,,,,,,2019_Sep_19_1637,59.76114664917558,Cloud_Experiment_FR_REAL,001,48,
images/fcloud_D1.7_10.tif,1.7,0,,,,,,,,,,,,,0,2,2,39,,,,,,,,,,,None,None,,None,402.835,,,,,,,,,,,,,,,,,,2019_Sep_19_1637,59.76114664917558,Cloud_Experiment_FR_REAL,001,48,
images/fcloud65-35_D1.9_8.tif,1.9,1,,,,,,,,,,,,,0,3,3,93,,,,,,,,,,,None,None,,None,414.392,,,,,,,,,,,,,,,,,,2019_Sep_19_1637,59.76114664917558,Cloud_Experiment_FR_REAL,001,48,
images/fcloud65-35_D1.8_10.tif,1.8,1,,,,,,,,,,,,,0,4,4,91,,,,,,,,,,,None,None,,None,423.0,,,,,,,,,,,,,,,,,,2019_Sep_19_1637,59.76114664917558,Cloud_Experiment_FR_REAL,001,48,
images/fcloud_D1_7.tif,1.0,0,,,,,,,,,,,,,0,5,5,8,,,,,,,,,,,None,None,,None,431.609,,,,,,,,,,,,,,,,,,2019_Sep_19_1637,59.76114664917558,Cloud_Experiment_FR_REAL,001,48,
images/fcloud_D1.2_9.tif,1.2,0,,,,,,,,,,,,,0,6,6,18,,,,,,,,,,,1,space,6.9054008,1,0.819,,,,,,,,,,,,,,,,,,2019_Sep_19_1637,59.76114664917558,Cloud_Experiment_FR_REAL,001,48,
images/fcloud65-35_D1.2_8.tif,1.2,1,,,,,,,,,,,,,0,7,7,65,,,,,,,,,,,None,None,,None,9.709,,,,,,,,,,,,,,,,,,2019_Sep_19_1637,59.76114664917558,Cloud_Experiment_FR_REAL,001,48,
images/fcloud_D1.1_8.tif,1.1,0,,,,,,,,,,,,,0,8,8,13,,,,,,,,,,,1,space,8.3603831,2,0.735,,,,,,,,,,,,,,,,,,2019_Sep_19_1637,59.76114664917558,Cloud_Experiment_FR_REAL,001,48,
images/fcloud80-20_D1.8_10.tif,1.8,2,,,,,,,,,,,,,0,9,9,139,,,,,,,,,,,None,None,,None,9.161,,,,,,,,,,,,,,,,,,2019_Sep_19_1637,59.76114664917558,Cloud_Experiment_FR_REAL,001,48,
images/fcloud65-35_D1.9_7.tif,1.9,1,,,,,,,,,,,,,0,10,10,92,,,,,,,,,,,None,None,,None,17.737,,,,,,,,,,,,,,,,,,2019_Sep_19_1637,59.76114664917558,Cloud_Experiment_FR_REAL,001,48,
images/fcloud80-20_D1.2_8.tif,1.2,2,,,,,,,,,,,,,0,11,11,113,,,,,,,,,,,None,None,,None,26.329,,,,,,,,,,,,,,,,,,2019_Sep_19_1637,59.76114664917558,Cloud_Experiment_FR_REAL,001,48,
images/fcloud65-35_D1.7_9.tif,1.7,1,,,,,,,,,,,,,0,12,12,86,,,,,,,,,,,1,space,6.1551529,2,1.818,,,,,,,,,,,,,,,,,,2019_Sep_19_1637,59.76114664917558,Cloud_Experiment_FR_REAL,001,48,
images/fcloud65-35_D1.3_7.tif,1.3,1,,,,,,,,,,,,,0,13,13,68,,,,,,,,,,,None,None,,None,10.842,,,,,,,,,,,,,,,,,,2019_Sep_19_1637,59.76114664917558,Cloud_Experiment_FR_REAL,001,48,
images/fcloud65-35_D1_8.tif,1.0,1,,,,,,,,,,,,,0,14,14,57,,,,,,,,,,,None,None,,None,19.317,,,,,,,,,,,,,,,,,,2019_Sep_19_1637,59.76114664917558,Cloud_Experiment_FR_REAL,001,48,
images/fcloud80-20_D1.3_9.tif,1.3,2,,,,,,,,,,,,,0,15,15,118,,,,,,,,,,,None,None,,None,27.828,,,,,,,,,,,,,,,,,,2019_Sep_19_1637,59.76114664917558,Cloud_Experiment_FR_REAL,001,48,
images/fcloud_D1.6_7.tif,1.6,0,,,,,,,,,,,,,0,16,16,32,,,,,,,,,,,2,space,2.7139588,3,1.085,,,,,,,,,,,,,,,,,,2019_Sep_19_1637,59.76114664917558,Cloud_Experiment_FR_REAL,001,48,
images/fcloud80-20_D1.8_9.tif,1.8,2,,,,,,,,,,,,,0,17,17,138,,,,,,,,,,,None,None,,None,9.91,,,,,,,,,,,,,,,,,,2019_Sep_19_1637,59.76114664917558,Cloud_Experiment_FR_REAL,001,48,
images/fcloud80-20_D1.5_7.tif,1.5,2,,,,,,,,,,,,,0,18,18,124,,,,,,,,,,,None,None,,None,18.568,,,,,,,,,,,,,,,,,,2019_Sep_19_1637,59.76114664917558,Cloud_Experiment_FR_REAL,001,48,
images/fcloud65-35_D0.9_8.tif,0.9,1,,,,,,,,,,,,,0,19,19,53,,,,,,,,,,,None,space,6.0512069,None,26.962,,,,,,,,,,,,,,,,,,2019_Sep_19_1637,59.76114664917558,Cloud_Experiment_FR_REAL,001,48,
images/fcloud80-20_D1.3_7.tif,1.3,2,,,,,,,,,,,,,0,20,20,116,,,,,,,,,,,None,None,,None,35.838,,,,,,,,,,,,,,,,,,2019_Sep_19_1637,59.76114664917558,Cloud_Experiment_FR_REAL,001,48,
images/fcloud_D1.2_7.tif,1.2,0,,,,,,,,,,,,,0,21,21,16,,,,,,,,,,,None,None,,None,44.513,,,,,,,,,,,,,,,,,,2019_Sep_19_1637,59.76114664917558,Cloud_Experiment_FR_REAL,001,48,
images/fcloud80-20_D0.9_7.tif,0.9,2,,,,,,,,,,,,,0,22,22,100,,,,,,,,,,,None,None,,None,53.239,,,,,,,,,,,,,,,,,,2019_Sep_19_1637,59.76114664917558,Cloud_Experiment_FR_REAL,001,48,
images/fcloud_D1.9_8.tif,1.9,0,,,,,,,,,,,,,0,23,23,45,,,,,,,,,,,None,None,,None,61.714,,,,,,,,,,,,,,,,,,2019_Sep_19_1637,59.76114664917558,Cloud_Experiment_FR_REAL,001,48,
images/fcloud80-20_D1.5_9.tif,1.5,2,,,,,,,,,,,,,0,24,24,126,,,,,,,,,,,None,None,,None,70.356,,,,,,,,,,,,,,,,,,2019_Sep_19_1637,59.76114664917558,Cloud_Experiment_FR_REAL,001,48,
images/fcloud_D1.5_7.tif,1.5,0,,,,,,,,,,,,,0,25,25,28,,,,,,,,,,,2,space,3.5598159,3,0.768,,,,,,,,,,,,,,,,,,2019_Sep_19_1637,59.76114664917558,Cloud_Experiment_FR_REAL,001,48,
images/fcloud65-35_D1.6_10.tif,1.6,1,,,,,,,,,,,,,0,26,26,83,,,,,,,,,,,None,None,,None,9.726,,,,,,,,,,,,,,,,,,2019_Sep_19_1637,59.76114664917558,Cloud_Experiment_FR_REAL,001,48,
images/fcloud65-35_D1.5_10.tif,1.5,1,,,,,,,,,,,,,0,27,27,79,,,,,,,,,,,1,space,5.7050181,1,0.619,,,,,,,,,,,,,,,,,,2019_Sep_19_1637,59.76114664917558,Cloud_Experiment_FR_REAL,001,48,
images/fcloud80-20_D1.1_8.tif,1.1,2,,,,,,,,,,,,,0,28,28,109,,,,,,,,,,,None,None,,None,10.541,,,,,,,,,,,,,,,,,,2019_Sep_19_1637,59.76114664917558,Cloud_Experiment_FR_REAL,001,48,
images/fcloud65-35_D1.7_7.tif,1.7,1,,,,,,,,,,,,,0,29,29,84,,,,,,,,,,,None,None,,None,19.501,,,,,,,,,,,,,,,,,,2019_Sep_19_1637,59.76114664917558,Cloud_Experiment_FR_REAL,001,48,
images/fcloud_D1.3_7.tif,1.3,0,,,,,,,,,,,,,0,30,30,20,,,,,,,,,,,None,None,,None,28.293,,,,,,,,,,,,,,,,,,2019_Sep_19_1637,59.76114664917558,Cloud_Experiment_FR_REAL,001,48,
images/fcloud80-20_D1_10.tif,1.0,2,,,,,,,,,,,,,0,31,31,107,,,,,,,,,,,None,None,,None,37.119,,,,,,,,,,,,,,,,,,2019_Sep_19_1637,59.76114664917558,Cloud_Experiment_FR_REAL,001,48,
images/fcloud65-35_D1.2_9.tif,1.2,1,,,,,,,,,,,,,0,32,32,66,,,,,,,,,,,None,None,,None,45.761,,,,,,,,,,,,,,,,,,2019_Sep_19_1637,59.76114664917558,Cloud_Experiment_FR_REAL,001,48,
images/fcloud80-20_D1.8_7.tif,1.8,2,,,,,,,,,,,,,0,33,33,136,,,,,,,,,,,None,None,,None,54.336,,,,,,,,,,,,,,,,,,2019_Sep_19_1637,59.76114664917558,Cloud_Experiment_FR_REAL,001,48,
images/fcloud65-35_D1.1_8.tif,1.1,1,,,,,,,,,,,,,0,34,34,61,,,,,,,,,,,None,None,,None,62.881,,,,,,,,,,,,,,,,,,2019_Sep_19_1637,59.76114664917558,Cloud_Experiment_FR_REAL,001,48,
images/fcloud65-35_D1.3_8.tif,1.3,1,,,,,,,,,,,,,0,35,35,69,,,,,,,,,,,None,None,,None,71.706,,,,,,,,,,,,,,,,,,2019_Sep_19_1637,59.76114664917558,Cloud_Experiment_FR_REAL,001,48,
images/fcloud_D1_10.tif,1.0,0,,,,,,,,,,,,,0,36,36,11,,,,,,,,,,,None,None,,None,80.498,,,,,,,,,,,,,,,,,,2019_Sep_19_1637,59.76114664917558,Cloud_Experiment_FR_REAL,001,48,
images/fcloud_D0.9_9.tif,0.9,0,,,,,,,,,,,,,0,37,37,6,,,,,,,,,,,1,space,4.1045601,2,1.035,,,,,,,,,,,,,,,,,,2019_Sep_19_1637,59.76114664917558,Cloud_Experiment_FR_REAL,001,48,
images/fcloud80-20_D1.3_10.tif,1.3,2,,,,,,,,,,,,,0,38,38,119,,,,,,,,,,,None,None,,None,9.576,,,,,,,,,,,,,,,,,,2019_Sep_19_1637,59.76114664917558,Cloud_Experiment_FR_REAL,001,48,
images/fcloud_D0.8_9.tif,0.8,0,,,,,,,,,,,,,0,39,39,2,,,,,,,,,,,1,space,6.0248872,3,1.651,,,,,,,,,,,,,,,,,,2019_Sep_19_1637,59.76114664917558,Cloud_Experiment_FR_REAL,001,48,
images/fcloud65-35_D1.8_9.tif,1.8,1,,,,,,,,,,,,,0,40,40,90,,,,,,,,,,,None,None,,None,10.092,,,,,,,,,,,,,,,,,,2019_Sep_19_1637,59.76114664917558,Cloud_Experiment_FR_REAL,001,48,
images/fcloud65-35_D1.7_8.tif,1.7,1,,,,,,,,,,,,,0,41,41,85,,,,,,,,,,,None,None,,None,18.586,,,,,,,,,,,,,,,,,,2019_Sep_19_1637,59.76114664917558,Cloud_Experiment_FR_REAL,001,48,
images/fcloud65-35_D0.8_10.tif,0.8,1,,,,,,,,,,,,,0,42,42,51,,,,,,,,,,,None,None,,None,27.128,,,,,,,,,,,,,,,,,,2019_Sep_19_1637,59.76114664917558,Cloud_Experiment_FR_REAL,001,48,
images/fcloud80-20_D1.4_7.tif,1.4,2,,,,,,,,,,,,,0,43,43,120,,,,,,,,,,,None,None,,None,35.736,,,,,,,,,,,,,,,,,,2019_Sep_19_1637,59.76114664917558,Cloud_Experiment_FR_REAL,001,48,
images/fcloud_D1.8_10.tif,1.8,0,,,,,,,,,,,,,0,44,44,43,,,,,,,,,,,None,None,,None,44.496,,,,,,,,,,,,,,,,,,2019_Sep_19_1637,59.76114664917558,Cloud_Experiment_FR_REAL,001,48,
images/fcloud_D1.4_8.tif,1.4,0,,,,,,,,,,,,,0,45,45,25,,,,,,,,,,,1,space,2.6471047,1,0.719,,,,,,,,,,,,,,,,,,2019_Sep_19_1637,59.76114664917558,Cloud_Experiment_FR_REAL,001,48,
images/fcloud65-35_D1_10.tif,1.0,1,,,,,,,,,,,,,0,46,46,59,,,,,,,,,,,None,None,,None,9.361,,,,,,,,,,,,,,,,,,2019_Sep_19_1637,59.76114664917558,Cloud_Experiment_FR_REAL,001,48,
images/fcloud_D1.8_9.tif,1.8,0,,,,,,,,,,,,,0,47,47,42,,,,,,,,,,,None,None,,None,17.803,,,,,,,,,,,,,,,,,,2019_Sep_19_1637,59.76114664917558,Cloud_Experiment_FR_REAL,001,48,
images/fcloud_D1.2_10.tif,1.2,0,,,,,,,,,,,,,0,48,48,19,,,,,,,,,,,None,None,,None,26.496,,,,,,,,,,,,,,,,,,2019_Sep_19_1637,59.76114664917558,Cloud_Experiment_FR_REAL,001,48,
images/fcloud80-20_D1.5_8.tif,1.5,2,,,,,,,,,,,,,0,49,49,125,,,,,,,,,,,None,None,,None,34.971,,,,,,,,,,,,,,,,,,2019_Sep_19_1637,59.76114664917558,Cloud_Experiment_FR_REAL,001,48,
images/fcloud65-35_D1.9_10.tif,1.9,1,,,,,,,,,,,,,0,50,50,95,,,,,,,,,,,None,None,,None,44.613,,,,,,,,,,,,,,,,,,2019_Sep_19_1637,59.76114664917558,Cloud_Experiment_FR_REAL,001,48,
images/fcloud_D0.8_10.tif,0.8,0,,,,,,,,,,,,,0,51,51,3,,,,,,,,,,,1,space,6.7340336,1,0.62,,,,,,,,,,,,,,,,,,2019_Sep_19_1637,59.76114664917558,Cloud_Experiment_FR_REAL,001,48,
images/fcloud65-35_D1.4_8.tif,1.4,1,,,,,,,,,,,,,0,52,52,73,,,,,,,,,,,1,space,6.1368724,1,0.569,,,,,,,,,,,,,,,,,,2019_Sep_19_1637,59.76114664917558,Cloud_Experiment_FR_REAL,001,48,
images/fcloud65-35_D1_7.tif,1.0,1,,,,,,,,,,,,,0,53,53,56,,,,,,,,,,,None,None,,None,9.926,,,,,,,,,,,,,,,,,,2019_Sep_19_1637,59.76114664917558,Cloud_Experiment_FR_REAL,001,48,
images/fcloud_D0.9_10.tif,0.9,0,,,,,,,,,,,,,0,54,54,7,,,,,,,,,,,None,None,,None,20.835,,,,,,,,,,,,,,,,,,2019_Sep_19_1637,59.76114664917558,Cloud_Experiment_FR_REAL,001,48,
images/fcloud_D1.5_9.tif,1.5,0,,,,,,,,,,,,,0,55,55,30,,,,,,,,,,,None,None,,None,29.459,,,,,,,,,,,,,,,,,,2019_Sep_19_1637,59.76114664917558,Cloud_Experiment_FR_REAL,001,48,
images/fcloud_D1.4_7.tif,1.4,0,,,,,,,,,,,,,0,56,56,24,,,,,,,,,,,1,space,4.8372351,2,1.319,,,,,,,,,,,,,,,,,,2019_Sep_19_1637,59.76114664917558,Cloud_Experiment_FR_REAL,001,48,
images/fcloud_D1.1_10.tif,1.1,0,,,,,,,,,,,,,0,57,57,15,,,,,,,,,,,None,None,,None,9.843,,,,,,,,,,,,,,,,,,2019_Sep_19_1637,59.76114664917558,Cloud_Experiment_FR_REAL,001,48,
images/fcloud65-35_D1.1_7.tif,1.1,1,,,,,,,,,,,,,0,58,58,60,,,,,,,,,,,None,None,,None,18.669,,,,,,,,,,,,,,,,,,2019_Sep_19_1637,59.76114664917558,Cloud_Experiment_FR_REAL,001,48,
images/fcloud65-35_D1.3_9.tif,1.3,1,,,,,,,,,,,,,0,59,59,70,,,,,,,,,,,None,None,,None,27.129,,,,,,,,,,,,,,,,,,2019_Sep_19_1637,59.76114664917558,Cloud_Experiment_FR_REAL,001,48,
images/fcloud_D1.6_8.tif,1.6,0,,,,,,,,,,,,,0,60,60,33,,,,,,,,,,,None,None,,None,35.787,,,,,,,,,,,,,,,,,,2019_Sep_19_1637,59.76114664917558,Cloud_Experiment_FR_REAL,001,48,
images/fcloud_D1.3_10.tif,1.3,0,,,,,,,,,,,,,0,61,61,23,,,,,,,,,,,2,space,4.9903767,4,1.35,,,,,,,,,,,,,,,,,,2019_Sep_19_1637,59.76114664917558,Cloud_Experiment_FR_REAL,001,48,
images/fcloud65-35_D1.4_9.tif,1.4,1,,,,,,,,,,,,,0,62,62,74,,,,,,,,,,,1,space,5.0847711,2,1.934,,,,,,,,,,,,,,,,,,2019_Sep_19_1637,59.76114664917558,Cloud_Experiment_FR_REAL,001,48,
images/fcloud_D1.8_7.tif,1.8,0,,,,,,,,,,,,,0,63,63,40,,,,,,,,,,,None,None,,None,10.443,,,,,,,,,,,,,,,,,,2019_Sep_19_1637,59.76114664917558,Cloud_Experiment_FR_REAL,001,48,
images/fcloud_D1.1_9.tif,1.1,0,,,,,,,,,,,,,0,64,64,14,,,,,,,,,,,None,None,,None,21.367,,,,,,,,,,,,,,,,,,2019_Sep_19_1637,59.76114664917558,Cloud_Experiment_FR_REAL,001,48,
images/fcloud80-20_D1.9_9.tif,1.9,2,,,,,,,,,,,,,0,65,65,142,,,,,,,,,,,None,None,,None,29.976,,,,,,,,,,,,,,,,,,2019_Sep_19_1637,59.76114664917558,Cloud_Experiment_FR_REAL,001,48,
images/fcloud80-20_D1.9_10.tif,1.9,2,,,,,,,,,,,,,0,66,66,143,,,,,,,,,,,None,None,,None,38.618,,,,,,,,,,,,,,,,,,2019_Sep_19_1637,59.76114664917558,Cloud_Experiment_FR_REAL,001,48,
images/fcloud80-20_D1.4_9.tif,1.4,2,,,,,,,,,,,,,0,67,67,122,,,,,,,,,,,None,None,,None,47.195,,,,,,,,,,,,,,,,,,2019_Sep_19_1637,59.76114664917558,Cloud_Experiment_FR_REAL,001,48,
images/fcloud_D1.7_9.tif,1.7,0,,,,,,,,,,,,,0,68,68,38,,,,,,,,,,,None,None,,None,55.803,,,,,,,,,,,,,,,,,,2019_Sep_19_1637,59.76114664917558,Cloud_Experiment_FR_REAL,001,48,
images/fcloud80-20_D1.7_10.tif,1.7,2,,,,,,,,,,,,,0,69,69,135,,,,,,,,,,,None,None,,None,64.362,,,,,,,,,,,,,,,,,,2019_Sep_19_1637,59.76114664917558,Cloud_Experiment_FR_REAL,001,48,
images/fcloud_D1.5_10.tif,1.5,0,,,,,,,,,,,,,0,70,70,31,,,,,,,,,,,1,space,7.067262,1,0.635,,,,,,,,,,,,,,,,,,2019_Sep_19_1637,59.76114664917558,Cloud_Experiment_FR_REAL,001,48,
images/fcloud80-20_D1.1_10.tif,1.1,2,,,,,,,,,,,,,0,71,71,111,,,,,,,,,,,None,None,,None,9.011,,,,,,,,,,,,,,,,,,2019_Sep_19_1637,59.76114664917558,Cloud_Experiment_FR_REAL,001,48,
images/fcloud80-20_D0.9_8.tif,0.9,2,,,,,,,,,,,,,0,72,72,101,,,,,,,,,,,None,None,,None,17.453,,,,,,,,,,,,,,,,,,2019_Sep_19_1637,59.76114664917558,Cloud_Experiment_FR_REAL,001,48,
images/fcloud65-35_D0.8_7.tif,0.8,1,,,,,,,,,,,,,0,73,73,48,,,,,,,,,,,None,None,,None,26.062,,,,,,,,,,,,,,,,,,2019_Sep_19_1637,59.76114664917558,Cloud_Experiment_FR_REAL,001,48,
images/fcloud80-20_D1.7_7.tif,1.7,2,,,,,,,,,,,,,0,74,74,132,,,,,,,,,,,None,None,,None,34.621,,,,,,,,,,,,,,,,,,2019_Sep_19_1637,59.76114664917558,Cloud_Experiment_FR_REAL,001,48,
images/fcloud80-20_D1.6_7.tif,1.6,2,,,,,,,,,,,,,0,75,75,128,,,,,,,,,,,None,None,,None,43.164,,,,,,,,,,,,,,,,,,2019_Sep_19_1637,59.76114664917558,Cloud_Experiment_FR_REAL,001,48,
images/fcloud_D0.9_7.tif,0.9,0,,,,,,,,,,,,,0,76,76,4,,,,,,,,,,,2,space,2.0883387,4,1.218,,,,,,,,,,,,,,,,,,2019_Sep_19_1637,59.76114664917558,Cloud_Experiment_FR_REAL,001,48,
images/fcloud65-35_D1.6_7.tif,1.6,1,,,,,,,,,,,,,0,77,77,80,,,,,,,,,,,2,space,5.0613146,1,0.519,,,,,,,,,,,,,,,,,,2019_Sep_19_1637,59.76114664917558,Cloud_Experiment_FR_REAL,001,48,
images/fcloud65-35_D1.4_7.tif,1.4,1,,,,,,,,,,,,,0,78,78,72,,,,,,,,,,,None,None,,None,9.327,,,,,,,,,,,,,,,,,,2019_Sep_19_1637,59.76114664917558,Cloud_Experiment_FR_REAL,001,48,
images/fcloud65-35_D1_9.tif,1.0,1,,,,,,,,,,,,,0,79,79,58,,,,,,,,,,,None,None,,None,17.803,,,,,,,,,,,,,,,,,,2019_Sep_19_1637,59.76114664917558,Cloud_Experiment_FR_REAL,001,48,
images/fcloud80-20_D1.2_9.tif,1.2,2,,,,,,,,,,,,,0,80,80,114,,,,,,,,,,,None,None,,None,26.296,,,,,,,,,,,,,,,,,,2019_Sep_19_1637,59.76114664917558,Cloud_Experiment_FR_REAL,001,48,
images/fcloud_D1_9.tif,1.0,0,,,,,,,,,,,,,0,81,81,10,,,,,,,,,,,1,space,2.3036891,3,0.636,,,,,,,,,,,,,,,,,,2019_Sep_19_1637,59.76114664917558,Cloud_Experiment_FR_REAL,001,48,
images/fcloud65-35_D1.8_8.tif,1.8,1,,,,,,,,,,,,,0,82,82,89,,,,,,,,,,,None,None,,None,9.011,,,,,,,,,,,,,,,,,,2019_Sep_19_1637,59.76114664917558,Cloud_Experiment_FR_REAL,001,48,
images/fcloud65-35_D1.2_10.tif,1.2,1,,,,,,,,,,,,,0,83,83,67,,,,,,,,,,,2,space,4.684161,2,1.235,,,,,,,,,,,,,,,,,,2019_Sep_19_1637,59.76114664917558,Cloud_Experiment_FR_REAL,001,48,
images/fcloud_D1.3_9.tif,1.3,0,,,,,,,,,,,,,0,84,84,22,,,,,,,,,,,2,space,3.9464187,1,0.653,,,,,,,,,,,,,,,,,,2019_Sep_19_1637,59.76114664917558,Cloud_Experiment_FR_REAL,001,48,
images/fcloud65-35_D0.9_7.tif,0.9,1,,,,,,,,,,,,,0,85,85,52,,,,,,,,,,,1,space,4.2055984,2,0.785,,,,,,,,,,,,,,,,,,2019_Sep_19_1637,59.76114664917558,Cloud_Experiment_FR_REAL,001,48,
images/fcloud80-20_D1.6_9.tif,1.6,2,,,,,,,,,,,,,0,86,86,130,,,,,,,,,,,None,None,,None,9.593,,,,,,,,,,,,,,,,,,2019_Sep_19_1637,59.76114664917558,Cloud_Experiment_FR_REAL,001,48,
images/fcloud80-20_D0.8_10.tif,0.8,2,,,,,,,,,,,,,0,87,87,99,,,,,,,,,,,None,None,,None,18.07,,,,,,,,,,,,,,,,,,2019_Sep_19_1637,59.76114664917558,Cloud_Experiment_FR_REAL,001,48,
images/fcloud_D1.2_8.tif,1.2,0,,,,,,,,,,,,,0,88,88,17,,,,,,,,,,,1,space,3.2271935,4,1.651,,,,,,,,,,,,,,,,,,2019_Sep_19_1637,59.76114664917558,Cloud_Experiment_FR_REAL,001,48,
images/fcloud80-20_D1.4_8.tif,1.4,2,,,,,,,,,,,,,0,89,89,121,,,,,,,,,,,None,None,,None,10.775,,,,,,,,,,,,,,,,,,2019_Sep_19_1637,59.76114664917558,Cloud_Experiment_FR_REAL,001,48,
images/fcloud65-35_D1.1_10.tif,1.1,1,,,,,,,,,,,,,0,90,90,63,,,,,,,,,,,3,space,3.1064593,3,1.236,,,,,,,,,,,,,,,,,,2019_Sep_19_1637,59.76114664917558,Cloud_Experiment_FR_REAL,001,48,
images/fcloud65-35_D0.8_8.tif,0.8,1,,,,,,,,,,,,,0,91,91,49,,,,,,,,,,,None,None,,None,9.744,,,,,,,,,,,,,,,,,,2019_Sep_19_1637,59.76114664917558,Cloud_Experiment_FR_REAL,001,48,
images/fcloud_D1.6_9.tif,1.6,0,,,,,,,,,,,,,0,92,92,34,,,,,,,,,,,1,space,5.5901609,3,0.836,,,,,,,,,,,,,,,,,,2019_Sep_19_1637,59.76114664917558,Cloud_Experiment_FR_REAL,001,48,
images/fcloud80-20_D1.9_7.tif,1.9,2,,,,,,,,,,,,,0,93,93,140,,,,,,,,,,,None,None,,None,9.743,,,,,,,,,,,,,,,,,,2019_Sep_19_1637,59.76114664917558,Cloud_Experiment_FR_REAL,001,48,
images/fcloud80-20_D1.3_8.tif,1.3,2,,,,,,,,,,,,,0,94,94,117,,,,,,,,,,,None,None,,None,18.137,,,,,,,,,,,,,,,,,,2019_Sep_19_1637,59.76114664917558,Cloud_Experiment_FR_REAL,001,48,
images/fcloud_D0.8_7.tif,0.8,0,,,,,,,,,,,,,0,95,95,0,,,,,,,,,,,None,None,,None,26.731,,,,,,,,,,,,,,,,,,2019_Sep_19_1637,59.76114664917558,Cloud_Experiment_FR_REAL,001,48,
images/fcloud65-35_D1.4_10.tif,1.4,1,,,,,,,,,,,,,0,96,96,75,,,,,,,,,,,1,space,1.5795828,2,0.952,,,,,,,,,,,,,,,,,,2019_Sep_19_1637,59.76114664917558,Cloud_Experiment_FR_REAL,001,48,
images/fcloud80-20_D1_7.tif,1.0,2,,,,,,,,,,,,,0,97,97,104,,,,,,,,,,,1,space,1.6299537,3,1.102,,,,,,,,,,,,,,,,,,2019_Sep_19_1637,59.76114664917558,Cloud_Experiment_FR_REAL,001,48,
images/fcloud_D1.3_8.tif,1.3,0,,,,,,,,,,,,,0,98,98,21,,,,,,,,,,,None,None,,None,9.892,,,,,,,,,,,,,,,,,,2019_Sep_19_1637,59.76114664917558,Cloud_Experiment_FR_REAL,001,48,
images/fcloud_D1.5_8.tif,1.5,0,,,,,,,,,,,,,0,99,99,29,,,,,,,,,,,2,space,3.0553898,4,0.919,,,,,,,,,,,,,,,,,,2019_Sep_19_1637,59.76114664917558,Cloud_Experiment_FR_REAL,001,48,
images/fcloud80-20_D0.8_8.tif,0.8,2,,,,,,,,,,,,,0,100,100,97,,,,,,,,,,,1,space,2.7425967,3,1.553,,,,,,,,,,,,,,,,,,2019_Sep_19_1637,59.76114664917558,Cloud_Experiment_FR_REAL,001,48,
images/fcloud_D1.4_10.tif,1.4,0,,,,,,,,,,,,,0,101,101,27,,,,,,,,,,,None,None,,None,10.076,,,,,,,,,,,,,,,,,,2019_Sep_19_1637,59.76114664917558,Cloud_Experiment_FR_REAL,001,48,
images/fcloud80-20_D1.1_7.tif,1.1,2,,,,,,,,,,,,,0,102,102,108,,,,,,,,,,,None,None,,None,18.52,,,,,,,,,,,,,,,,,,2019_Sep_19_1637,59.76114664917558,Cloud_Experiment_FR_REAL,001,48,
images/fcloud_D1.1_7.tif,1.1,0,,,,,,,,,,,,,0,103,103,12,,,,,,,,,,,None,None,,None,27.245,,,,,,,,,,,,,,,,,,2019_Sep_19_1637,59.76114664917558,Cloud_Experiment_FR_REAL,001,48,
images/fcloud_D0.9_8.tif,0.9,0,,,,,,,,,,,,,0,104,104,5,,,,,,,,,,,None,None,,None,35.788,,,,,,,,,,,,,,,,,,2019_Sep_19_1637,59.76114664917558,Cloud_Experiment_FR_REAL,001,48,
images/fcloud80-20_D1.6_10.tif,1.6,2,,,,,,,,,,,,,0,105,105,131,,,,,,,,,,,None,None,,None,44.263,,,,,,,,,,,,,,,,,,2019_Sep_19_1637,59.76114664917558,Cloud_Experiment_FR_REAL,001,48,
images/fcloud80-20_D1.9_8.tif,1.9,2,,,,,,,,,,,,,0,106,106,141,,,,,,,,,,,None,None,,None,52.839,,,,,,,,,,,,,,,,,,2019_Sep_19_1637,59.76114664917558,Cloud_Experiment_FR_REAL,001,48,
images/fcloud65-35_D1.8_7.tif,1.8,1,,,,,,,,,,,,,0,107,107,88,,,,,,,,,,,None,None,,None,61.532,,,,,,,,,,,,,,,,,,2019_Sep_19_1637,59.76114664917558,Cloud_Experiment_FR_REAL,001,48,
images/fcloud65-35_D1.9_9.tif,1.9,1,,,,,,,,,,,,,0,108,108,94,,,,,,,,,,,None,None,,None,69.924,,,,,,,,,,,,,,,,,,2019_Sep_19_1637,59.76114664917558,Cloud_Experiment_FR_REAL,001,48,
images/fcloud_D1.9_10.tif,1.9,0,,,,,,,,,,,,,0,109,109,47,,,,,,,,,,,None,None,,None,78.268,,,,,,,,,,,,,,,,,,2019_Sep_19_1637,59.76114664917558,Cloud_Experiment_FR_REAL,001,48,
images/fcloud65-35_D1.3_10.tif,1.3,1,,,,,,,,,,,,,0,110,110,71,,,,,,,,,,,1,space,6.28577,1,0.519,,,,,,,,,,,,,,,,,,2019_Sep_19_1637,59.76114664917558,Cloud_Experiment_FR_REAL,001,48,
images/fcloud_D1.9_9.tif,1.9,0,,,,,,,,,,,,,0,111,111,46,,,,,,,,,,,None,None,,None,8.944,,,,,,,,,,,,,,,,,,2019_Sep_19_1637,59.76114664917558,Cloud_Experiment_FR_REAL,001,48,
images/fcloud_D0.8_8.tif,0.8,0,,,,,,,,,,,,,0,112,112,1,,,,,,,,,,,None,None,,None,18.719,,,,,,,,,,,,,,,,,,2019_Sep_19_1637,59.76114664917558,Cloud_Experiment_FR_REAL,001,48,
images/fcloud80-20_D0.8_9.tif,0.8,2,,,,,,,,,,,,,0,113,113,98,,,,,,,,,,,None,None,,None,27.162,,,,,,,,,,,,,,,,,,2019_Sep_19_1637,59.76114664917558,Cloud_Experiment_FR_REAL,001,48,
images/fcloud_D1.8_8.tif,1.8,0,,,,,,,,,,,,,0,114,114,41,,,,,,,,,,,None,None,,None,35.786,,,,,,,,,,,,,,,,,,2019_Sep_19_1637,59.76114664917558,Cloud_Experiment_FR_REAL,001,48,
images/fcloud80-20_D1.7_9.tif,1.7,2,,,,,,,,,,,,,0,115,115,134,,,,,,,,,,,None,None,,None,44.78,,,,,,,,,,,,,,,,,,2019_Sep_19_1637,59.76114664917558,Cloud_Experiment_FR_REAL,001,48,
images/fcloud_D1.7_7.tif,1.7,0,,,,,,,,,,,,,0,116,116,36,,,,,,,,,,,None,None,,None,53.489,,,,,,,,,,,,,,,,,,2019_Sep_19_1637,59.76114664917558,Cloud_Experiment_FR_REAL,001,48,
images/fcloud_D1.7_8.tif,1.7,0,,,,,,,,,,,,,0,117,117,37,,,,,,,,,,,None,None,,None,62.047,,,,,,,,,,,,,,,,,,2019_Sep_19_1637,59.76114664917558,Cloud_Experiment_FR_REAL,001,48,
images/fcloud80-20_D1.8_8.tif,1.8,2,,,,,,,,,,,,,0,118,118,137,,,,,,,,,,,None,None,,None,70.44,,,,,,,,,,,,,,,,,,2019_Sep_19_1637,59.76114664917558,Cloud_Experiment_FR_REAL,001,48,
images/fcloud80-20_D1_9.tif,1.0,2,,,,,,,,,,,,,0,119,119,106,,,,,,,,,,,None,None,,None,78.867,,,,,,,,,,,,,,,,,,2019_Sep_19_1637,59.76114664917558,Cloud_Experiment_FR_REAL,001,48,
images/fcloud_D1_8.tif,1.0,0,,,,,,,,,,,,,0,120,120,9,,,,,,,,,,,1,space,1.4687884,4,0.569,,,,,,,,,,,,,,,,,,2019_Sep_19_1637,59.76114664917558,Cloud_Experiment_FR_REAL,001,48,
images/fcloud80-20_D1.7_8.tif,1.7,2,,,,,,,,,,,,,0,121,121,133,,,,,,,,,,,None,None,,None,9.011,,,,,,,,,,,,,,,,,,2019_Sep_19_1637,59.76114664917558,Cloud_Experiment_FR_REAL,001,48,
images/fcloud65-35_D0.9_9.tif,0.9,1,,,,,,,,,,,,,0,122,122,54,,,,,,,,,,,None,None,,None,17.869,,,,,,,,,,,,,,,,,,2019_Sep_19_1637,59.76114664917558,Cloud_Experiment_FR_REAL,001,48,
images/fcloud80-20_D1.2_7.tif,1.2,2,,,,,,,,,,,,,0,123,123,112,,,,,,,,,,,None,None,,None,26.728,,,,,,,,,,,,,,,,,,2019_Sep_19_1637,59.76114664917558,Cloud_Experiment_FR_REAL,001,48,
images/fcloud80-20_D0.9_9.tif,0.9,2,,,,,,,,,,,,,0,124,124,102,,,,,,,,,,,None,None,,None,35.271,,,,,,,,,,,,,,,,,,2019_Sep_19_1637,59.76114664917558,Cloud_Experiment_FR_REAL,001,48,
images/fcloud80-20_D1_8.tif,1.0,2,,,,,,,,,,,,,0,125,125,105,,,,,,,,,,,None,None,,None,43.73,,,,,,,,,,,,,,,,,,2019_Sep_19_1637,59.76114664917558,Cloud_Experiment_FR_REAL,001,48,
images/fcloud65-35_D1.7_10.tif,1.7,1,,,,,,,,,,,,,0,126,126,87,,,,,,,,,,,None,None,,None,52.123,,,,,,,,,,,,,,,,,,2019_Sep_19_1637,59.76114664917558,Cloud_Experiment_FR_REAL,001,48,
images/fcloud65-35_D1.5_9.tif,1.5,1,,,,,,,,,,,,,0,127,127,78,,,,,,,,,,,None,None,,None,60.699,,,,,,,,,,,,,,,,,,2019_Sep_19_1637,59.76114664917558,Cloud_Experiment_FR_REAL,001,48,
images/fcloud65-35_D1.1_9.tif,1.1,1,,,,,,,,,,,,,0,128,128,62,,,,,,,,,,,1,space,2.5731923,2,1.035,,,,,,,,,,,,,,,,,,2019_Sep_19_1637,59.76114664917558,Cloud_Experiment_FR_REAL,001,48,
images/fcloud65-35_D1.5_8.tif,1.5,1,,,,,,,,,,,,,0,129,129,77,,,,,,,,,,,None,None,,None,9.876,,,,,,,,,,,,,,,,,,2019_Sep_19_1637,59.76114664917558,Cloud_Experiment_FR_REAL,001,48,
images/fcloud80-20_D1.1_9.tif,1.1,2,,,,,,,,,,,,,0,130,130,110,,,,,,,,,,,1,space,7.8053655,1,0.469,,,,,,,,,,,,,,,,,,2019_Sep_19_1637,59.76114664917558,Cloud_Experiment_FR_REAL,001,48,
images/fcloud80-20_D1.2_10.tif,1.2,2,,,,,,,,,,,,,0,131,131,115,,,,,,,,,,,1,space,4.8534529,1,0.502,,,,,,,,,,,,,,,,,,2019_Sep_19_1637,59.76114664917558,Cloud_Experiment_FR_REAL,001,48,
images/fcloud65-35_D1.5_7.tif,1.5,1,,,,,,,,,,,,,0,132,132,76,,,,,,,,,,,1,space,4.4712633,1,2.301,,,,,,,,,,,,,,,,,,2019_Sep_19_1637,59.76114664917558,Cloud_Experiment_FR_REAL,001,48,
images/fcloud65-35_D0.8_9.tif,0.8,1,,,,,,,,,,,,,0,133,133,50,,,,,,,,,,,1,space,4.0446651,3,0.502,,,,,,,,,,,,,,,,,,2019_Sep_19_1637,59.76114664917558,Cloud_Experiment_FR_REAL,001,48,
images/fcloud80-20_D0.9_10.tif,0.9,2,,,,,,,,,,,,,0,134,134,103,,,,,,,,,,,None,None,,None,9.078,,,,,,,,,,,,,,,,,,2019_Sep_19_1637,59.76114664917558,Cloud_Experiment_FR_REAL,001,48,
images/fcloud_D1.4_9.tif,1.4,0,,,,,,,,,,,,,0,135,135,26,,,,,,,,,,,1,space,7.5839362,1,1.568,,,,,,,,,,,,,,,,,,2019_Sep_19_1637,59.76114664917558,Cloud_Experiment_FR_REAL,001,48,
images/fcloud_D1.6_10.tif,1.6,0,,,,,,,,,,,,,0,136,136,35,,,,,,,,,,,None,None,,None,10.058,,,,,,,,,,,,,,,,,,2019_Sep_19_1637,59.76114664917558,Cloud_Experiment_FR_REAL,001,48,
images/fcloud65-35_D0.9_10.tif,0.9,1,,,,,,,,,,,,,0,137,137,55,,,,,,,,,,,None,None,,None,18.652,,,,,,,,,,,,,,,,,,2019_Sep_19_1637,59.76114664917558,Cloud_Experiment_FR_REAL,001,48,
images/fcloud65-35_D1.6_8.tif,1.6,1,,,,,,,,,,,,,0,138,138,81,,,,,,,,,,,None,None,,None,27.212,,,,,,,,,,,,,,,,,,2019_Sep_19_1637,59.76114664917558,Cloud_Experiment_FR_REAL,001,48,
images/fcloud80-20_D1.6_8.tif,1.6,2,,,,,,,,,,,,,0,139,139,129,,,,,,,,,,,None,None,,None,35.688,,,,,,,,,,,,,,,,,,2019_Sep_19_1637,59.76114664917558,Cloud_Experiment_FR_REAL,001,48,
images/fcloud65-35_D1.2_7.tif,1.2,1,,,,,,,,,,,,,0,140,140,64,,,,,,,,,,,1,space,2.1264612,2,0.453,,,,,,,,,,,,,,,,,,2019_Sep_19_1637,59.76114664917558,Cloud_Experiment_FR_REAL,001,48,
images/fcloud80-20_D0.8_7.tif,0.8,2,,,,,,,,,,,,,0,141,141,96,,,,,,,,,,,None,None,,None,9.677,,,,,,,,,,,,,,,,,,2019_Sep_19_1637,59.76114664917558,Cloud_Experiment_FR_REAL,001,48,
images/fcloud80-20_D1.5_10.tif,1.5,2,,,,,,,,,,,,,0,142,142,127,,,,,,,,,,,None,None,,None,18.169,,,,,,,,,,,,,,,,,,2019_Sep_19_1637,59.76114664917558,Cloud_Experiment_FR_REAL,001,48,
images/fcloud80-20_D1.4_10.tif,1.4,2,,,,,,,,,,,,,0,143,143,123,,,,,,,,,,,None,None,,None,26.63,,,,,,,,,,,,,,,,,,2019_Sep_19_1637,59.76114664917558,Cloud_Experiment_FR_REAL,001,48,
,,,,,,,,,,,,,,,,,,,,,,,,,3,7.591,,,,,,,,,,,,,,,,,,,,,,,,,2019_Sep_19_1637,59.76114664917558,Cloud_Experiment_FR_REAL,001,48,
,,,,,,,,,,,,,,,,,,,,,,,,,,,,,,,,,,2,,,,,,,,,,,,,,,,,2019_Sep_19_1637,59.76114664917558,Cloud_Experiment_FR_REAL,001,48,
,,,,,,,,,,,,,,,,,,,,,,,,,,,,,,,,,,,3,,,,,,,,,,,,,,,,2019_Sep_19_1637,59.76114664917558,Cloud_Experiment_FR_REAL,001,48,
,,,,,,,,,,,,,,,,,,,,,,,,,,,,,,,,,,,,1,,,,,,,,,,,,,,,2019_Sep_19_1637,59.76114664917558,Cloud_Experiment_FR_REAL,001,48,
,,,,,,,,,,,,,,,,,,,,,,,,,,,,,,,,,,,,,3,,,,,,,,,,,,,,2019_Sep_19_1637,59.76114664917558,Cloud_Experiment_FR_REAL,001,48,
,,,,,,,,,,,,,,,,,,,,,,,,,,,,,,,,,,,,,,2,,,,,,,,,,,,,2019_Sep_19_1637,59.76114664917558,Cloud_Experiment_FR_REAL,001,48,
,,,,,,,,,,,,,,,,,,,,,,,,,,,,,,,,,,,,,,,2,,,,,,,,,,,,2019_Sep_19_1637,59.76114664917558,Cloud_Experiment_FR_REAL,001,48,
,,,,,,,,,,,,,,,,,,,,,,,,,,,,,,,,,,,,,,,,6,,,,,,,,,,,2019_Sep_19_1637,59.76114664917558,Cloud_Experiment_FR_REAL,001,48,
,,,,,,,,,,,,,,,,,,,,,,,,,,,,,,,,,,,,,,,,,6,,,,,,,,,,2019_Sep_19_1637,59.76114664917558,Cloud_Experiment_FR_REAL,001,48,
,,,,,,,,,,,,,,,,,,,,,,,,,,,,,,,,,,,,,,,,,,5,,,,,,,,,2019_Sep_19_1637,59.76114664917558,Cloud_Experiment_FR_REAL,001,48,
,,,,,,,,,,,,,,,,,,,,,,,,,,,,,,,,,,,,,,,,,,,4,,,,,,,,2019_Sep_19_1637,59.76114664917558,Cloud_Experiment_FR_REAL,001,48,
,,,,,,,,,,,,,,,,,,,,,,,,,,,,,,,,,,,,,,,,,,,,,,,,,,3,2019_Sep_19_1637,59.76114664917558,Cloud_Experiment_FR_REAL,001,48,
