ImageFile,FD,Contrast,trials_4.thisRepN,trials_4.thisTrialN,trials_4.thisN,trials_4.thisIndex,trials.thisRepN,trials.thisTrialN,trials.thisN,trials.thisIndex,trials_2.thisRepN,trials_2.thisTrialN,trials_2.thisN,trials_2.thisIndex,trials_3.thisRepN,trials_3.thisTrialN,trials_3.thisN,trials_3.thisIndex,end_instructions.keys,end_instructions.rt,key_resp_4.keys,key_resp_4.rt,key_resp_6.keys,key_resp_6.rt,Fatigue.response,Fatigue.rt,key_resp_5.keys,key_resp_5.rt,n_objets.response,reaction_time.keys,vividness.response,vividness.rt,reaction_time.rt,Flow01.response,Flow02.response,Flow03.response,Flow04.response,Flow05.response,Flow06.response,Flow07.response,Flow08.response,Flow09.response,Flow10.response,key_resp_2.keys,key_resp_2.rt,key_resp_8.keys,key_resp_8.rt,key_resp_3.keys,key_resp_3.rt,Redondance_question.response,date,frameRate,expName,session,participant,
,,,,,,,,,,,,,,,,,,,space,8.8866799,,,,,,,,,,,,,,,,,,,,,,,,,,,,,,,2019_Sep_23_1424,59.89767081917178,Cloud_Experiment_FR_REAL,001,49,
,,,,,,,,,,,,,,,,,,,,,space,54.6348581,,,,,,,,,,,,,,,,,,,,,,,,,,,,,2019_Sep_23_1424,59.89767081917178,Cloud_Experiment_FR_REAL,001,49,
,,,,,,,,,,,,,,,,,,,,,,,space,149.8222128,,,,,,,,,,,,,,,,,,,,,,,,,,,2019_Sep_23_1424,59.89767081917178,Cloud_Experiment_FR_REAL,001,49,
,,,,,,,,,,,,,,,,,,,,,,,,,7,18.496,,,,,,,,,,,,,,,,,,,,,,,,,2019_Sep_23_1424,59.89767081917178,Cloud_Experiment_FR_REAL,001,49,
,,,,,,,,,,,,,,,,,,,,,,,,,,,space,3.4471093,,,,,,,,,,,,,,,,,,,,,,,2019_Sep_23_1424,59.89767081917178,Cloud_Experiment_FR_REAL,001,49,
pratique/fcloud_D1.4_30,1.4,0,0,0,0,1,,,,,,,,,,,,,,,,,,,,,,,1,None,1,9.178,,,,,,,,,,,,,,,,,,,2019_Sep_23_1424,59.89767081917178,Cloud_Experiment_FR_REAL,001,49,
pratique/fcloud65-35_D1.6_30,1.6,1,0,1,1,2,,,,,,,,,,,,,,,,,,,,,,,1,space,5,1.734,2.9634252,,,,,,,,,,,,,,,,,,2019_Sep_23_1424,59.89767081917178,Cloud_Experiment_FR_REAL,001,49,
pratique/fcloud80-20_D1.5_30,1.5,2,0,2,2,8,,,,,,,,,,,,,,,,,,,,,,,None,None,None,14.572,,,,,,,,,,,,,,,,,,,2019_Sep_23_1424,59.89767081917178,Cloud_Experiment_FR_REAL,001,49,
pratique/fcloud65-35_D1.2_30,1.2,1,0,3,3,3,,,,,,,,,,,,,,,,,,,,,,,1,None,3,5.216,,,,,,,,,,,,,,,,,,,2019_Sep_23_1424,59.89767081917178,Cloud_Experiment_FR_REAL,001,49,
pratique/fcloud65-35_D1.9_29,1.9,1,0,4,4,7,,,,,,,,,,,,,,,,,,,,,,,None,None,None,15.038,,,,,,,,,,,,,,,,,,,2019_Sep_23_1424,59.89767081917178,Cloud_Experiment_FR_REAL,001,49,
pratique/fcloud80-20_D1_30,1.0,2,0,5,5,9,,,,,,,,,,,,,,,,,,,,,,,1,space,3,4.265,4.4396626,,,,,,,,,,,,,,,,,,2019_Sep_23_1424,59.89767081917178,Cloud_Experiment_FR_REAL,001,49,
pratique/fcloud80-20_D1.8_30,1.8,2,0,6,6,4,,,,,,,,,,,,,,,,,,,,,,,None,None,None,13.689,,,,,,,,,,,,,,,,,,,2019_Sep_23_1424,59.89767081917178,Cloud_Experiment_FR_REAL,001,49,
pratique/fcloud65-35_D1.3_30,1.3,1,0,7,7,6,,,,,,,,,,,,,,,,,,,,,,,1,None,2,2.1,,,,,,,,,,,,,,,,,,,2019_Sep_23_1424,59.89767081917178,Cloud_Experiment_FR_REAL,001,49,
pratique/fcloud_D1.6_28,1.6,0,0,8,8,5,,,,,,,,,,,,,,,,,,,,,,,1,space,4,2.267,3.2338494,,,,,,,,,,,,,,,,,,2019_Sep_23_1424,59.89767081917178,Cloud_Experiment_FR_REAL,001,49,
pratique/fcloud_D0.8_30,0.8,0,0,9,9,0,,,,,,,,,,,,,,,,,,,,,,,None,None,None,13.123,,,,,,,,,,,,,,,,,,,2019_Sep_23_1424,59.89767081917178,Cloud_Experiment_FR_REAL,001,49,
,,,,,,,,,,,,,,,,,,,,,,,,,,,,,,,,,,3,,,,,,,,,,,,,,,,,2019_Sep_23_1424,59.89767081917178,Cloud_Experiment_FR_REAL,001,49,
,,,,,,,,,,,,,,,,,,,,,,,,,,,,,,,,,,,5,,,,,,,,,,,,,,,,2019_Sep_23_1424,59.89767081917178,Cloud_Experiment_FR_REAL,001,49,
,,,,,,,,,,,,,,,,,,,,,,,,,,,,,,,,,,,,6,,,,,,,,,,,,,,,2019_Sep_23_1424,59.89767081917178,Cloud_Experiment_FR_REAL,001,49,
,,,,,,,,,,,,,,,,,,,,,,,,,,,,,,,,,,,,,7,,,,,,,,,,,,,,2019_Sep_23_1424,59.89767081917178,Cloud_Experiment_FR_REAL,001,49,
,,,,,,,,,,,,,,,,,,,,,,,,,,,,,,,,,,,,,,5,,,,,,,,,,,,,2019_Sep_23_1424,59.89767081917178,Cloud_Experiment_FR_REAL,001,49,
,,,,,,,,,,,,,,,,,,,,,,,,,,,,,,,,,,,,,,,5,,,,,,,,,,,,2019_Sep_23_1424,59.89767081917178,Cloud_Experiment_FR_REAL,001,49,
,,,,,,,,,,,,,,,,,,,,,,,,,,,,,,,,,,,,,,,,3,,,,,,,,,,,2019_Sep_23_1424,59.89767081917178,Cloud_Experiment_FR_REAL,001,49,
,,,,,,,,,,,,,,,,,,,,,,,,,,,,,,,,,,,,,,,,,4,,,,,,,,,,2019_Sep_23_1424,59.89767081917178,Cloud_Experiment_FR_REAL,001,49,
,,,,,,,,,,,,,,,,,,,,,,,,,,,,,,,,,,,,,,,,,,6,,,,,,,,,2019_Sep_23_1424,59.89767081917178,Cloud_Experiment_FR_REAL,001,49,
,,,,,,,,,,,,,,,,,,,,,,,,,,,,,,,,,,,,,,,,,,,1,,,,,,,,2019_Sep_23_1424,59.89767081917178,Cloud_Experiment_FR_REAL,001,49,
,,,,,,,,,,,,,,,,,,,,,,,,,,,,,,,,,,,,,,,,,,,,space,3.0502312,,,,,,2019_Sep_23_1424,59.89767081917178,Cloud_Experiment_FR_REAL,001,49,
images/fcloud_D1_2.tif,1.0,0,,,,,0,0,0,7,,,,,,,,,,,,,,,,,,,2,space,4,5.232,3.6954043,,,,,,,,,,,,,,,,,,2019_Sep_23_1424,59.89767081917178,Cloud_Experiment_FR_REAL,001,49,
images/fcloud_D1.6_1.tif,1.6,0,,,,,0,1,1,24,,,,,,,,,,,,,,,,,,,None,None,None,14.838,,,,,,,,,,,,,,,,,,,2019_Sep_23_1424,59.89767081917178,Cloud_Experiment_FR_REAL,001,49,
images/fcloud80-20_D0.8_1.tif,0.8,2,,,,,0,2,2,72,,,,,,,,,,,,,,,,,,,None,None,None,24.762,,,,,,,,,,,,,,,,,,,2019_Sep_23_1424,59.89767081917178,Cloud_Experiment_FR_REAL,001,49,
images/fcloud80-20_D1.5_3.tif,1.5,2,,,,,0,3,3,95,,,,,,,,,,,,,,,,,,,None,None,None,34.439,,,,,,,,,,,,,,,,,,,2019_Sep_23_1424,59.89767081917178,Cloud_Experiment_FR_REAL,001,49,
images/fcloud_D1.9_3.tif,1.9,0,,,,,0,4,4,35,,,,,,,,,,,,,,,,,,,2,space,3,3.016,7.7498961,,,,,,,,,,,,,,,,,,2019_Sep_23_1424,59.89767081917178,Cloud_Experiment_FR_REAL,001,49,
images/fcloud_D1.9_1.tif,1.9,0,,,,,0,5,5,33,,,,,,,,,,,,,,,,,,,None,None,None,14.105,,,,,,,,,,,,,,,,,,,2019_Sep_23_1424,59.89767081917178,Cloud_Experiment_FR_REAL,001,49,
images/fcloud80-20_D1.1_1.tif,1.1,2,,,,,0,6,6,81,,,,,,,,,,,,,,,,,,,None,space,None,23.664,7.7238907,,,,,,,,,,,,,,,,,,2019_Sep_23_1424,59.89767081917178,Cloud_Experiment_FR_REAL,001,49,
images/fcloud80-20_D1.3_3.tif,1.3,2,,,,,0,7,7,89,,,,,,,,,,,,,,,,,,,None,None,None,33.174,,,,,,,,,,,,,,,,,,,2019_Sep_23_1424,59.89767081917178,Cloud_Experiment_FR_REAL,001,49,
images/fcloud_D1.5_1.tif,1.5,0,,,,,0,8,8,21,,,,,,,,,,,,,,,,,,,1,space,4,3.933,2.5150138,,,,,,,,,,,,,,,,,,2019_Sep_23_1424,59.89767081917178,Cloud_Experiment_FR_REAL,001,49,
images/fcloud65-35_D1.1_3.tif,1.1,1,,,,,0,9,9,47,,,,,,,,,,,,,,,,,,,1,space,4,2.035,4.3273726,,,,,,,,,,,,,,,,,,2019_Sep_23_1424,59.89767081917178,Cloud_Experiment_FR_REAL,001,49,
images/fcloud65-35_D1.3_3.tif,1.3,1,,,,,0,10,10,53,,,,,,,,,,,,,,,,,,,None,None,None,11.774,,,,,,,,,,,,,,,,,,,2019_Sep_23_1424,59.89767081917178,Cloud_Experiment_FR_REAL,001,49,
images/fcloud80-20_D1.5_1.tif,1.5,2,,,,,0,11,11,93,,,,,,,,,,,,,,,,,,,1,None,2,3.617,,,,,,,,,,,,,,,,,,,2019_Sep_23_1424,59.89767081917178,Cloud_Experiment_FR_REAL,001,49,
images/fcloud80-20_D1.6_3.tif,1.6,2,,,,,0,12,12,98,,,,,,,,,,,,,,,,,,,None,None,None,16.82,,,,,,,,,,,,,,,,,,,2019_Sep_23_1424,59.89767081917178,Cloud_Experiment_FR_REAL,001,49,
images/fcloud_D0.9_2.tif,0.9,0,,,,,0,13,13,4,,,,,,,,,,,,,,,,,,,None,None,None,25.978,,,,,,,,,,,,,,,,,,,2019_Sep_23_1424,59.89767081917178,Cloud_Experiment_FR_REAL,001,49,
images/fcloud_D0.8_3.tif,0.8,0,,,,,0,14,14,2,,,,,,,,,,,,,,,,,,,None,None,None,35.22,,,,,,,,,,,,,,,,,,,2019_Sep_23_1424,59.89767081917178,Cloud_Experiment_FR_REAL,001,49,
images/fcloud_D1.1_2.tif,1.1,0,,,,,0,15,15,10,,,,,,,,,,,,,,,,,,,None,None,None,44.629,,,,,,,,,,,,,,,,,,,2019_Sep_23_1424,59.89767081917178,Cloud_Experiment_FR_REAL,001,49,
images/fcloud65-35_D1.9_3.tif,1.9,1,,,,,0,16,16,71,,,,,,,,,,,,,,,,,,,None,None,None,53.955,,,,,,,,,,,,,,,,,,,2019_Sep_23_1424,59.89767081917178,Cloud_Experiment_FR_REAL,001,49,
images/fcloud80-20_D1.7_3.tif,1.7,2,,,,,0,17,17,101,,,,,,,,,,,,,,,,,,,None,None,None,64.561,,,,,,,,,,,,,,,,,,,2019_Sep_23_1424,59.89767081917178,Cloud_Experiment_FR_REAL,001,49,
images/fcloud_D1_1.tif,1.0,0,,,,,0,18,18,6,,,,,,,,,,,,,,,,,,,1,space,1,2.084,7.0966723,,,,,,,,,,,,,,,,,,2019_Sep_23_1424,59.89767081917178,Cloud_Experiment_FR_REAL,001,49,
images/fcloud_D1.5_2.tif,1.5,0,,,,,0,19,19,22,,,,,,,,,,,,,,,,,,,1,None,1,1.751,,,,,,,,,,,,,,,,,,,2019_Sep_23_1424,59.89767081917178,Cloud_Experiment_FR_REAL,001,49,
images/fcloud65-35_D0.8_3.tif,0.8,1,,,,,0,20,20,38,,,,,,,,,,,,,,,,,,,None,None,None,11.075,,,,,,,,,,,,,,,,,,,2019_Sep_23_1424,59.89767081917178,Cloud_Experiment_FR_REAL,001,49,
images/fcloud_D1.7_1.tif,1.7,0,,,,,0,21,21,27,,,,,,,,,,,,,,,,,,,1,space,3,1.451,9.6488257,,,,,,,,,,,,,,,,,,2019_Sep_23_1424,59.89767081917178,Cloud_Experiment_FR_REAL,001,49,
images/fcloud80-20_D1.8_1.tif,1.8,2,,,,,0,22,22,102,,,,,,,,,,,,,,,,,,,None,None,None,11.608,,,,,,,,,,,,,,,,,,,2019_Sep_23_1424,59.89767081917178,Cloud_Experiment_FR_REAL,001,49,
images/fcloud80-20_D1.1_2.tif,1.1,2,,,,,0,23,23,82,,,,,,,,,,,,,,,,,,,None,None,None,21.65,,,,,,,,,,,,,,,,,,,2019_Sep_23_1424,59.89767081917178,Cloud_Experiment_FR_REAL,001,49,
images/fcloud_D1.5_3.tif,1.5,0,,,,,0,24,24,23,,,,,,,,,,,,,,,,,,,2,None,2,2.6,,,,,,,,,,,,,,,,,,,2019_Sep_23_1424,59.89767081917178,Cloud_Experiment_FR_REAL,001,49,
images/fcloud80-20_D0.8_3.tif,0.8,2,,,,,0,25,25,74,,,,,,,,,,,,,,,,,,,None,None,None,11.94,,,,,,,,,,,,,,,,,,,2019_Sep_23_1424,59.89767081917178,Cloud_Experiment_FR_REAL,001,49,
images/fcloud65-35_D1.2_3.tif,1.2,1,,,,,0,26,26,50,,,,,,,,,,,,,,,,,,,1,space,5,1.571,2.9150141,,,,,,,,,,,,,,,,,,2019_Sep_23_1424,59.89767081917178,Cloud_Experiment_FR_REAL,001,49,
images/fcloud_D1.9_2.tif,1.9,0,,,,,0,27,27,34,,,,,,,,,,,,,,,,,,,None,None,None,10.809,,,,,,,,,,,,,,,,,,,2019_Sep_23_1424,59.89767081917178,Cloud_Experiment_FR_REAL,001,49,
images/fcloud_D1.2_2.tif,1.2,0,,,,,0,28,28,13,,,,,,,,,,,,,,,,,,,1,None,1,2.616,,,,,,,,,,,,,,,,,,,2019_Sep_23_1424,59.89767081917178,Cloud_Experiment_FR_REAL,001,49,
images/fcloud65-35_D1.8_2.tif,1.8,1,,,,,0,29,29,67,,,,,,,,,,,,,,,,,,,1,space,4,1.551,7.0182891,,,,,,,,,,,,,,,,,,2019_Sep_23_1424,59.89767081917178,Cloud_Experiment_FR_REAL,001,49,
images/fcloud80-20_D1.2_3.tif,1.2,2,,,,,0,30,30,86,,,,,,,,,,,,,,,,,,,None,None,None,11.026,,,,,,,,,,,,,,,,,,,2019_Sep_23_1424,59.89767081917178,Cloud_Experiment_FR_REAL,001,49,
images/fcloud65-35_D1.5_3.tif,1.5,1,,,,,0,31,31,59,,,,,,,,,,,,,,,,,,,1,None,2,1.418,,,,,,,,,,,,,,,,,,,2019_Sep_23_1424,59.89767081917178,Cloud_Experiment_FR_REAL,001,49,
images/fcloud80-20_D1_2.tif,1.0,2,,,,,0,32,32,79,,,,,,,,,,,,,,,,,,,None,None,None,13.972,,,,,,,,,,,,,,,,,,,2019_Sep_23_1424,59.89767081917178,Cloud_Experiment_FR_REAL,001,49,
images/fcloud65-35_D1.1_2.tif,1.1,1,,,,,0,33,33,46,,,,,,,,,,,,,,,,,,,None,None,None,23.381,,,,,,,,,,,,,,,,,,,2019_Sep_23_1424,59.89767081917178,Cloud_Experiment_FR_REAL,001,49,
images/fcloud80-20_D1.9_3.tif,1.9,2,,,,,0,34,34,107,,,,,,,,,,,,,,,,,,,1,None,2,1.203,,,,,,,,,,,,,,,,,,,2019_Sep_23_1424,59.89767081917178,Cloud_Experiment_FR_REAL,001,49,
images/fcloud80-20_D1_1.tif,1.0,2,,,,,0,35,35,78,,,,,,,,,,,,,,,,,,,None,None,None,11.192,,,,,,,,,,,,,,,,,,,2019_Sep_23_1424,59.89767081917178,Cloud_Experiment_FR_REAL,001,49,
images/fcloud65-35_D0.8_2.tif,0.8,1,,,,,0,36,36,37,,,,,,,,,,,,,,,,,,,1,space,4,3.284,3.9544789,,,,,,,,,,,,,,,,,,2019_Sep_23_1424,59.89767081917178,Cloud_Experiment_FR_REAL,001,49,
images/fcloud_D0.8_2.tif,0.8,0,,,,,0,37,37,1,,,,,,,,,,,,,,,,,,,2,space,5,2.467,4.551787,,,,,,,,,,,,,,,,,,2019_Sep_23_1424,59.89767081917178,Cloud_Experiment_FR_REAL,001,49,
images/fcloud65-35_D1.1_1.tif,1.1,1,,,,,0,38,38,45,,,,,,,,,,,,,,,,,,,1,None,3,2.3,,,,,,,,,,,,,,,,,,,2019_Sep_23_1424,59.89767081917178,Cloud_Experiment_FR_REAL,001,49,
images/fcloud_D1.7_2.tif,1.7,0,,,,,0,39,39,28,,,,,,,,,,,,,,,,,,,3,space,4,4.765,3.0014252,,,,,,,,,,,,,,,,,,2019_Sep_23_1424,59.89767081917178,Cloud_Experiment_FR_REAL,001,49,
images/fcloud65-35_D1.6_3.tif,1.6,1,,,,,0,40,40,62,,,,,,,,,,,,,,,,,,,None,None,None,13.823,,,,,,,,,,,,,,,,,,,2019_Sep_23_1424,59.89767081917178,Cloud_Experiment_FR_REAL,001,49,
images/fcloud65-35_D1.5_2.tif,1.5,1,,,,,0,41,41,58,,,,,,,,,,,,,,,,,,,None,None,None,22.848,,,,,,,,,,,,,,,,,,,2019_Sep_23_1424,59.89767081917178,Cloud_Experiment_FR_REAL,001,49,
images/fcloud_D1.8_3.tif,1.8,0,,,,,0,42,42,32,,,,,,,,,,,,,,,,,,,None,None,None,31.958,,,,,,,,,,,,,,,,,,,2019_Sep_23_1424,59.89767081917178,Cloud_Experiment_FR_REAL,001,49,
images/fcloud80-20_D1.5_2.tif,1.5,2,,,,,0,43,43,94,,,,,,,,,,,,,,,,,,,1,space,1,1.202,9.0695346,,,,,,,,,,,,,,,,,,2019_Sep_23_1424,59.89767081917178,Cloud_Experiment_FR_REAL,001,49,
images/fcloud65-35_D1.4_3.tif,1.4,1,,,,,0,44,44,56,,,,,,,,,,,,,,,,,,,None,None,None,9.843,,,,,,,,,,,,,,,,,,,2019_Sep_23_1424,59.89767081917178,Cloud_Experiment_FR_REAL,001,49,
images/fcloud_D0.9_3.tif,0.9,0,,,,,0,45,45,5,,,,,,,,,,,,,,,,,,,1,space,2,4.05,5.6049467,,,,,,,,,,,,,,,,,,2019_Sep_23_1424,59.89767081917178,Cloud_Experiment_FR_REAL,001,49,
images/fcloud_D1.3_1.tif,1.3,0,,,,,0,46,46,15,,,,,,,,,,,,,,,,,,,None,None,None,13.191,,,,,,,,,,,,,,,,,,,2019_Sep_23_1424,59.89767081917178,Cloud_Experiment_FR_REAL,001,49,
images/fcloud_D1.4_2.tif,1.4,0,,,,,0,47,47,19,,,,,,,,,,,,,,,,,,,None,None,None,22.399,,,,,,,,,,,,,,,,,,,2019_Sep_23_1424,59.89767081917178,Cloud_Experiment_FR_REAL,001,49,
images/fcloud_D1.2_1.tif,1.2,0,,,,,0,48,48,12,,,,,,,,,,,,,,,,,,,None,None,None,31.424,,,,,,,,,,,,,,,,,,,2019_Sep_23_1424,59.89767081917178,Cloud_Experiment_FR_REAL,001,49,
images/fcloud80-20_D0.9_2.tif,0.9,2,,,,,0,49,49,76,,,,,,,,,,,,,,,,,,,None,None,None,40.75,,,,,,,,,,,,,,,,,,,2019_Sep_23_1424,59.89767081917178,Cloud_Experiment_FR_REAL,001,49,
images/fcloud80-20_D1.6_1.tif,1.6,2,,,,,0,50,50,96,,,,,,,,,,,,,,,,,,,None,None,None,49.676,,,,,,,,,,,,,,,,,,,2019_Sep_23_1424,59.89767081917178,Cloud_Experiment_FR_REAL,001,49,
images/fcloud_D1.1_1.tif,1.1,0,,,,,0,51,51,9,,,,,,,,,,,,,,,,,,,2,None,2,1.335,,,,,,,,,,,,,,,,,,,2019_Sep_23_1424,59.89767081917178,Cloud_Experiment_FR_REAL,001,49,
images/fcloud80-20_D1.4_2.tif,1.4,2,,,,,0,52,52,91,,,,,,,,,,,,,,,,,,,1,space,3,2.433,4.4622005,,,,,,,,,,,,,,,,,,2019_Sep_23_1424,59.89767081917178,Cloud_Experiment_FR_REAL,001,49,
images/fcloud65-35_D1.9_1.tif,1.9,1,,,,,0,53,53,69,,,,,,,,,,,,,,,,,,,2,space,4,1.252,7.7161749,,,,,,,,,,,,,,,,,,2019_Sep_23_1424,59.89767081917178,Cloud_Experiment_FR_REAL,001,49,
images/fcloud80-20_D0.9_3.tif,0.9,2,,,,,0,54,54,77,,,,,,,,,,,,,,,,,,,None,None,None,10.209,,,,,,,,,,,,,,,,,,,2019_Sep_23_1424,59.89767081917178,Cloud_Experiment_FR_REAL,001,49,
images/fcloud_D1.3_3.tif,1.3,0,,,,,0,55,55,17,,,,,,,,,,,,,,,,,,,1,space,4,0.968,7.4417189,,,,,,,,,,,,,,,,,,2019_Sep_23_1424,59.89767081917178,Cloud_Experiment_FR_REAL,001,49,
images/fcloud65-35_D1.6_2.tif,1.6,1,,,,,0,56,56,61,,,,,,,,,,,,,,,,,,,None,None,None,10.858,,,,,,,,,,,,,,,,,,,2019_Sep_23_1424,59.89767081917178,Cloud_Experiment_FR_REAL,001,49,
images/fcloud_D1.8_1.tif,1.8,0,,,,,0,57,57,30,,,,,,,,,,,,,,,,,,,None,None,None,20.716,,,,,,,,,,,,,,,,,,,2019_Sep_23_1424,59.89767081917178,Cloud_Experiment_FR_REAL,001,49,
images/fcloud80-20_D1.7_2.tif,1.7,2,,,,,0,58,58,100,,,,,,,,,,,,,,,,,,,None,None,None,29.61,,,,,,,,,,,,,,,,,,,2019_Sep_23_1424,59.89767081917178,Cloud_Experiment_FR_REAL,001,49,
images/fcloud80-20_D1.1_3.tif,1.1,2,,,,,0,59,59,83,,,,,,,,,,,,,,,,,,,3,space,3,4.316,4.1372581,,,,,,,,,,,,,,,,,,2019_Sep_23_1424,59.89767081917178,Cloud_Experiment_FR_REAL,001,49,
images/fcloud65-35_D1.5_1.tif,1.5,1,,,,,0,60,60,57,,,,,,,,,,,,,,,,,,,None,None,None,13.306,,,,,,,,,,,,,,,,,,,2019_Sep_23_1424,59.89767081917178,Cloud_Experiment_FR_REAL,001,49,
images/fcloud_D1.3_2.tif,1.3,0,,,,,0,61,61,16,,,,,,,,,,,,,,,,,,,1,None,3,4.865,,,,,,,,,,,,,,,,,,,2019_Sep_23_1424,59.89767081917178,Cloud_Experiment_FR_REAL,001,49,
images/fcloud80-20_D1.4_3.tif,1.4,2,,,,,0,62,62,92,,,,,,,,,,,,,,,,,,,None,None,None,14.155,,,,,,,,,,,,,,,,,,,2019_Sep_23_1424,59.89767081917178,Cloud_Experiment_FR_REAL,001,49,
images/fcloud80-20_D1.4_1.tif,1.4,2,,,,,0,63,63,90,,,,,,,,,,,,,,,,,,,None,None,None,23.447,,,,,,,,,,,,,,,,,,,2019_Sep_23_1424,59.89767081917178,Cloud_Experiment_FR_REAL,001,49,
images/fcloud65-35_D1.9_2.tif,1.9,1,,,,,0,64,64,70,,,,,,,,,,,,,,,,,,,None,None,None,32.357,,,,,,,,,,,,,,,,,,,2019_Sep_23_1424,59.89767081917178,Cloud_Experiment_FR_REAL,001,49,
images/fcloud65-35_D1_2.tif,1.0,1,,,,,0,65,65,43,,,,,,,,,,,,,,,,,,,None,None,None,40.866,,,,,,,,,,,,,,,,,,,2019_Sep_23_1424,59.89767081917178,Cloud_Experiment_FR_REAL,001,49,
images/fcloud65-35_D0.9_3.tif,0.9,1,,,,,0,66,66,41,,,,,,,,,,,,,,,,,,,1,space,3,1.951,6.6527431,,,,,,,,,,,,,,,,,,2019_Sep_23_1424,59.89767081917178,Cloud_Experiment_FR_REAL,001,49,
images/fcloud_D0.9_1.tif,0.9,0,,,,,0,67,67,3,,,,,,,,,,,,,,,,,,,None,None,None,10.841,,,,,,,,,,,,,,,,,,,2019_Sep_23_1424,59.89767081917178,Cloud_Experiment_FR_REAL,001,49,
images/fcloud_D1.7_3.tif,1.7,0,,,,,0,68,68,29,,,,,,,,,,,,,,,,,,,1,space,3,1.451,5.1750253,,,,,,,,,,,,,,,,,,2019_Sep_23_1424,59.89767081917178,Cloud_Experiment_FR_REAL,001,49,
images/fcloud65-35_D1.8_1.tif,1.8,1,,,,,0,69,69,66,,,,,,,,,,,,,,,,,,,3,space,4,1.485,4.0641059,,,,,,,,,,,,,,,,,,2019_Sep_23_1424,59.89767081917178,Cloud_Experiment_FR_REAL,001,49,
images/fcloud65-35_D1.7_1.tif,1.7,1,,,,,0,70,70,63,,,,,,,,,,,,,,,,,,,None,None,None,10.643,,,,,,,,,,,,,,,,,,,2019_Sep_23_1424,59.89767081917178,Cloud_Experiment_FR_REAL,001,49,
images/fcloud65-35_D1.2_2.tif,1.2,1,,,,,0,71,71,49,,,,,,,,,,,,,,,,,,,None,None,None,19.485,,,,,,,,,,,,,,,,,,,2019_Sep_23_1424,59.89767081917178,Cloud_Experiment_FR_REAL,001,49,
images/fcloud65-35_D1.2_1.tif,1.2,1,,,,,0,72,72,48,,,,,,,,,,,,,,,,,,,None,None,None,28.561,,,,,,,,,,,,,,,,,,,2019_Sep_23_1424,59.89767081917178,Cloud_Experiment_FR_REAL,001,49,
images/fcloud_D1.2_3.tif,1.2,0,,,,,0,73,73,14,,,,,,,,,,,,,,,,,,,1,None,1,0.719,,,,,,,,,,,,,,,,,,,2019_Sep_23_1424,59.89767081917178,Cloud_Experiment_FR_REAL,001,49,
images/fcloud80-20_D1.3_1.tif,1.3,2,,,,,0,74,74,87,,,,,,,,,,,,,,,,,,,None,None,None,9.693,,,,,,,,,,,,,,,,,,,2019_Sep_23_1424,59.89767081917178,Cloud_Experiment_FR_REAL,001,49,
images/fcloud65-35_D1.7_2.tif,1.7,1,,,,,0,75,75,64,,,,,,,,,,,,,,,,,,,1,None,1,1.552,,,,,,,,,,,,,,,,,,,2019_Sep_23_1424,59.89767081917178,Cloud_Experiment_FR_REAL,001,49,
images/fcloud80-20_D0.9_1.tif,0.9,2,,,,,0,76,76,75,,,,,,,,,,,,,,,,,,,None,None,None,11.275,,,,,,,,,,,,,,,,,,,2019_Sep_23_1424,59.89767081917178,Cloud_Experiment_FR_REAL,001,49,
images/fcloud_D1.4_3.tif,1.4,0,,,,,0,77,77,20,,,,,,,,,,,,,,,,,,,1,space,3,2.55,5.6963855,,,,,,,,,,,,,,,,,,2019_Sep_23_1424,59.89767081917178,Cloud_Experiment_FR_REAL,001,49,
images/fcloud65-35_D1.4_1.tif,1.4,1,,,,,0,78,78,54,,,,,,,,,,,,,,,,,,,None,None,None,11.608,,,,,,,,,,,,,,,,,,,2019_Sep_23_1424,59.89767081917178,Cloud_Experiment_FR_REAL,001,49,
images/fcloud80-20_D1.3_2.tif,1.3,2,,,,,0,79,79,88,,,,,,,,,,,,,,,,,,,1,space,4,1.334,2.9356432,,,,,,,,,,,,,,,,,,2019_Sep_23_1424,59.89767081917178,Cloud_Experiment_FR_REAL,001,49,
images/fcloud_D0.8_1.tif,0.8,0,,,,,0,80,80,0,,,,,,,,,,,,,,,,,,,5,space,5,2.368,1.7917279,,,,,,,,,,,,,,,,,,2019_Sep_23_1424,59.89767081917178,Cloud_Experiment_FR_REAL,001,49,
images/fcloud_D1.6_2.tif,1.6,0,,,,,0,81,81,25,,,,,,,,,,,,,,,,,,,None,None,None,11.642,,,,,,,,,,,,,,,,,,,2019_Sep_23_1424,59.89767081917178,Cloud_Experiment_FR_REAL,001,49,
images/fcloud80-20_D1.2_2.tif,1.2,2,,,,,0,82,82,85,,,,,,,,,,,,,,,,,,,None,None,None,20.467,,,,,,,,,,,,,,,,,,,2019_Sep_23_1424,59.89767081917178,Cloud_Experiment_FR_REAL,001,49,
images/fcloud80-20_D1.6_2.tif,1.6,2,,,,,0,83,83,97,,,,,,,,,,,,,,,,,,,None,None,None,28.96,,,,,,,,,,,,,,,,,,,2019_Sep_23_1424,59.89767081917178,Cloud_Experiment_FR_REAL,001,49,
images/fcloud80-20_D1.9_1.tif,1.9,2,,,,,0,84,84,105,,,,,,,,,,,,,,,,,,,None,None,None,37.885,,,,,,,,,,,,,,,,,,,2019_Sep_23_1424,59.89767081917178,Cloud_Experiment_FR_REAL,001,49,
images/fcloud80-20_D1.7_1.tif,1.7,2,,,,,0,85,85,99,,,,,,,,,,,,,,,,,,,None,None,None,46.462,,,,,,,,,,,,,,,,,,,2019_Sep_23_1424,59.89767081917178,Cloud_Experiment_FR_REAL,001,49,
images/fcloud_D1.8_2.tif,1.8,0,,,,,0,86,86,31,,,,,,,,,,,,,,,,,,,None,None,None,55.12,,,,,,,,,,,,,,,,,,,2019_Sep_23_1424,59.89767081917178,Cloud_Experiment_FR_REAL,001,49,
images/fcloud65-35_D1.4_2.tif,1.4,1,,,,,0,87,87,55,,,,,,,,,,,,,,,,,,,None,None,None,63.647,,,,,,,,,,,,,,,,,,,2019_Sep_23_1424,59.89767081917178,Cloud_Experiment_FR_REAL,001,49,
images/fcloud65-35_D1.3_1.tif,1.3,1,,,,,0,88,88,51,,,,,,,,,,,,,,,,,,,2,space,2,2.067,6.5465948,,,,,,,,,,,,,,,,,,2019_Sep_23_1424,59.89767081917178,Cloud_Experiment_FR_REAL,001,49,
images/fcloud80-20_D0.8_2.tif,0.8,2,,,,,0,89,89,73,,,,,,,,,,,,,,,,,,,None,None,None,11.508,,,,,,,,,,,,,,,,,,,2019_Sep_23_1424,59.89767081917178,Cloud_Experiment_FR_REAL,001,49,
images/fcloud65-35_D0.9_2.tif,0.9,1,,,,,0,90,90,40,,,,,,,,,,,,,,,,,,,None,None,None,20.0,,,,,,,,,,,,,,,,,,,2019_Sep_23_1424,59.89767081917178,Cloud_Experiment_FR_REAL,001,49,
images/fcloud65-35_D1.3_2.tif,1.3,1,,,,,0,91,91,52,,,,,,,,,,,,,,,,,,,3,space,4,1.285,4.0063056,,,,,,,,,,,,,,,,,,2019_Sep_23_1424,59.89767081917178,Cloud_Experiment_FR_REAL,001,49,
images/fcloud65-35_D1.6_1.tif,1.6,1,,,,,0,92,92,60,,,,,,,,,,,,,,,,,,,None,None,None,10.342,,,,,,,,,,,,,,,,,,,2019_Sep_23_1424,59.89767081917178,Cloud_Experiment_FR_REAL,001,49,
images/fcloud65-35_D1_1.tif,1.0,1,,,,,0,93,93,42,,,,,,,,,,,,,,,,,,,1,space,3,0.551,3.8989326,,,,,,,,,,,,,,,,,,2019_Sep_23_1424,59.89767081917178,Cloud_Experiment_FR_REAL,001,49,
images/fcloud80-20_D1.9_2.tif,1.9,2,,,,,0,94,94,106,,,,,,,,,,,,,,,,,,,None,None,None,10.792,,,,,,,,,,,,,,,,,,,2019_Sep_23_1424,59.89767081917178,Cloud_Experiment_FR_REAL,001,49,
images/fcloud_D1.4_1.tif,1.4,0,,,,,0,95,95,18,,,,,,,,,,,,,,,,,,,2,space,3,2.084,7.2169317,,,,,,,,,,,,,,,,,,2019_Sep_23_1424,59.89767081917178,Cloud_Experiment_FR_REAL,001,49,
images/fcloud80-20_D1.8_2.tif,1.8,2,,,,,0,96,96,103,,,,,,,,,,,,,,,,,,,None,None,None,10.56,,,,,,,,,,,,,,,,,,,2019_Sep_23_1424,59.89767081917178,Cloud_Experiment_FR_REAL,001,49,
images/fcloud_D1_3.tif,1.0,0,,,,,0,97,97,8,,,,,,,,,,,,,,,,,,,2,space,4,1.519,5.0734321,,,,,,,,,,,,,,,,,,2019_Sep_23_1424,59.89767081917178,Cloud_Experiment_FR_REAL,001,49,
images/fcloud65-35_D0.8_1.tif,0.8,1,,,,,0,98,98,36,,,,,,,,,,,,,,,,,,,3,space,3,2.135,1.7822064,,,,,,,,,,,,,,,,,,2019_Sep_23_1424,59.89767081917178,Cloud_Experiment_FR_REAL,001,49,
images/fcloud80-20_D1.8_3.tif,1.8,2,,,,,0,99,99,104,,,,,,,,,,,,,,,,,,,None,None,None,11.309,,,,,,,,,,,,,,,,,,,2019_Sep_23_1424,59.89767081917178,Cloud_Experiment_FR_REAL,001,49,
images/fcloud65-35_D1.8_3.tif,1.8,1,,,,,0,100,100,68,,,,,,,,,,,,,,,,,,,None,None,None,20.167,,,,,,,,,,,,,,,,,,,2019_Sep_23_1424,59.89767081917178,Cloud_Experiment_FR_REAL,001,49,
images/fcloud_D1.1_3.tif,1.1,0,,,,,0,101,101,11,,,,,,,,,,,,,,,,,,,None,None,None,29.259,,,,,,,,,,,,,,,,,,,2019_Sep_23_1424,59.89767081917178,Cloud_Experiment_FR_REAL,001,49,
images/fcloud65-35_D0.9_1.tif,0.9,1,,,,,0,102,102,39,,,,,,,,,,,,,,,,,,,None,None,None,37.869,,,,,,,,,,,,,,,,,,,2019_Sep_23_1424,59.89767081917178,Cloud_Experiment_FR_REAL,001,49,
images/fcloud65-35_D1_3.tif,1.0,1,,,,,0,103,103,44,,,,,,,,,,,,,,,,,,,None,None,None,46.378,,,,,,,,,,,,,,,,,,,2019_Sep_23_1424,59.89767081917178,Cloud_Experiment_FR_REAL,001,49,
images/fcloud80-20_D1.2_1.tif,1.2,2,,,,,0,104,104,84,,,,,,,,,,,,,,,,,,,None,None,None,54.888,,,,,,,,,,,,,,,,,,,2019_Sep_23_1424,59.89767081917178,Cloud_Experiment_FR_REAL,001,49,
images/fcloud65-35_D1.7_3.tif,1.7,1,,,,,0,105,105,65,,,,,,,,,,,,,,,,,,,None,None,None,63.995,,,,,,,,,,,,,,,,,,,2019_Sep_23_1424,59.89767081917178,Cloud_Experiment_FR_REAL,001,49,
images/fcloud80-20_D1_3.tif,1.0,2,,,,,0,106,106,80,,,,,,,,,,,,,,,,,,,None,None,None,72.472,,,,,,,,,,,,,,,,,,,2019_Sep_23_1424,59.89767081917178,Cloud_Experiment_FR_REAL,001,49,
images/fcloud_D1.6_3.tif,1.6,0,,,,,0,107,107,26,,,,,,,,,,,,,,,,,,,4,space,3,2.1,5.2070299,,,,,,,,,,,,,,,,,,2019_Sep_23_1424,59.89767081917178,Cloud_Experiment_FR_REAL,001,49,
,,,,,,,,,,,,,,,,,,,,,,,,,,,,,,,,,,,,,,,,,,,,,,space,2.61959,,,,2019_Sep_23_1424,59.89767081917178,Cloud_Experiment_FR_REAL,001,49,
,,,,,,,,,,,,,,,,,,,,,,,,,8,10.383,,,,,,,,,,,,,,,,,,,,,,,,,2019_Sep_23_1424,59.89767081917178,Cloud_Experiment_FR_REAL,001,49,
,,,,,,,,,,,,,,,,,,,,,,,,,,,,,,,,,,4,,,,,,,,,,,,,,,,,2019_Sep_23_1424,59.89767081917178,Cloud_Experiment_FR_REAL,001,49,
,,,,,,,,,,,,,,,,,,,,,,,,,,,,,,,,,,,3,,,,,,,,,,,,,,,,2019_Sep_23_1424,59.89767081917178,Cloud_Experiment_FR_REAL,001,49,
,,,,,,,,,,,,,,,,,,,,,,,,,,,,,,,,,,,,3,,,,,,,,,,,,,,,2019_Sep_23_1424,59.89767081917178,Cloud_Experiment_FR_REAL,001,49,
,,,,,,,,,,,,,,,,,,,,,,,,,,,,,,,,,,,,,3,,,,,,,,,,,,,,2019_Sep_23_1424,59.89767081917178,Cloud_Experiment_FR_REAL,001,49,
,,,,,,,,,,,,,,,,,,,,,,,,,,,,,,,,,,,,,,4,,,,,,,,,,,,,2019_Sep_23_1424,59.89767081917178,Cloud_Experiment_FR_REAL,001,49,
,,,,,,,,,,,,,,,,,,,,,,,,,,,,,,,,,,,,,,,3,,,,,,,,,,,,2019_Sep_23_1424,59.89767081917178,Cloud_Experiment_FR_REAL,001,49,
,,,,,,,,,,,,,,,,,,,,,,,,,,,,,,,,,,,,,,,,3,,,,,,,,,,,2019_Sep_23_1424,59.89767081917178,Cloud_Experiment_FR_REAL,001,49,
,,,,,,,,,,,,,,,,,,,,,,,,,,,,,,,,,,,,,,,,,3,,,,,,,,,,2019_Sep_23_1424,59.89767081917178,Cloud_Experiment_FR_REAL,001,49,
,,,,,,,,,,,,,,,,,,,,,,,,,,,,,,,,,,,,,,,,,,6,,,,,,,,,2019_Sep_23_1424,59.89767081917178,Cloud_Experiment_FR_REAL,001,49,
,,,,,,,,,,,,,,,,,,,,,,,,,,,,,,,,,,,,,,,,,,,2,,,,,,,,2019_Sep_23_1424,59.89767081917178,Cloud_Experiment_FR_REAL,001,49,
,,,,,,,,,,,,,,,,,,,,,,,,,,,,,,,,,,,,,,,,,,,,,,,,space,56.2362808,,2019_Sep_23_1424,59.89767081917178,Cloud_Experiment_FR_REAL,001,49,
images/fcloud65-35_D1.2_5.tif,1.2,1,,,,,,,,,0,0,0,49,,,,,,,,,,,,,,,1,space,3,2.217,6.4063284,,,,,,,,,,,,,,,,,,2019_Sep_23_1424,59.89767081917178,Cloud_Experiment_FR_REAL,001,49,
images/fcloud65-35_D1_4.tif,1.0,1,,,,,,,,,0,1,1,42,,,,,,,,,,,,,,,None,None,None,11.508,,,,,,,,,,,,,,,,,,,2019_Sep_23_1424,59.89767081917178,Cloud_Experiment_FR_REAL,001,49,
images/fcloud80-20_D1.1_4.tif,1.1,2,,,,,,,,,0,2,2,81,,,,,,,,,,,,,,,2,space,5,1.551,6.2725898,,,,,,,,,,,,,,,,,,2019_Sep_23_1424,59.89767081917178,Cloud_Experiment_FR_REAL,001,49,
images/fcloud80-20_D1.5_6.tif,1.5,2,,,,,,,,,0,3,3,95,,,,,,,,,,,,,,,None,None,None,10.777,,,,,,,,,,,,,,,,,,,2019_Sep_23_1424,59.89767081917178,Cloud_Experiment_FR_REAL,001,49,
images/fcloud_D1.2_6.tif,1.2,0,,,,,,,,,0,4,4,14,,,,,,,,,,,,,,,None,None,None,19.634,,,,,,,,,,,,,,,,,,,2019_Sep_23_1424,59.89767081917178,Cloud_Experiment_FR_REAL,001,49,
images/fcloud80-20_D1.4_4.tif,1.4,2,,,,,,,,,0,5,5,90,,,,,,,,,,,,,,,2,space,2,5.148,3.2767379,,,,,,,,,,,,,,,,,,2019_Sep_23_1424,59.89767081917178,Cloud_Experiment_FR_REAL,001,49,
images/fcloud_D0.9_4.tif,0.9,0,,,,,,,,,0,6,6,3,,,,,,,,,,,,,,,None,None,None,14.006,,,,,,,,,,,,,,,,,,,2019_Sep_23_1424,59.89767081917178,Cloud_Experiment_FR_REAL,001,49,
images/fcloud_D0.8_4.tif,0.8,0,,,,,,,,,0,7,7,0,,,,,,,,,,,,,,,1,None,1,0.719,,,,,,,,,,,,,,,,,,,2019_Sep_23_1424,59.89767081917178,Cloud_Experiment_FR_REAL,001,49,
images/fcloud65-35_D1_6.tif,1.0,1,,,,,,,,,0,8,8,44,,,,,,,,,,,,,,,None,None,None,9.777,,,,,,,,,,,,,,,,,,,2019_Sep_23_1424,59.89767081917178,Cloud_Experiment_FR_REAL,001,49,
images/fcloud80-20_D1.7_6.tif,1.7,2,,,,,,,,,0,9,9,101,,,,,,,,,,,,,,,1,None,1,0.57,,,,,,,,,,,,,,,,,,,2019_Sep_23_1424,59.89767081917178,Cloud_Experiment_FR_REAL,001,49,
images/fcloud80-20_D1.6_4.tif,1.6,2,,,,,,,,,0,10,10,96,,,,,,,,,,,,,,,None,None,None,9.527,,,,,,,,,,,,,,,,,,,2019_Sep_23_1424,59.89767081917178,Cloud_Experiment_FR_REAL,001,49,
images/fcloud80-20_D0.8_6.tif,0.8,2,,,,,,,,,0,11,11,74,,,,,,,,,,,,,,,None,None,None,18.303,,,,,,,,,,,,,,,,,,,2019_Sep_23_1424,59.89767081917178,Cloud_Experiment_FR_REAL,001,49,
images/fcloud80-20_D0.8_5.tif,0.8,2,,,,,,,,,0,12,12,73,,,,,,,,,,,,,,,None,None,None,26.762,,,,,,,,,,,,,,,,,,,2019_Sep_23_1424,59.89767081917178,Cloud_Experiment_FR_REAL,001,49,
images/fcloud65-35_D0.8_6.tif,0.8,1,,,,,,,,,0,13,13,38,,,,,,,,,,,,,,,None,None,None,35.321,,,,,,,,,,,,,,,,,,,2019_Sep_23_1424,59.89767081917178,Cloud_Experiment_FR_REAL,001,49,
images/fcloud80-20_D1.5_5.tif,1.5,2,,,,,,,,,0,14,14,94,,,,,,,,,,,,,,,None,None,None,44.046,,,,,,,,,,,,,,,,,,,2019_Sep_23_1424,59.89767081917178,Cloud_Experiment_FR_REAL,001,49,
images/fcloud_D1.5_6.tif,1.5,0,,,,,,,,,0,15,15,23,,,,,,,,,,,,,,,None,None,None,53.222,,,,,,,,,,,,,,,,,,,2019_Sep_23_1424,59.89767081917178,Cloud_Experiment_FR_REAL,001,49,
images/fcloud80-20_D1.2_4.tif,1.2,2,,,,,,,,,0,16,16,84,,,,,,,,,,,,,,,1,space,3,1.319,8.001874,,,,,,,,,,,,,,,,,,2019_Sep_23_1424,59.89767081917178,Cloud_Experiment_FR_REAL,001,49,
images/fcloud_D1.5_4.tif,1.5,0,,,,,,,,,0,17,17,21,,,,,,,,,,,,,,,4,None,1,0.786,,,,,,,,,,,,,,,,,,,2019_Sep_23_1424,59.89767081917178,Cloud_Experiment_FR_REAL,001,49,
images/fcloud65-35_D0.8_5.tif,0.8,1,,,,,,,,,0,18,18,37,,,,,,,,,,,,,,,None,None,None,9.277,,,,,,,,,,,,,,,,,,,2019_Sep_23_1424,59.89767081917178,Cloud_Experiment_FR_REAL,001,49,
images/fcloud_D1.2_5.tif,1.2,0,,,,,,,,,0,19,19,13,,,,,,,,,,,,,,,1,space,4,2.101,7.3006006,,,,,,,,,,,,,,,,,,2019_Sep_23_1424,59.89767081917178,Cloud_Experiment_FR_REAL,001,49,
images/fcloud65-35_D1.2_6.tif,1.2,1,,,,,,,,,0,20,20,50,,,,,,,,,,,,,,,None,None,None,11.376,,,,,,,,,,,,,,,,,,,2019_Sep_23_1424,59.89767081917178,Cloud_Experiment_FR_REAL,001,49,
images/fcloud_D1.9_4.tif,1.9,0,,,,,,,,,0,21,21,33,,,,,,,,,,,,,,,None,None,None,21.715,,,,,,,,,,,,,,,,,,,2019_Sep_23_1424,59.89767081917178,Cloud_Experiment_FR_REAL,001,49,
images/fcloud65-35_D1.4_4.tif,1.4,1,,,,,,,,,0,22,22,54,,,,,,,,,,,,,,,None,None,None,30.325,,,,,,,,,,,,,,,,,,,2019_Sep_23_1424,59.89767081917178,Cloud_Experiment_FR_REAL,001,49,
images/fcloud65-35_D1.1_4.tif,1.1,1,,,,,,,,,0,23,23,45,,,,,,,,,,,,,,,None,None,None,38.851,,,,,,,,,,,,,,,,,,,2019_Sep_23_1424,59.89767081917178,Cloud_Experiment_FR_REAL,001,49,
images/fcloud80-20_D1.3_4.tif,1.3,2,,,,,,,,,0,24,24,87,,,,,,,,,,,,,,,None,None,None,47.444,,,,,,,,,,,,,,,,,,,2019_Sep_23_1424,59.89767081917178,Cloud_Experiment_FR_REAL,001,49,
images/fcloud80-20_D1.4_5.tif,1.4,2,,,,,,,,,0,25,25,91,,,,,,,,,,,,,,,None,None,None,56.369,,,,,,,,,,,,,,,,,,,2019_Sep_23_1424,59.89767081917178,Cloud_Experiment_FR_REAL,001,49,
images/fcloud65-35_D1.3_4.tif,1.3,1,,,,,,,,,0,26,26,51,,,,,,,,,,,,,,,None,None,None,65.244,,,,,,,,,,,,,,,,,,,2019_Sep_23_1424,59.89767081917178,Cloud_Experiment_FR_REAL,001,49,
images/fcloud65-35_D1.9_5.tif,1.9,1,,,,,,,,,0,27,27,70,,,,,,,,,,,,,,,1,space,3,1.485,2.3970231,,,,,,,,,,,,,,,,,,2019_Sep_23_1424,59.89767081917178,Cloud_Experiment_FR_REAL,001,49,
images/fcloud_D1.6_5.tif,1.6,0,,,,,,,,,0,28,28,25,,,,,,,,,,,,,,,1,space,1,1.501,7.8493238,,,,,,,,,,,,,,,,,,2019_Sep_23_1424,59.89767081917178,Cloud_Experiment_FR_REAL,001,49,
images/fcloud65-35_D1.4_5.tif,1.4,1,,,,,,,,,0,29,29,55,,,,,,,,,,,,,,,None,None,None,10.592,,,,,,,,,,,,,,,,,,,2019_Sep_23_1424,59.89767081917178,Cloud_Experiment_FR_REAL,001,49,
images/fcloud_D1.6_4.tif,1.6,0,,,,,,,,,0,30,30,24,,,,,,,,,,,,,,,None,None,None,20.118,,,,,,,,,,,,,,,,,,,2019_Sep_23_1424,59.89767081917178,Cloud_Experiment_FR_REAL,001,49,
images/fcloud80-20_D1.9_4.tif,1.9,2,,,,,,,,,0,31,31,105,,,,,,,,,,,,,,,1,space,1,2.484,4.2080435,,,,,,,,,,,,,,,,,,2019_Sep_23_1424,59.89767081917178,Cloud_Experiment_FR_REAL,001,49,
images/fcloud80-20_D1.3_5.tif,1.3,2,,,,,,,,,0,32,32,88,,,,,,,,,,,,,,,None,None,None,11.525,,,,,,,,,,,,,,,,,,,2019_Sep_23_1424,59.89767081917178,Cloud_Experiment_FR_REAL,001,49,
images/fcloud65-35_D1.7_4.tif,1.7,1,,,,,,,,,0,33,33,63,,,,,,,,,,,,,,,None,None,None,20.865,,,,,,,,,,,,,,,,,,,2019_Sep_23_1424,59.89767081917178,Cloud_Experiment_FR_REAL,001,49,
images/fcloud_D1.2_4.tif,1.2,0,,,,,,,,,0,34,34,12,,,,,,,,,,,,,,,3,space,2,2.951,4.3127595,,,,,,,,,,,,,,,,,,2019_Sep_23_1424,59.89767081917178,Cloud_Experiment_FR_REAL,001,49,
images/fcloud80-20_D1.2_5.tif,1.2,2,,,,,,,,,0,35,35,85,,,,,,,,,,,,,,,1,space,4,1.835,4.1610808,,,,,,,,,,,,,,,,,,2019_Sep_23_1424,59.89767081917178,Cloud_Experiment_FR_REAL,001,49,
images/fcloud65-35_D1_5.tif,1.0,1,,,,,,,,,0,36,36,43,,,,,,,,,,,,,,,None,None,None,10.893,,,,,,,,,,,,,,,,,,,2019_Sep_23_1424,59.89767081917178,Cloud_Experiment_FR_REAL,001,49,
images/fcloud80-20_D0.9_4.tif,0.9,2,,,,,,,,,0,37,37,75,,,,,,,,,,,,,,,None,None,None,19.535,,,,,,,,,,,,,,,,,,,2019_Sep_23_1424,59.89767081917178,Cloud_Experiment_FR_REAL,001,49,
images/fcloud_D1.7_4.tif,1.7,0,,,,,,,,,0,38,38,27,,,,,,,,,,,,,,,None,None,None,28.543,,,,,,,,,,,,,,,,,,,2019_Sep_23_1424,59.89767081917178,Cloud_Experiment_FR_REAL,001,49,
images/fcloud_D0.8_5.tif,0.8,0,,,,,,,,,0,39,39,1,,,,,,,,,,,,,,,None,None,None,37.086,,,,,,,,,,,,,,,,,,,2019_Sep_23_1424,59.89767081917178,Cloud_Experiment_FR_REAL,001,49,
images/fcloud80-20_D1_4.tif,1.0,2,,,,,,,,,0,40,40,78,,,,,,,,,,,,,,,1,space,1,0.986,5.1081103,,,,,,,,,,,,,,,,,,2019_Sep_23_1424,59.89767081917178,Cloud_Experiment_FR_REAL,001,49,
images/fcloud80-20_D1.9_5.tif,1.9,2,,,,,,,,,0,41,41,106,,,,,,,,,,,,,,,None,None,None,10.026,,,,,,,,,,,,,,,,,,,2019_Sep_23_1424,59.89767081917178,Cloud_Experiment_FR_REAL,001,49,
images/fcloud65-35_D1.5_4.tif,1.5,1,,,,,,,,,0,42,42,57,,,,,,,,,,,,,,,1,space,2,1.101,6.8246705,,,,,,,,,,,,,,,,,,2019_Sep_23_1424,59.89767081917178,Cloud_Experiment_FR_REAL,001,49,
images/fcloud65-35_D0.9_5.tif,0.9,1,,,,,,,,,0,43,43,40,,,,,,,,,,,,,,,None,None,None,10.226,,,,,,,,,,,,,,,,,,,2019_Sep_23_1424,59.89767081917178,Cloud_Experiment_FR_REAL,001,49,
images/fcloud65-35_D0.8_4.tif,0.8,1,,,,,,,,,0,44,44,36,,,,,,,,,,,,,,,None,None,None,19.501,,,,,,,,,,,,,,,,,,,2019_Sep_23_1424,59.89767081917178,Cloud_Experiment_FR_REAL,001,49,
images/fcloud_D1.8_4.tif,1.8,0,,,,,,,,,0,45,45,30,,,,,,,,,,,,,,,1,space,1,1.634,6.4902824,,,,,,,,,,,,,,,,,,2019_Sep_23_1424,59.89767081917178,Cloud_Experiment_FR_REAL,001,49,
images/fcloud65-35_D1.6_5.tif,1.6,1,,,,,,,,,0,46,46,61,,,,,,,,,,,,,,,None,None,None,10.958,,,,,,,,,,,,,,,,,,,2019_Sep_23_1424,59.89767081917178,Cloud_Experiment_FR_REAL,001,49,
images/fcloud_D1.7_5.tif,1.7,0,,,,,,,,,0,47,47,28,,,,,,,,,,,,,,,None,None,None,20.251,,,,,,,,,,,,,,,,,,,2019_Sep_23_1424,59.89767081917178,Cloud_Experiment_FR_REAL,001,49,
images/fcloud65-35_D1.8_4.tif,1.8,1,,,,,,,,,0,48,48,66,,,,,,,,,,,,,,,None,None,None,29.092,,,,,,,,,,,,,,,,,,,2019_Sep_23_1424,59.89767081917178,Cloud_Experiment_FR_REAL,001,49,
images/fcloud65-35_D1.1_6.tif,1.1,1,,,,,,,,,0,49,49,47,,,,,,,,,,,,,,,None,None,None,37.635,,,,,,,,,,,,,,,,,,,2019_Sep_23_1424,59.89767081917178,Cloud_Experiment_FR_REAL,001,49,
images/fcloud65-35_D1.9_4.tif,1.9,1,,,,,,,,,0,50,50,69,,,,,,,,,,,,,,,2,space,1,1.084,7.8838827,,,,,,,,,,,,,,,,,,2019_Sep_23_1424,59.89767081917178,Cloud_Experiment_FR_REAL,001,49,
images/fcloud65-35_D1.7_6.tif,1.7,1,,,,,,,,,0,51,51,65,,,,,,,,,,,,,,,1,space,3,2.583,4.0514815,,,,,,,,,,,,,,,,,,2019_Sep_23_1424,59.89767081917178,Cloud_Experiment_FR_REAL,001,49,
images/fcloud_D1.8_5.tif,1.8,0,,,,,,,,,0,52,52,31,,,,,,,,,,,,,,,None,None,None,20.085,,,,,,,,,,,,,,,,,,,2019_Sep_23_1424,59.89767081917178,Cloud_Experiment_FR_REAL,001,49,
images/fcloud65-35_D0.9_6.tif,0.9,1,,,,,,,,,0,53,53,41,,,,,,,,,,,,,,,None,None,None,29.093,,,,,,,,,,,,,,,,,,,2019_Sep_23_1424,59.89767081917178,Cloud_Experiment_FR_REAL,001,49,
images/fcloud65-35_D1.8_5.tif,1.8,1,,,,,,,,,0,54,54,67,,,,,,,,,,,,,,,None,None,None,37.636,,,,,,,,,,,,,,,,,,,2019_Sep_23_1424,59.89767081917178,Cloud_Experiment_FR_REAL,001,49,
images/fcloud80-20_D1.3_6.tif,1.3,2,,,,,,,,,0,55,55,89,,,,,,,,,,,,,,,None,None,None,46.094,,,,,,,,,,,,,,,,,,,2019_Sep_23_1424,59.89767081917178,Cloud_Experiment_FR_REAL,001,49,
images/fcloud65-35_D1.9_6.tif,1.9,1,,,,,,,,,0,56,56,71,,,,,,,,,,,,,,,None,None,None,54.571,,,,,,,,,,,,,,,,,,,2019_Sep_23_1424,59.89767081917178,Cloud_Experiment_FR_REAL,001,49,
images/fcloud65-35_D1.2_4.tif,1.2,1,,,,,,,,,0,57,57,48,,,,,,,,,,,,,,,None,None,None,63.048,,,,,,,,,,,,,,,,,,,2019_Sep_23_1424,59.89767081917178,Cloud_Experiment_FR_REAL,001,49,
images/fcloud80-20_D1.6_5.tif,1.6,2,,,,,,,,,0,58,58,97,,,,,,,,,,,,,,,1,space,3,1.035,5.5125463,,,,,,,,,,,,,,,,,,2019_Sep_23_1424,59.89767081917178,Cloud_Experiment_FR_REAL,001,49,
images/fcloud_D0.8_6.tif,0.8,0,,,,,,,,,0,59,59,2,,,,,,,,,,,,,,,None,None,None,9.893,,,,,,,,,,,,,,,,,,,2019_Sep_23_1424,59.89767081917178,Cloud_Experiment_FR_REAL,001,49,
images/fcloud80-20_D1.8_4.tif,1.8,2,,,,,,,,,0,60,60,102,,,,,,,,,,,,,,,1,None,2,1.967,,,,,,,,,,,,,,,,,,,2019_Sep_23_1424,59.89767081917178,Cloud_Experiment_FR_REAL,001,49,
images/fcloud65-35_D1.4_6.tif,1.4,1,,,,,,,,,0,61,61,56,,,,,,,,,,,,,,,2,space,3,2.118,6.9201848,,,,,,,,,,,,,,,,,,2019_Sep_23_1424,59.89767081917178,Cloud_Experiment_FR_REAL,001,49,
images/fcloud65-35_D1.3_5.tif,1.3,1,,,,,,,,,0,62,62,52,,,,,,,,,,,,,,,None,None,None,10.993,,,,,,,,,,,,,,,,,,,2019_Sep_23_1424,59.89767081917178,Cloud_Experiment_FR_REAL,001,49,
images/fcloud65-35_D1.1_5.tif,1.1,1,,,,,,,,,0,63,63,46,,,,,,,,,,,,,,,None,None,None,19.468,,,,,,,,,,,,,,,,,,,2019_Sep_23_1424,59.89767081917178,Cloud_Experiment_FR_REAL,001,49,
images/fcloud_D1.8_6.tif,1.8,0,,,,,,,,,0,64,64,32,,,,,,,,,,,,,,,3,space,1,2.267,6.692616,,,,,,,,,,,,,,,,,,2019_Sep_23_1424,59.89767081917178,Cloud_Experiment_FR_REAL,001,49,
images/fcloud65-35_D0.9_4.tif,0.9,1,,,,,,,,,0,65,65,39,,,,,,,,,,,,,,,None,None,None,10.892,,,,,,,,,,,,,,,,,,,2019_Sep_23_1424,59.89767081917178,Cloud_Experiment_FR_REAL,001,49,
images/fcloud_D1.9_6.tif,1.9,0,,,,,,,,,0,66,66,35,,,,,,,,,,,,,,,None,None,None,20.051,,,,,,,,,,,,,,,,,,,2019_Sep_23_1424,59.89767081917178,Cloud_Experiment_FR_REAL,001,49,
images/fcloud65-35_D1.5_6.tif,1.5,1,,,,,,,,,0,67,67,59,,,,,,,,,,,,,,,None,None,None,28.561,,,,,,,,,,,,,,,,,,,2019_Sep_23_1424,59.89767081917178,Cloud_Experiment_FR_REAL,001,49,
images/fcloud80-20_D1.8_6.tif,1.8,2,,,,,,,,,0,68,68,104,,,,,,,,,,,,,,,None,None,None,37.052,,,,,,,,,,,,,,,,,,,2019_Sep_23_1424,59.89767081917178,Cloud_Experiment_FR_REAL,001,49,
images/fcloud80-20_D0.9_5.tif,0.9,2,,,,,,,,,0,69,69,76,,,,,,,,,,,,,,,3,space,2,1.918,7.4369628,,,,,,,,,,,,,,,,,,2019_Sep_23_1424,59.89767081917178,Cloud_Experiment_FR_REAL,001,49,
images/fcloud_D1.7_6.tif,1.7,0,,,,,,,,,0,70,70,29,,,,,,,,,,,,,,,None,None,None,11.042,,,,,,,,,,,,,,,,,,,2019_Sep_23_1424,59.89767081917178,Cloud_Experiment_FR_REAL,001,49,
images/fcloud_D1_6.tif,1.0,0,,,,,,,,,0,71,71,8,,,,,,,,,,,,,,,2,space,3,1.202,5.3202809,,,,,,,,,,,,,,,,,,2019_Sep_23_1424,59.89767081917178,Cloud_Experiment_FR_REAL,001,49,
images/fcloud80-20_D1.1_5.tif,1.1,2,,,,,,,,,0,72,72,82,,,,,,,,,,,,,,,None,None,None,9.827,,,,,,,,,,,,,,,,,,,2019_Sep_23_1424,59.89767081917178,Cloud_Experiment_FR_REAL,001,49,
images/fcloud80-20_D1.9_6.tif,1.9,2,,,,,,,,,0,73,73,107,,,,,,,,,,,,,,,None,None,None,18.885,,,,,,,,,,,,,,,,,,,2019_Sep_23_1424,59.89767081917178,Cloud_Experiment_FR_REAL,001,49,
images/fcloud_D1.4_5.tif,1.4,0,,,,,,,,,0,74,74,19,,,,,,,,,,,,,,,3,space,2,1.468,4.8330509,,,,,,,,,,,,,,,,,,2019_Sep_23_1424,59.89767081917178,Cloud_Experiment_FR_REAL,001,49,
images/fcloud_D0.9_6.tif,0.9,0,,,,,,,,,0,75,75,5,,,,,,,,,,,,,,,2,space,4,1.485,4.2394061,,,,,,,,,,,,,,,,,,2019_Sep_23_1424,59.89767081917178,Cloud_Experiment_FR_REAL,001,49,
images/fcloud65-35_D1.8_6.tif,1.8,1,,,,,,,,,0,76,76,68,,,,,,,,,,,,,,,None,space,None,13.074,9.3768119,,,,,,,,,,,,,,,,,,2019_Sep_23_1424,59.89767081917178,Cloud_Experiment_FR_REAL,001,49,
images/fcloud_D1.1_5.tif,1.1,0,,,,,,,,,0,77,77,10,,,,,,,,,,,,,,,2,space,2,1.201,8.306282,,,,,,,,,,,,,,,,,,2019_Sep_23_1424,59.89767081917178,Cloud_Experiment_FR_REAL,001,49,
images/fcloud65-35_D1.5_5.tif,1.5,1,,,,,,,,,0,78,78,58,,,,,,,,,,,,,,,None,None,None,9.776,,,,,,,,,,,,,,,,,,,2019_Sep_23_1424,59.89767081917178,Cloud_Experiment_FR_REAL,001,49,
images/fcloud_D1_4.tif,1.0,0,,,,,,,,,0,79,79,6,,,,,,,,,,,,,,,1,space,4,3.05,5.7122985,,,,,,,,,,,,,,,,,,2019_Sep_23_1424,59.89767081917178,Cloud_Experiment_FR_REAL,001,49,
images/fcloud_D1.3_6.tif,1.3,0,,,,,,,,,0,80,80,17,,,,,,,,,,,,,,,None,None,None,12.607,,,,,,,,,,,,,,,,,,,2019_Sep_23_1424,59.89767081917178,Cloud_Experiment_FR_REAL,001,49,
images/fcloud_D1_5.tif,1.0,0,,,,,,,,,0,81,81,7,,,,,,,,,,,,,,,None,None,None,21.583,,,,,,,,,,,,,,,,,,,2019_Sep_23_1424,59.89767081917178,Cloud_Experiment_FR_REAL,001,49,
images/fcloud_D1.6_6.tif,1.6,0,,,,,,,,,0,82,82,26,,,,,,,,,,,,,,,None,None,None,30.025,,,,,,,,,,,,,,,,,,,2019_Sep_23_1424,59.89767081917178,Cloud_Experiment_FR_REAL,001,49,
images/fcloud_D1.3_4.tif,1.3,0,,,,,,,,,0,83,83,15,,,,,,,,,,,,,,,None,None,None,38.968,,,,,,,,,,,,,,,,,,,2019_Sep_23_1424,59.89767081917178,Cloud_Experiment_FR_REAL,001,49,
images/fcloud65-35_D1.7_5.tif,1.7,1,,,,,,,,,0,84,84,64,,,,,,,,,,,,,,,3,space,1,0.818,5.5966924,,,,,,,,,,,,,,,,,,2019_Sep_23_1424,59.89767081917178,Cloud_Experiment_FR_REAL,001,49,
images/fcloud80-20_D1.1_6.tif,1.1,2,,,,,,,,,0,85,85,83,,,,,,,,,,,,,,,None,None,None,9.293,,,,,,,,,,,,,,,,,,,2019_Sep_23_1424,59.89767081917178,Cloud_Experiment_FR_REAL,001,49,
images/fcloud65-35_D1.6_4.tif,1.6,1,,,,,,,,,0,86,86,60,,,,,,,,,,,,,,,None,None,None,17.836,,,,,,,,,,,,,,,,,,,2019_Sep_23_1424,59.89767081917178,Cloud_Experiment_FR_REAL,001,49,
images/fcloud80-20_D1.4_6.tif,1.4,2,,,,,,,,,0,87,87,92,,,,,,,,,,,,,,,1,space,2,1.218,6.2520894,,,,,,,,,,,,,,,,,,2019_Sep_23_1424,59.89767081917178,Cloud_Experiment_FR_REAL,001,49,
images/fcloud65-35_D1.3_6.tif,1.3,1,,,,,,,,,0,88,88,53,,,,,,,,,,,,,,,None,None,None,11.077,,,,,,,,,,,,,,,,,,,2019_Sep_23_1424,59.89767081917178,Cloud_Experiment_FR_REAL,001,49,
images/fcloud80-20_D1_5.tif,1.0,2,,,,,,,,,0,89,89,79,,,,,,,,,,,,,,,None,space,None,20.068,7.0094062,,,,,,,,,,,,,,,,,,2019_Sep_23_1424,59.89767081917178,Cloud_Experiment_FR_REAL,001,49,
images/fcloud_D0.9_5.tif,0.9,0,,,,,,,,,0,90,90,4,,,,,,,,,,,,,,,None,None,None,28.877,,,,,,,,,,,,,,,,,,,2019_Sep_23_1424,59.89767081917178,Cloud_Experiment_FR_REAL,001,49,
images/fcloud_D1.4_6.tif,1.4,0,,,,,,,,,0,91,91,20,,,,,,,,,,,,,,,None,None,None,37.817,,,,,,,,,,,,,,,,,,,2019_Sep_23_1424,59.89767081917178,Cloud_Experiment_FR_REAL,001,49,
images/fcloud80-20_D0.8_4.tif,0.8,2,,,,,,,,,0,92,92,72,,,,,,,,,,,,,,,None,None,None,46.211,,,,,,,,,,,,,,,,,,,2019_Sep_23_1424,59.89767081917178,Cloud_Experiment_FR_REAL,001,49,
images/fcloud80-20_D1.7_4.tif,1.7,2,,,,,,,,,0,93,93,99,,,,,,,,,,,,,,,None,None,None,54.703,,,,,,,,,,,,,,,,,,,2019_Sep_23_1424,59.89767081917178,Cloud_Experiment_FR_REAL,001,49,
images/fcloud80-20_D1.6_6.tif,1.6,2,,,,,,,,,0,94,94,98,,,,,,,,,,,,,,,2,space,3,2.101,2.7509941,,,,,,,,,,,,,,,,,,2019_Sep_23_1424,59.89767081917178,Cloud_Experiment_FR_REAL,001,49,
images/fcloud80-20_D1_6.tif,1.0,2,,,,,,,,,0,95,95,80,,,,,,,,,,,,,,,None,None,None,10.576,,,,,,,,,,,,,,,,,,,2019_Sep_23_1424,59.89767081917178,Cloud_Experiment_FR_REAL,001,49,
images/fcloud_D1.9_5.tif,1.9,0,,,,,,,,,0,96,96,34,,,,,,,,,,,,,,,None,None,None,19.368,,,,,,,,,,,,,,,,,,,2019_Sep_23_1424,59.89767081917178,Cloud_Experiment_FR_REAL,001,49,
images/fcloud80-20_D1.2_6.tif,1.2,2,,,,,,,,,0,97,97,86,,,,,,,,,,,,,,,None,None,None,28.126,,,,,,,,,,,,,,,,,,,2019_Sep_23_1424,59.89767081917178,Cloud_Experiment_FR_REAL,001,49,
images/fcloud65-35_D1.6_6.tif,1.6,1,,,,,,,,,0,98,98,62,,,,,,,,,,,,,,,4,space,3,1.617,2.417319,,,,,,,,,,,,,,,,,,2019_Sep_23_1424,59.89767081917178,Cloud_Experiment_FR_REAL,001,49,
images/fcloud80-20_D1.7_5.tif,1.7,2,,,,,,,,,0,99,99,100,,,,,,,,,,,,,,,2,None,2,1.584,,,,,,,,,,,,,,,,,,,2019_Sep_23_1424,59.89767081917178,Cloud_Experiment_FR_REAL,001,49,
images/fcloud_D1.1_4.tif,1.1,0,,,,,,,,,0,100,100,9,,,,,,,,,,,,,,,None,None,None,10.609,,,,,,,,,,,,,,,,,,,2019_Sep_23_1424,59.89767081917178,Cloud_Experiment_FR_REAL,001,49,
images/fcloud80-20_D0.9_6.tif,0.9,2,,,,,,,,,0,101,101,77,,,,,,,,,,,,,,,None,None,None,19.471,,,,,,,,,,,,,,,,,,,2019_Sep_23_1424,59.89767081917178,Cloud_Experiment_FR_REAL,001,49,
images/fcloud80-20_D1.5_4.tif,1.5,2,,,,,,,,,0,102,102,93,,,,,,,,,,,,,,,None,None,None,28.11,,,,,,,,,,,,,,,,,,,2019_Sep_23_1424,59.89767081917178,Cloud_Experiment_FR_REAL,001,49,
images/fcloud_D1.3_5.tif,1.3,0,,,,,,,,,0,103,103,16,,,,,,,,,,,,,,,2,space,2,1.368,6.5732107,,,,,,,,,,,,,,,,,,2019_Sep_23_1424,59.89767081917178,Cloud_Experiment_FR_REAL,001,49,
images/fcloud80-20_D1.8_5.tif,1.8,2,,,,,,,,,0,104,104,103,,,,,,,,,,,,,,,None,None,None,10.159,,,,,,,,,,,,,,,,,,,2019_Sep_23_1424,59.89767081917178,Cloud_Experiment_FR_REAL,001,49,
images/fcloud_D1.4_4.tif,1.4,0,,,,,,,,,0,105,105,18,,,,,,,,,,,,,,,None,None,None,19.069,,,,,,,,,,,,,,,,,,,2019_Sep_23_1424,59.89767081917178,Cloud_Experiment_FR_REAL,001,49,
images/fcloud_D1.1_6.tif,1.1,0,,,,,,,,,0,106,106,11,,,,,,,,,,,,,,,None,None,None,28.443,,,,,,,,,,,,,,,,,,,2019_Sep_23_1424,59.89767081917178,Cloud_Experiment_FR_REAL,001,49,
images/fcloud_D1.5_5.tif,1.5,0,,,,,,,,,0,107,107,22,,,,,,,,,,,,,,,1,space,4,2.801,4.3897548,,,,,,,,,,,,,,,,,,2019_Sep_23_1424,59.89767081917178,Cloud_Experiment_FR_REAL,001,49,
,,,,,,,,,,,,,,,,,,,,,,,,,,,,,,,,,,,,,,,,,,,,,,space,2.0346118,,,,2019_Sep_23_1424,59.89767081917178,Cloud_Experiment_FR_REAL,001,49,
,,,,,,,,,,,,,,,,,,,,,,,,,5,15.179,,,,,,,,,,,,,,,,,,,,,,,,,2019_Sep_23_1424,59.89767081917178,Cloud_Experiment_FR_REAL,001,49,
,,,,,,,,,,,,,,,,,,,,,,,,,,,,,,,,,,5,,,,,,,,,,,,,,,,,2019_Sep_23_1424,59.89767081917178,Cloud_Experiment_FR_REAL,001,49,
,,,,,,,,,,,,,,,,,,,,,,,,,,,,,,,,,,,5,,,,,,,,,,,,,,,,2019_Sep_23_1424,59.89767081917178,Cloud_Experiment_FR_REAL,001,49,
,,,,,,,,,,,,,,,,,,,,,,,,,,,,,,,,,,,,4,,,,,,,,,,,,,,,2019_Sep_23_1424,59.89767081917178,Cloud_Experiment_FR_REAL,001,49,
,,,,,,,,,,,,,,,,,,,,,,,,,,,,,,,,,,,,,5,,,,,,,,,,,,,,2019_Sep_23_1424,59.89767081917178,Cloud_Experiment_FR_REAL,001,49,
,,,,,,,,,,,,,,,,,,,,,,,,,,,,,,,,,,,,,,3,,,,,,,,,,,,,2019_Sep_23_1424,59.89767081917178,Cloud_Experiment_FR_REAL,001,49,
,,,,,,,,,,,,,,,,,,,,,,,,,,,,,,,,,,,,,,,5,,,,,,,,,,,,2019_Sep_23_1424,59.89767081917178,Cloud_Experiment_FR_REAL,001,49,
,,,,,,,,,,,,,,,,,,,,,,,,,,,,,,,,,,,,,,,,5,,,,,,,,,,,2019_Sep_23_1424,59.89767081917178,Cloud_Experiment_FR_REAL,001,49,
,,,,,,,,,,,,,,,,,,,,,,,,,,,,,,,,,,,,,,,,,5,,,,,,,,,,2019_Sep_23_1424,59.89767081917178,Cloud_Experiment_FR_REAL,001,49,
,,,,,,,,,,,,,,,,,,,,,,,,,,,,,,,,,,,,,,,,,,6,,,,,,,,,2019_Sep_23_1424,59.89767081917178,Cloud_Experiment_FR_REAL,001,49,
,,,,,,,,,,,,,,,,,,,,,,,,,,,,,,,,,,,,,,,,,,,5,,,,,,,,2019_Sep_23_1424,59.89767081917178,Cloud_Experiment_FR_REAL,001,49,
,,,,,,,,,,,,,,,,,,,,,,,,,,,,,,,,,,,,,,,,,,,,,,,,space,140.5801368,,2019_Sep_23_1424,59.89767081917178,Cloud_Experiment_FR_REAL,001,49,
images/fcloud80-20_D0.9_7.tif,0.9,2,,,,,,,,,,,,,0,0,0,100,,,,,,,,,,,None,None,None,208.687,,,,,,,,,,,,,,,,,,,2019_Sep_23_1424,59.89767081917178,Cloud_Experiment_FR_REAL,001,49,
images/fcloud65-35_D1.7_7.tif,1.7,1,,,,,,,,,,,,,0,1,1,84,,,,,,,,,,,1,space,2,0.918,5.7274536,,,,,,,,,,,,,,,,,,2019_Sep_23_1424,59.89767081917178,Cloud_Experiment_FR_REAL,001,49,
images/fcloud80-20_D1.4_10.tif,1.4,2,,,,,,,,,,,,,0,2,2,123,,,,,,,,,,,1,space,4,2.984,5.9523121,,,,,,,,,,,,,,,,,,2019_Sep_23_1424,59.89767081917178,Cloud_Experiment_FR_REAL,001,49,
images/fcloud80-20_D1.1_9.tif,1.1,2,,,,,,,,,,,,,0,3,3,110,,,,,,,,,,,None,None,None,12.024,,,,,,,,,,,,,,,,,,,2019_Sep_23_1424,59.89767081917178,Cloud_Experiment_FR_REAL,001,49,
images/fcloud80-20_D1.3_9.tif,1.3,2,,,,,,,,,,,,,0,4,4,118,,,,,,,,,,,None,None,None,27.743,,,,,,,,,,,,,,,,,,,2019_Sep_23_1424,59.89767081917178,Cloud_Experiment_FR_REAL,001,49,
images/fcloud80-20_D1.8_7.tif,1.8,2,,,,,,,,,,,,,0,5,5,136,,,,,,,,,,,1,space,1,0.785,5.4558922,,,,,,,,,,,,,,,,,,2019_Sep_23_1424,59.89767081917178,Cloud_Experiment_FR_REAL,001,49,
images/fcloud65-35_D0.9_7.tif,0.9,1,,,,,,,,,,,,,0,6,6,52,,,,,,,,,,,None,None,None,10.343,,,,,,,,,,,,,,,,,,,2019_Sep_23_1424,59.89767081917178,Cloud_Experiment_FR_REAL,001,49,
images/fcloud80-20_D1.1_10.tif,1.1,2,,,,,,,,,,,,,0,7,7,111,,,,,,,,,,,None,None,None,19.119,,,,,,,,,,,,,,,,,,,2019_Sep_23_1424,59.89767081917178,Cloud_Experiment_FR_REAL,001,49,
images/fcloud65-35_D1.1_7.tif,1.1,1,,,,,,,,,,,,,0,8,8,60,,,,,,,,,,,1,space,1,0.552,10.06395,,,,,,,,,,,,,,,,,,2019_Sep_23_1424,59.89767081917178,Cloud_Experiment_FR_REAL,001,49,
images/fcloud_D1.1_9.tif,1.1,0,,,,,,,,,,,,,0,9,9,14,,,,,,,,,,,None,None,None,9.576,,,,,,,,,,,,,,,,,,,2019_Sep_23_1424,59.89767081917178,Cloud_Experiment_FR_REAL,001,49,
images/fcloud80-20_D0.8_7.tif,0.8,2,,,,,,,,,,,,,0,10,10,96,,,,,,,,,,,None,None,None,18.019,,,,,,,,,,,,,,,,,,,2019_Sep_23_1424,59.89767081917178,Cloud_Experiment_FR_REAL,001,49,
images/fcloud65-35_D1.4_8.tif,1.4,1,,,,,,,,,,,,,0,11,11,73,,,,,,,,,,,None,None,None,26.895,,,,,,,,,,,,,,,,,,,2019_Sep_23_1424,59.89767081917178,Cloud_Experiment_FR_REAL,001,49,
images/fcloud_D1.2_10.tif,1.2,0,,,,,,,,,,,,,0,12,12,19,,,,,,,,,,,None,None,None,35.504,,,,,,,,,,,,,,,,,,,2019_Sep_23_1424,59.89767081917178,Cloud_Experiment_FR_REAL,001,49,
images/fcloud_D1.8_8.tif,1.8,0,,,,,,,,,,,,,0,13,13,41,,,,,,,,,,,None,None,None,44.18,,,,,,,,,,,,,,,,,,,2019_Sep_23_1424,59.89767081917178,Cloud_Experiment_FR_REAL,001,49,
images/fcloud80-20_D1.9_8.tif,1.9,2,,,,,,,,,,,,,0,14,14,141,,,,,,,,,,,None,None,None,53.404,,,,,,,,,,,,,,,,,,,2019_Sep_23_1424,59.89767081917178,Cloud_Experiment_FR_REAL,001,49,
images/fcloud80-20_D1_9.tif,1.0,2,,,,,,,,,,,,,0,15,15,106,,,,,,,,,,,None,None,None,61.881,,,,,,,,,,,,,,,,,,,2019_Sep_23_1424,59.89767081917178,Cloud_Experiment_FR_REAL,001,49,
images/fcloud80-20_D1.6_8.tif,1.6,2,,,,,,,,,,,,,0,16,16,129,,,,,,,,,,,None,None,None,70.557,,,,,,,,,,,,,,,,,,,2019_Sep_23_1424,59.89767081917178,Cloud_Experiment_FR_REAL,001,49,
images/fcloud65-35_D0.8_9.tif,0.8,1,,,,,,,,,,,,,0,17,17,50,,,,,,,,,,,None,None,None,79.132,,,,,,,,,,,,,,,,,,,2019_Sep_23_1424,59.89767081917178,Cloud_Experiment_FR_REAL,001,49,
images/fcloud80-20_D1_10.tif,1.0,2,,,,,,,,,,,,,0,18,18,107,,,,,,,,,,,None,None,None,87.61,,,,,,,,,,,,,,,,,,,2019_Sep_23_1424,59.89767081917178,Cloud_Experiment_FR_REAL,001,49,
images/fcloud65-35_D1.3_7.tif,1.3,1,,,,,,,,,,,,,0,19,19,68,,,,,,,,,,,None,None,None,96.401,,,,,,,,,,,,,,,,,,,2019_Sep_23_1424,59.89767081917178,Cloud_Experiment_FR_REAL,001,49,
images/fcloud65-35_D1.4_7.tif,1.4,1,,,,,,,,,,,,,0,20,20,72,,,,,,,,,,,None,None,None,104.812,,,,,,,,,,,,,,,,,,,2019_Sep_23_1424,59.89767081917178,Cloud_Experiment_FR_REAL,001,49,
images/fcloud_D0.8_9.tif,0.8,0,,,,,,,,,,,,,0,21,21,2,,,,,,,,,,,None,None,None,113.453,,,,,,,,,,,,,,,,,,,2019_Sep_23_1424,59.89767081917178,Cloud_Experiment_FR_REAL,001,49,
images/fcloud65-35_D1.8_10.tif,1.8,1,,,,,,,,,,,,,0,22,22,91,,,,,,,,,,,None,None,None,121.929,,,,,,,,,,,,,,,,,,,2019_Sep_23_1424,59.89767081917178,Cloud_Experiment_FR_REAL,001,49,
images/fcloud_D1.4_8.tif,1.4,0,,,,,,,,,,,,,0,23,23,25,,,,,,,,,,,None,None,None,130.538,,,,,,,,,,,,,,,,,,,2019_Sep_23_1424,59.89767081917178,Cloud_Experiment_FR_REAL,001,49,
images/fcloud80-20_D0.9_8.tif,0.9,2,,,,,,,,,,,,,0,24,24,101,,,,,,,,,,,1,space,3,1.985,3.5189566,,,,,,,,,,,,,,,,,,2019_Sep_23_1424,59.89767081917178,Cloud_Experiment_FR_REAL,001,49,
images/fcloud65-35_D1.5_7.tif,1.5,1,,,,,,,,,,,,,0,25,25,76,,,,,,,,,,,2,space,2,0.602,9.5940709,,,,,,,,,,,,,,,,,,2019_Sep_23_1424,59.89767081917178,Cloud_Experiment_FR_REAL,001,49,
images/fcloud_D1.1_7.tif,1.1,0,,,,,,,,,,,,,0,26,26,12,,,,,,,,,,,None,None,None,9.776,,,,,,,,,,,,,,,,,,,2019_Sep_23_1424,59.89767081917178,Cloud_Experiment_FR_REAL,001,49,
images/fcloud_D1.8_10.tif,1.8,0,,,,,,,,,,,,,0,27,27,43,,,,,,,,,,,1,space,2,2.717,7.0351483,,,,,,,,,,,,,,,,,,2019_Sep_23_1424,59.89767081917178,Cloud_Experiment_FR_REAL,001,49,
images/fcloud80-20_D0.8_8.tif,0.8,2,,,,,,,,,,,,,0,28,28,97,,,,,,,,,,,None,None,None,11.625,,,,,,,,,,,,,,,,,,,2019_Sep_23_1424,59.89767081917178,Cloud_Experiment_FR_REAL,001,49,
images/fcloud_D0.9_8.tif,0.9,0,,,,,,,,,,,,,0,29,29,5,,,,,,,,,,,None,None,None,20.118,,,,,,,,,,,,,,,,,,,2019_Sep_23_1424,59.89767081917178,Cloud_Experiment_FR_REAL,001,49,
images/fcloud80-20_D1.4_7.tif,1.4,2,,,,,,,,,,,,,0,30,30,120,,,,,,,,,,,None,None,None,29.043,,,,,,,,,,,,,,,,,,,2019_Sep_23_1424,59.89767081917178,Cloud_Experiment_FR_REAL,001,49,
images/fcloud65-35_D1.8_9.tif,1.8,1,,,,,,,,,,,,,0,31,31,90,,,,,,,,,,,2,space,3,2.151,2.4264339,,,,,,,,,,,,,,,,,,2019_Sep_23_1424,59.89767081917178,Cloud_Experiment_FR_REAL,001,49,
images/fcloud65-35_D1.5_10.tif,1.5,1,,,,,,,,,,,,,0,32,32,79,,,,,,,,,,,None,None,None,11.175,,,,,,,,,,,,,,,,,,,2019_Sep_23_1424,59.89767081917178,Cloud_Experiment_FR_REAL,001,49,
images/fcloud65-35_D0.8_8.tif,0.8,1,,,,,,,,,,,,,0,33,33,49,,,,,,,,,,,3,space,1,0.752,7.6709636,,,,,,,,,,,,,,,,,,2019_Sep_23_1424,59.89767081917178,Cloud_Experiment_FR_REAL,001,49,
images/fcloud80-20_D1.8_10.tif,1.8,2,,,,,,,,,,,,,0,34,34,139,,,,,,,,,,,None,None,None,9.494,,,,,,,,,,,,,,,,,,,2019_Sep_23_1424,59.89767081917178,Cloud_Experiment_FR_REAL,001,49,
images/fcloud80-20_D1.2_10.tif,1.2,2,,,,,,,,,,,,,0,35,35,115,,,,,,,,,,,2,space,4,2.384,6.3668992,,,,,,,,,,,,,,,,,,2019_Sep_23_1424,59.89767081917178,Cloud_Experiment_FR_REAL,001,49,
images/fcloud80-20_D1.2_9.tif,1.2,2,,,,,,,,,,,,,0,36,36,114,,,,,,,,,,,None,None,None,11.308,,,,,,,,,,,,,,,,,,,2019_Sep_23_1424,59.89767081917178,Cloud_Experiment_FR_REAL,001,49,
images/fcloud80-20_D1.4_8.tif,1.4,2,,,,,,,,,,,,,0,37,37,121,,,,,,,,,,,1,space,1,0.852,7.7463814,,,,,,,,,,,,,,,,,,2019_Sep_23_1424,59.89767081917178,Cloud_Experiment_FR_REAL,001,49,
images/fcloud65-35_D1.1_8.tif,1.1,1,,,,,,,,,,,,,0,38,38,61,,,,,,,,,,,None,None,None,9.759,,,,,,,,,,,,,,,,,,,2019_Sep_23_1424,59.89767081917178,Cloud_Experiment_FR_REAL,001,49,
images/fcloud80-20_D1_8.tif,1.0,2,,,,,,,,,,,,,0,39,39,105,,,,,,,,,,,2,space,2,1.152,7.6466384,,,,,,,,,,,,,,,,,,2019_Sep_23_1424,59.89767081917178,Cloud_Experiment_FR_REAL,001,49,
images/fcloud65-35_D1.7_8.tif,1.7,1,,,,,,,,,,,,,0,40,40,85,,,,,,,,,,,None,None,None,10.026,,,,,,,,,,,,,,,,,,,2019_Sep_23_1424,59.89767081917178,Cloud_Experiment_FR_REAL,001,49,
images/fcloud80-20_D1.9_9.tif,1.9,2,,,,,,,,,,,,,0,41,41,142,,,,,,,,,,,None,None,None,18.551,,,,,,,,,,,,,,,,,,,2019_Sep_23_1424,59.89767081917178,Cloud_Experiment_FR_REAL,001,49,
images/fcloud_D1.6_8.tif,1.6,0,,,,,,,,,,,,,0,42,42,33,,,,,,,,,,,None,None,None,27.012,,,,,,,,,,,,,,,,,,,2019_Sep_23_1424,59.89767081917178,Cloud_Experiment_FR_REAL,001,49,
images/fcloud_D1.6_7.tif,1.6,0,,,,,,,,,,,,,0,43,43,32,,,,,,,,,,,None,None,None,35.603,,,,,,,,,,,,,,,,,,,2019_Sep_23_1424,59.89767081917178,Cloud_Experiment_FR_REAL,001,49,
images/fcloud80-20_D1.3_8.tif,1.3,2,,,,,,,,,,,,,0,44,44,117,,,,,,,,,,,None,None,None,44.13,,,,,,,,,,,,,,,,,,,2019_Sep_23_1424,59.89767081917178,Cloud_Experiment_FR_REAL,001,49,
images/fcloud65-35_D1.6_10.tif,1.6,1,,,,,,,,,,,,,0,45,45,83,,,,,,,,,,,None,None,None,52.905,,,,,,,,,,,,,,,,,,,2019_Sep_23_1424,59.89767081917178,Cloud_Experiment_FR_REAL,001,49,
images/fcloud65-35_D1.6_8.tif,1.6,1,,,,,,,,,,,,,0,46,46,81,,,,,,,,,,,1,None,1,1.001,,,,,,,,,,,,,,,,,,,2019_Sep_23_1424,59.89767081917178,Cloud_Experiment_FR_REAL,001,49,
images/fcloud80-20_D1.4_9.tif,1.4,2,,,,,,,,,,,,,0,47,47,122,,,,,,,,,,,None,None,None,9.643,,,,,,,,,,,,,,,,,,,2019_Sep_23_1424,59.89767081917178,Cloud_Experiment_FR_REAL,001,49,
images/fcloud65-35_D1.9_8.tif,1.9,1,,,,,,,,,,,,,0,48,48,93,,,,,,,,,,,None,None,None,19.285,,,,,,,,,,,,,,,,,,,2019_Sep_23_1424,59.89767081917178,Cloud_Experiment_FR_REAL,001,49,
images/fcloud80-20_D1.7_7.tif,1.7,2,,,,,,,,,,,,,0,49,49,132,,,,,,,,,,,1,None,3,2.617,,,,,,,,,,,,,,,,,,,2019_Sep_23_1424,59.89767081917178,Cloud_Experiment_FR_REAL,001,49,
images/fcloud_D0.8_8.tif,0.8,0,,,,,,,,,,,,,0,50,50,1,,,,,,,,,,,None,None,None,11.476,,,,,,,,,,,,,,,,,,,2019_Sep_23_1424,59.89767081917178,Cloud_Experiment_FR_REAL,001,49,
images/fcloud80-20_D1.2_7.tif,1.2,2,,,,,,,,,,,,,0,51,51,112,,,,,,,,,,,None,None,None,20.385,,,,,,,,,,,,,,,,,,,2019_Sep_23_1424,59.89767081917178,Cloud_Experiment_FR_REAL,001,49,
images/fcloud80-20_D1.5_8.tif,1.5,2,,,,,,,,,,,,,0,52,52,125,,,,,,,,,,,None,None,None,29.259,,,,,,,,,,,,,,,,,,,2019_Sep_23_1424,59.89767081917178,Cloud_Experiment_FR_REAL,001,49,
images/fcloud_D1.5_8.tif,1.5,0,,,,,,,,,,,,,0,53,53,29,,,,,,,,,,,None,None,None,38.151,,,,,,,,,,,,,,,,,,,2019_Sep_23_1424,59.89767081917178,Cloud_Experiment_FR_REAL,001,49,
images/fcloud_D1.6_9.tif,1.6,0,,,,,,,,,,,,,0,54,54,34,,,,,,,,,,,None,None,None,47.96,,,,,,,,,,,,,,,,,,,2019_Sep_23_1424,59.89767081917178,Cloud_Experiment_FR_REAL,001,49,
images/fcloud65-35_D1.9_9.tif,1.9,1,,,,,,,,,,,,,0,55,55,94,,,,,,,,,,,None,None,None,56.752,,,,,,,,,,,,,,,,,,,2019_Sep_23_1424,59.89767081917178,Cloud_Experiment_FR_REAL,001,49,
images/fcloud_D0.8_10.tif,0.8,0,,,,,,,,,,,,,0,56,56,3,,,,,,,,,,,None,None,None,65.445,,,,,,,,,,,,,,,,,,,2019_Sep_23_1424,59.89767081917178,Cloud_Experiment_FR_REAL,001,49,
images/fcloud80-20_D0.9_10.tif,0.9,2,,,,,,,,,,,,,0,57,57,103,,,,,,,,,,,1,space,1,1.118,9.7784429,,,,,,,,,,,,,,,,,,2019_Sep_23_1424,59.89767081917178,Cloud_Experiment_FR_REAL,001,49,
images/fcloud_D1.8_9.tif,1.8,0,,,,,,,,,,,,,0,58,58,42,,,,,,,,,,,None,None,None,9.959,,,,,,,,,,,,,,,,,,,2019_Sep_23_1424,59.89767081917178,Cloud_Experiment_FR_REAL,001,49,
images/fcloud65-35_D0.9_8.tif,0.9,1,,,,,,,,,,,,,0,59,59,53,,,,,,,,,,,None,None,None,18.535,,,,,,,,,,,,,,,,,,,2019_Sep_23_1424,59.89767081917178,Cloud_Experiment_FR_REAL,001,49,
images/fcloud80-20_D1.5_10.tif,1.5,2,,,,,,,,,,,,,0,60,60,127,,,,,,,,,,,1,space,1,1.451,3.0149155,,,,,,,,,,,,,,,,,,2019_Sep_23_1424,59.89767081917178,Cloud_Experiment_FR_REAL,001,49,
images/fcloud_D1.4_10.tif,1.4,0,,,,,,,,,,,,,0,61,61,27,,,,,,,,,,,2,space,3,1.251,7.8175954,,,,,,,,,,,,,,,,,,2019_Sep_23_1424,59.89767081917178,Cloud_Experiment_FR_REAL,001,49,
images/fcloud_D1.7_10.tif,1.7,0,,,,,,,,,,,,,0,62,62,39,,,,,,,,,,,None,None,None,None,,,,,,,,,,,,,,,,,,,2019_Sep_23_1424,59.89767081917178,Cloud_Experiment_FR_REAL,001,49,
images/fcloud65-35_D1.1_10.tif,1.1,1,,,,,,,,,,,,,0,63,63,63,,,,,,,,,,,None,None,None,10.176,,,,,,,,,,,,,,,,,,,2019_Sep_23_1424,59.89767081917178,Cloud_Experiment_FR_REAL,001,49,
images/fcloud65-35_D0.8_7.tif,0.8,1,,,,,,,,,,,,,0,64,64,48,,,,,,,,,,,None,None,None,18.635,,,,,,,,,,,,,,,,,,,2019_Sep_23_1424,59.89767081917178,Cloud_Experiment_FR_REAL,001,49,
images/fcloud_D1_10.tif,1.0,0,,,,,,,,,,,,,0,65,65,11,,,,,,,,,,,2,space,2,1.701,7.1314217,,,,,,,,,,,,,,,,,,2019_Sep_23_1424,59.89767081917178,Cloud_Experiment_FR_REAL,001,49,
images/fcloud80-20_D1.2_8.tif,1.2,2,,,,,,,,,,,,,0,66,66,113,,,,,,,,,,,1,space,4,2.167,4.2887995,,,,,,,,,,,,,,,,,,2019_Sep_23_1424,59.89767081917178,Cloud_Experiment_FR_REAL,001,49,
images/fcloud_D1.2_9.tif,1.2,0,,,,,,,,,,,,,0,67,67,18,,,,,,,,,,,None,None,None,10.959,,,,,,,,,,,,,,,,,,,2019_Sep_23_1424,59.89767081917178,Cloud_Experiment_FR_REAL,001,49,
images/fcloud_D1.4_7.tif,1.4,0,,,,,,,,,,,,,0,68,68,24,,,,,,,,,,,1,space,2,1.202,6.3731302,,,,,,,,,,,,,,,,,,2019_Sep_23_1424,59.89767081917178,Cloud_Experiment_FR_REAL,001,49,
images/fcloud65-35_D1.7_9.tif,1.7,1,,,,,,,,,,,,,0,69,69,86,,,,,,,,,,,None,None,None,10.375,,,,,,,,,,,,,,,,,,,2019_Sep_23_1424,59.89767081917178,Cloud_Experiment_FR_REAL,001,49,
images/fcloud65-35_D1.2_10.tif,1.2,1,,,,,,,,,,,,,0,70,70,67,,,,,,,,,,,None,None,None,19.219,,,,,,,,,,,,,,,,,,,2019_Sep_23_1424,59.89767081917178,Cloud_Experiment_FR_REAL,001,49,
images/fcloud_D1.5_10.tif,1.5,0,,,,,,,,,,,,,0,71,71,31,,,,,,,,,,,None,None,None,28.21,,,,,,,,,,,,,,,,,,,2019_Sep_23_1424,59.89767081917178,Cloud_Experiment_FR_REAL,001,49,
images/fcloud80-20_D1_7.tif,1.0,2,,,,,,,,,,,,,0,72,72,104,,,,,,,,,,,1,space,1,1.367,5.2606861,,,,,,,,,,,,,,,,,,2019_Sep_23_1424,59.89767081917178,Cloud_Experiment_FR_REAL,001,49,
images/fcloud_D1.3_7.tif,1.3,0,,,,,,,,,,,,,0,73,73,20,,,,,,,,,,,None,None,None,10.142,,,,,,,,,,,,,,,,,,,2019_Sep_23_1424,59.89767081917178,Cloud_Experiment_FR_REAL,001,49,
images/fcloud65-35_D1_7.tif,1.0,1,,,,,,,,,,,,,0,74,74,56,,,,,,,,,,,None,None,None,19.434,,,,,,,,,,,,,,,,,,,2019_Sep_23_1424,59.89767081917178,Cloud_Experiment_FR_REAL,001,49,
images/fcloud65-35_D1.9_10.tif,1.9,1,,,,,,,,,,,,,0,75,75,95,,,,,,,,,,,None,None,None,28.827,,,,,,,,,,,,,,,,,,,2019_Sep_23_1424,59.89767081917178,Cloud_Experiment_FR_REAL,001,49,
images/fcloud65-35_D1.1_9.tif,1.1,1,,,,,,,,,,,,,0,76,76,62,,,,,,,,,,,None,None,None,37.586,,,,,,,,,,,,,,,,,,,2019_Sep_23_1424,59.89767081917178,Cloud_Experiment_FR_REAL,001,49,
images/fcloud_D0.9_10.tif,0.9,0,,,,,,,,,,,,,0,77,77,7,,,,,,,,,,,None,None,None,46.661,,,,,,,,,,,,,,,,,,,2019_Sep_23_1424,59.89767081917178,Cloud_Experiment_FR_REAL,001,49,
images/fcloud65-35_D1.3_9.tif,1.3,1,,,,,,,,,,,,,0,78,78,70,,,,,,,,,,,None,None,None,55.552,,,,,,,,,,,,,,,,,,,2019_Sep_23_1424,59.89767081917178,Cloud_Experiment_FR_REAL,001,49,
images/fcloud65-35_D1_10.tif,1.0,1,,,,,,,,,,,,,0,79,79,59,,,,,,,,,,,1,space,4,0.636,4.6877766,,,,,,,,,,,,,,,,,,2019_Sep_23_1424,59.89767081917178,Cloud_Experiment_FR_REAL,001,49,
images/fcloud80-20_D1.7_8.tif,1.7,2,,,,,,,,,,,,,0,80,80,133,,,,,,,,,,,1,space,1,0.868,6.5872825,,,,,,,,,,,,,,,,,,2019_Sep_23_1424,59.89767081917178,Cloud_Experiment_FR_REAL,001,49,
images/fcloud_D1.3_10.tif,1.3,0,,,,,,,,,,,,,0,81,81,23,,,,,,,,,,,None,None,None,9.927,,,,,,,,,,,,,,,,,,,2019_Sep_23_1424,59.89767081917178,Cloud_Experiment_FR_REAL,001,49,
images/fcloud_D1.3_9.tif,1.3,0,,,,,,,,,,,,,0,82,82,22,,,,,,,,,,,None,None,None,19.018,,,,,,,,,,,,,,,,,,,2019_Sep_23_1424,59.89767081917178,Cloud_Experiment_FR_REAL,001,49,
images/fcloud_D1.6_10.tif,1.6,0,,,,,,,,,,,,,0,83,83,35,,,,,,,,,,,None,None,None,27.545,,,,,,,,,,,,,,,,,,,2019_Sep_23_1424,59.89767081917178,Cloud_Experiment_FR_REAL,001,49,
images/fcloud80-20_D1.6_7.tif,1.6,2,,,,,,,,,,,,,0,84,84,128,,,,,,,,,,,None,None,None,36.437,,,,,,,,,,,,,,,,,,,2019_Sep_23_1424,59.89767081917178,Cloud_Experiment_FR_REAL,001,49,
images/fcloud_D1.8_7.tif,1.8,0,,,,,,,,,,,,,0,85,85,40,,,,,,,,,,,1,space,3,1.518,6.7396882,,,,,,,,,,,,,,,,,,2019_Sep_23_1424,59.89767081917178,Cloud_Experiment_FR_REAL,001,49,
images/fcloud80-20_D1.5_9.tif,1.5,2,,,,,,,,,,,,,0,86,86,126,,,,,,,,,,,None,None,None,10.493,,,,,,,,,,,,,,,,,,,2019_Sep_23_1424,59.89767081917178,Cloud_Experiment_FR_REAL,001,49,
images/fcloud80-20_D1.8_8.tif,1.8,2,,,,,,,,,,,,,0,87,87,137,,,,,,,,,,,None,None,None,19.451,,,,,,,,,,,,,,,,,,,2019_Sep_23_1424,59.89767081917178,Cloud_Experiment_FR_REAL,001,49,
images/fcloud65-35_D1.2_8.tif,1.2,1,,,,,,,,,,,,,0,88,88,65,,,,,,,,,,,None,None,None,28.844,,,,,,,,,,,,,,,,,,,2019_Sep_23_1424,59.89767081917178,Cloud_Experiment_FR_REAL,001,49,
images/fcloud_D1.9_8.tif,1.9,0,,,,,,,,,,,,,0,89,89,45,,,,,,,,,,,None,None,None,37.686,,,,,,,,,,,,,,,,,,,2019_Sep_23_1424,59.89767081917178,Cloud_Experiment_FR_REAL,001,49,
images/fcloud_D0.9_7.tif,0.9,0,,,,,,,,,,,,,0,90,90,4,,,,,,,,,,,1,None,2,1.734,,,,,,,,,,,,,,,,,,,2019_Sep_23_1424,59.89767081917178,Cloud_Experiment_FR_REAL,001,49,
images/fcloud80-20_D1.7_9.tif,1.7,2,,,,,,,,,,,,,0,91,91,134,,,,,,,,,,,2,space,1,1.068,6.5629052,,,,,,,,,,,,,,,,,,2019_Sep_23_1424,59.89767081917178,Cloud_Experiment_FR_REAL,001,49,
images/fcloud_D1.4_9.tif,1.4,0,,,,,,,,,,,,,0,92,92,26,,,,,,,,,,,1,space,2,0.818,7.0388474,,,,,,,,,,,,,,,,,,2019_Sep_23_1424,59.89767081917178,Cloud_Experiment_FR_REAL,001,49,
images/fcloud65-35_D1.7_10.tif,1.7,1,,,,,,,,,,,,,0,93,93,87,,,,,,,,,,,None,None,None,9.711,,,,,,,,,,,,,,,,,,,2019_Sep_23_1424,59.89767081917178,Cloud_Experiment_FR_REAL,001,49,
images/fcloud65-35_D1.2_9.tif,1.2,1,,,,,,,,,,,,,0,94,94,66,,,,,,,,,,,1,space,4,2.102,7.2521014,,,,,,,,,,,,,,,,,,2019_Sep_23_1424,59.89767081917178,Cloud_Experiment_FR_REAL,001,49,
images/fcloud65-35_D1.6_7.tif,1.6,1,,,,,,,,,,,,,0,95,95,80,,,,,,,,,,,None,None,None,10.793,,,,,,,,,,,,,,,,,,,2019_Sep_23_1424,59.89767081917178,Cloud_Experiment_FR_REAL,001,49,
images/fcloud_D1_7.tif,1.0,0,,,,,,,,,,,,,0,96,96,8,,,,,,,,,,,2,space,3,1.002,6.5066082,,,,,,,,,,,,,,,,,,2019_Sep_23_1424,59.89767081917178,Cloud_Experiment_FR_REAL,001,49,
images/fcloud_D1.7_7.tif,1.7,0,,,,,,,,,,,,,0,97,97,36,,,,,,,,,,,None,None,None,9.443,,,,,,,,,,,,,,,,,,,2019_Sep_23_1424,59.89767081917178,Cloud_Experiment_FR_REAL,001,49,
images/fcloud80-20_D0.8_9.tif,0.8,2,,,,,,,,,,,,,0,98,98,98,,,,,,,,,,,None,None,None,18.636,,,,,,,,,,,,,,,,,,,2019_Sep_23_1424,59.89767081917178,Cloud_Experiment_FR_REAL,001,49,
images/fcloud65-35_D0.9_9.tif,0.9,1,,,,,,,,,,,,,0,99,99,54,,,,,,,,,,,None,None,None,27.661,,,,,,,,,,,,,,,,,,,2019_Sep_23_1424,59.89767081917178,Cloud_Experiment_FR_REAL,001,49,
images/fcloud65-35_D0.9_10.tif,0.9,1,,,,,,,,,,,,,0,100,100,55,,,,,,,,,,,None,None,None,36.702,,,,,,,,,,,,,,,,,,,2019_Sep_23_1424,59.89767081917178,Cloud_Experiment_FR_REAL,001,49,
images/fcloud65-35_D1.8_8.tif,1.8,1,,,,,,,,,,,,,0,101,101,89,,,,,,,,,,,None,None,None,45.912,,,,,,,,,,,,,,,,,,,2019_Sep_23_1424,59.89767081917178,Cloud_Experiment_FR_REAL,001,49,
images/fcloud_D0.8_7.tif,0.8,0,,,,,,,,,,,,,0,102,102,0,,,,,,,,,,,None,None,None,54.488,,,,,,,,,,,,,,,,,,,2019_Sep_23_1424,59.89767081917178,Cloud_Experiment_FR_REAL,001,49,
images/fcloud65-35_D1.8_7.tif,1.8,1,,,,,,,,,,,,,0,103,103,88,,,,,,,,,,,None,None,None,64.18,,,,,,,,,,,,,,,,,,,2019_Sep_23_1424,59.89767081917178,Cloud_Experiment_FR_REAL,001,49,
images/fcloud80-20_D0.9_9.tif,0.9,2,,,,,,,,,,,,,0,104,104,102,,,,,,,,,,,None,None,None,72.622,,,,,,,,,,,,,,,,,,,2019_Sep_23_1424,59.89767081917178,Cloud_Experiment_FR_REAL,001,49,
images/fcloud80-20_D1.5_7.tif,1.5,2,,,,,,,,,,,,,0,105,105,124,,,,,,,,,,,1,None,1,1.302,,,,,,,,,,,,,,,,,,,2019_Sep_23_1424,59.89767081917178,Cloud_Experiment_FR_REAL,001,49,
images/fcloud_D1.9_9.tif,1.9,0,,,,,,,,,,,,,0,106,106,46,,,,,,,,,,,None,None,None,10.227,,,,,,,,,,,,,,,,,,,2019_Sep_23_1424,59.89767081917178,Cloud_Experiment_FR_REAL,001,49,
images/fcloud_D1.9_10.tif,1.9,0,,,,,,,,,,,,,0,107,107,47,,,,,,,,,,,None,None,None,19.085,,,,,,,,,,,,,,,,,,,2019_Sep_23_1424,59.89767081917178,Cloud_Experiment_FR_REAL,001,49,
images/fcloud_D1.1_10.tif,1.1,0,,,,,,,,,,,,,0,108,108,15,,,,,,,,,,,2,None,2,1.119,,,,,,,,,,,,,,,,,,,2019_Sep_23_1424,59.89767081917178,Cloud_Experiment_FR_REAL,001,49,
images/fcloud65-35_D1.6_9.tif,1.6,1,,,,,,,,,,,,,0,109,109,82,,,,,,,,,,,1,None,1,0.917,,,,,,,,,,,,,,,,,,,2019_Sep_23_1424,59.89767081917178,Cloud_Experiment_FR_REAL,001,49,
images/fcloud65-35_D1.5_8.tif,1.5,1,,,,,,,,,,,,,0,110,110,77,,,,,,,,,,,None,None,None,10.041,,,,,,,,,,,,,,,,,,,2019_Sep_23_1424,59.89767081917178,Cloud_Experiment_FR_REAL,001,49,
images/fcloud80-20_D1.6_10.tif,1.6,2,,,,,,,,,,,,,0,111,111,131,,,,,,,,,,,None,None,None,19.218,,,,,,,,,,,,,,,,,,,2019_Sep_23_1424,59.89767081917178,Cloud_Experiment_FR_REAL,001,49,
images/fcloud80-20_D1.1_7.tif,1.1,2,,,,,,,,,,,,,0,112,112,108,,,,,,,,,,,None,None,None,28.077,,,,,,,,,,,,,,,,,,,2019_Sep_23_1424,59.89767081917178,Cloud_Experiment_FR_REAL,001,49,
images/fcloud65-35_D1_9.tif,1.0,1,,,,,,,,,,,,,0,113,113,58,,,,,,,,,,,None,None,None,37.135,,,,,,,,,,,,,,,,,,,2019_Sep_23_1424,59.89767081917178,Cloud_Experiment_FR_REAL,001,49,
images/fcloud_D1.2_7.tif,1.2,0,,,,,,,,,,,,,0,114,114,16,,,,,,,,,,,None,None,None,45.995,,,,,,,,,,,,,,,,,,,2019_Sep_23_1424,59.89767081917178,Cloud_Experiment_FR_REAL,001,49,
images/fcloud65-35_D1.2_7.tif,1.2,1,,,,,,,,,,,,,0,115,115,64,,,,,,,,,,,None,None,None,54.771,,,,,,,,,,,,,,,,,,,2019_Sep_23_1424,59.89767081917178,Cloud_Experiment_FR_REAL,001,49,
images/fcloud_D0.9_9.tif,0.9,0,,,,,,,,,,,,,0,116,116,6,,,,,,,,,,,2,space,3,1.268,3.8463361,,,,,,,,,,,,,,,,,,2019_Sep_23_1424,59.89767081917178,Cloud_Experiment_FR_REAL,001,49,
images/fcloud80-20_D1.9_10.tif,1.9,2,,,,,,,,,,,,,0,117,117,143,,,,,,,,,,,None,None,None,10.309,,,,,,,,,,,,,,,,,,,2019_Sep_23_1424,59.89767081917178,Cloud_Experiment_FR_REAL,001,49,
images/fcloud_D1.5_7.tif,1.5,0,,,,,,,,,,,,,0,118,118,28,,,,,,,,,,,None,None,None,19.285,,,,,,,,,,,,,,,,,,,2019_Sep_23_1424,59.89767081917178,Cloud_Experiment_FR_REAL,001,49,
images/fcloud80-20_D1.7_10.tif,1.7,2,,,,,,,,,,,,,0,119,119,135,,,,,,,,,,,None,None,None,28.176,,,,,,,,,,,,,,,,,,,2019_Sep_23_1424,59.89767081917178,Cloud_Experiment_FR_REAL,001,49,
images/fcloud80-20_D1.3_10.tif,1.3,2,,,,,,,,,,,,,0,120,120,119,,,,,,,,,,,1,space,4,1.434,7.7424899,,,,,,,,,,,,,,,,,,2019_Sep_23_1424,59.89767081917178,Cloud_Experiment_FR_REAL,001,49,
images/fcloud65-35_D1.4_9.tif,1.4,1,,,,,,,,,,,,,0,121,121,74,,,,,,,,,,,None,None,None,9.91,,,,,,,,,,,,,,,,,,,2019_Sep_23_1424,59.89767081917178,Cloud_Experiment_FR_REAL,001,49,
images/fcloud65-35_D1.3_8.tif,1.3,1,,,,,,,,,,,,,0,122,122,69,,,,,,,,,,,None,None,None,18.318,,,,,,,,,,,,,,,,,,,2019_Sep_23_1424,59.89767081917178,Cloud_Experiment_FR_REAL,001,49,
images/fcloud_D1.2_8.tif,1.2,0,,,,,,,,,,,,,0,123,123,17,,,,,,,,,,,1,space,1,0.535,8.1854981,,,,,,,,,,,,,,,,,,2019_Sep_23_1424,59.89767081917178,Cloud_Experiment_FR_REAL,001,49,
images/fcloud65-35_D1.3_10.tif,1.3,1,,,,,,,,,,,,,0,124,124,71,,,,,,,,,,,None,space,None,10.227,8.7107872,,,,,,,,,,,,,,,,,,2019_Sep_23_1424,59.89767081917178,Cloud_Experiment_FR_REAL,001,49,
images/fcloud80-20_D1.1_8.tif,1.1,2,,,,,,,,,,,,,0,125,125,109,,,,,,,,,,,None,None,None,19.335,,,,,,,,,,,,,,,,,,,2019_Sep_23_1424,59.89767081917178,Cloud_Experiment_FR_REAL,001,49,
images/fcloud65-35_D1_8.tif,1.0,1,,,,,,,,,,,,,0,126,126,57,,,,,,,,,,,None,None,None,28.426,,,,,,,,,,,,,,,,,,,2019_Sep_23_1424,59.89767081917178,Cloud_Experiment_FR_REAL,001,49,
images/fcloud80-20_D1.3_7.tif,1.3,2,,,,,,,,,,,,,0,127,127,116,,,,,,,,,,,None,None,None,37.867,,,,,,,,,,,,,,,,,,,2019_Sep_23_1424,59.89767081917178,Cloud_Experiment_FR_REAL,001,49,
images/fcloud80-20_D1.8_9.tif,1.8,2,,,,,,,,,,,,,0,128,128,138,,,,,,,,,,,None,None,None,46.561,,,,,,,,,,,,,,,,,,,2019_Sep_23_1424,59.89767081917178,Cloud_Experiment_FR_REAL,001,49,
images/fcloud65-35_D0.8_10.tif,0.8,1,,,,,,,,,,,,,0,129,129,51,,,,,,,,,,,None,None,None,55.038,,,,,,,,,,,,,,,,,,,2019_Sep_23_1424,59.89767081917178,Cloud_Experiment_FR_REAL,001,49,
images/fcloud_D1.7_8.tif,1.7,0,,,,,,,,,,,,,0,130,130,37,,,,,,,,,,,None,None,None,63.563,,,,,,,,,,,,,,,,,,,2019_Sep_23_1424,59.89767081917178,Cloud_Experiment_FR_REAL,001,49,
images/fcloud_D1_8.tif,1.0,0,,,,,,,,,,,,,0,131,131,9,,,,,,,,,,,None,None,None,72.055,,,,,,,,,,,,,,,,,,,2019_Sep_23_1424,59.89767081917178,Cloud_Experiment_FR_REAL,001,49,
images/fcloud_D1.5_9.tif,1.5,0,,,,,,,,,,,,,0,132,132,30,,,,,,,,,,,None,None,None,81.713,,,,,,,,,,,,,,,,,,,2019_Sep_23_1424,59.89767081917178,Cloud_Experiment_FR_REAL,001,49,
images/fcloud80-20_D0.8_10.tif,0.8,2,,,,,,,,,,,,,0,133,133,99,,,,,,,,,,,None,None,None,91.607,,,,,,,,,,,,,,,,,,,2019_Sep_23_1424,59.89767081917178,Cloud_Experiment_FR_REAL,001,49,
images/fcloud65-35_D1.4_10.tif,1.4,1,,,,,,,,,,,,,0,134,134,75,,,,,,,,,,,1,space,1,1.518,7.119454,,,,,,,,,,,,,,,,,,2019_Sep_23_1424,59.89767081917178,Cloud_Experiment_FR_REAL,001,49,
images/fcloud_D1.3_8.tif,1.3,0,,,,,,,,,,,,,0,135,135,21,,,,,,,,,,,None,None,None,10.575,,,,,,,,,,,,,,,,,,,2019_Sep_23_1424,59.89767081917178,Cloud_Experiment_FR_REAL,001,49,
images/fcloud_D1_9.tif,1.0,0,,,,,,,,,,,,,0,136,136,10,,,,,,,,,,,2,space,3,1.817,6.6681911,,,,,,,,,,,,,,,,,,2019_Sep_23_1424,59.89767081917178,Cloud_Experiment_FR_REAL,001,49,
images/fcloud_D1.9_7.tif,1.9,0,,,,,,,,,,,,,0,137,137,44,,,,,,,,,,,None,None,None,11.458,,,,,,,,,,,,,,,,,,,2019_Sep_23_1424,59.89767081917178,Cloud_Experiment_FR_REAL,001,49,
images/fcloud_D1.1_8.tif,1.1,0,,,,,,,,,,,,,0,138,138,13,,,,,,,,,,,None,None,None,19.885,,,,,,,,,,,,,,,,,,,2019_Sep_23_1424,59.89767081917178,Cloud_Experiment_FR_REAL,001,49,
images/fcloud80-20_D1.9_7.tif,1.9,2,,,,,,,,,,,,,0,139,139,140,,,,,,,,,,,None,None,None,28.41,,,,,,,,,,,,,,,,,,,2019_Sep_23_1424,59.89767081917178,Cloud_Experiment_FR_REAL,001,49,
images/fcloud65-35_D1.5_9.tif,1.5,1,,,,,,,,,,,,,0,140,140,78,,,,,,,,,,,2,space,4,2.018,4.0107644,,,,,,,,,,,,,,,,,,2019_Sep_23_1424,59.89767081917178,Cloud_Experiment_FR_REAL,001,49,
images/fcloud_D1.7_9.tif,1.7,0,,,,,,,,,,,,,0,141,141,38,,,,,,,,,,,3,None,3,1.268,,,,,,,,,,,,,,,,,,,2019_Sep_23_1424,59.89767081917178,Cloud_Experiment_FR_REAL,001,49,
images/fcloud80-20_D1.6_9.tif,1.6,2,,,,,,,,,,,,,0,142,142,130,,,,,,,,,,,None,None,None,10.26,,,,,,,,,,,,,,,,,,,2019_Sep_23_1424,59.89767081917178,Cloud_Experiment_FR_REAL,001,49,
images/fcloud65-35_D1.9_7.tif,1.9,1,,,,,,,,,,,,,0,143,143,92,,,,,,,,,,,None,None,None,18.736,,,,,,,,,,,,,,,,,,,2019_Sep_23_1424,59.89767081917178,Cloud_Experiment_FR_REAL,001,49,
,,,,,,,,,,,,,,,,,,,,,,,,,5,6.794,,,,,,,,,,,,,,,,,,,,,,,,,2019_Sep_23_1424,59.89767081917178,Cloud_Experiment_FR_REAL,001,49,
,,,,,,,,,,,,,,,,,,,,,,,,,,,,,,,,,,3,,,,,,,,,,,,,,,,,2019_Sep_23_1424,59.89767081917178,Cloud_Experiment_FR_REAL,001,49,
,,,,,,,,,,,,,,,,,,,,,,,,,,,,,,,,,,,5,,,,,,,,,,,,,,,,2019_Sep_23_1424,59.89767081917178,Cloud_Experiment_FR_REAL,001,49,
,,,,,,,,,,,,,,,,,,,,,,,,,,,,,,,,,,,,5,,,,,,,,,,,,,,,2019_Sep_23_1424,59.89767081917178,Cloud_Experiment_FR_REAL,001,49,
,,,,,,,,,,,,,,,,,,,,,,,,,,,,,,,,,,,,,5,,,,,,,,,,,,,,2019_Sep_23_1424,59.89767081917178,Cloud_Experiment_FR_REAL,001,49,
,,,,,,,,,,,,,,,,,,,,,,,,,,,,,,,,,,,,,,3,,,,,,,,,,,,,2019_Sep_23_1424,59.89767081917178,Cloud_Experiment_FR_REAL,001,49,
,,,,,,,,,,,,,,,,,,,,,,,,,,,,,,,,,,,,,,,5,,,,,,,,,,,,2019_Sep_23_1424,59.89767081917178,Cloud_Experiment_FR_REAL,001,49,
,,,,,,,,,,,,,,,,,,,,,,,,,,,,,,,,,,,,,,,,5,,,,,,,,,,,2019_Sep_23_1424,59.89767081917178,Cloud_Experiment_FR_REAL,001,49,
,,,,,,,,,,,,,,,,,,,,,,,,,,,,,,,,,,,,,,,,,6,,,,,,,,,,2019_Sep_23_1424,59.89767081917178,Cloud_Experiment_FR_REAL,001,49,
,,,,,,,,,,,,,,,,,,,,,,,,,,,,,,,,,,,,,,,,,,6,,,,,,,,,2019_Sep_23_1424,59.89767081917178,Cloud_Experiment_FR_REAL,001,49,
,,,,,,,,,,,,,,,,,,,,,,,,,,,,,,,,,,,,,,,,,,,6,,,,,,,,2019_Sep_23_1424,59.89767081917178,Cloud_Experiment_FR_REAL,001,49,
,,,,,,,,,,,,,,,,,,,,,,,,,,,,,,,,,,,,,,,,,,,,,,,,,,4,2019_Sep_23_1424,59.89767081917178,Cloud_Experiment_FR_REAL,001,49,
