ImageFile,FD,Contrast,trials_4.thisRepN,trials_4.thisTrialN,trials_4.thisN,trials_4.thisIndex,trials.thisRepN,trials.thisTrialN,trials.thisN,trials.thisIndex,trials_2.thisRepN,trials_2.thisTrialN,trials_2.thisN,trials_2.thisIndex,trials_3.thisRepN,trials_3.thisTrialN,trials_3.thisN,trials_3.thisIndex,end_instructions.keys,end_instructions.rt,key_resp_4.keys,key_resp_4.rt,key_resp_6.keys,key_resp_6.rt,Fatigue.response,Fatigue.rt,key_resp_5.keys,key_resp_5.rt,n_objets.response,reaction_time.keys,reaction_time.rt,vividness.response,vividness.rt,Flow01.response,Flow02.response,Flow03.response,Flow04.response,Flow05.response,Flow06.response,Flow07.response,Flow08.response,Flow09.response,Flow10.response,key_resp_2.keys,key_resp_2.rt,key_resp_8.keys,key_resp_8.rt,key_resp_3.keys,key_resp_3.rt,Redondance_question.response,date,frameRate,expName,session,participant,
,,,,,,,,,,,,,,,,,,,space,33.1061718,,,,,,,,,,,,,,,,,,,,,,,,,,,,,,,2019_Sep_24_1754,60.1909256158726,Cloud_Experiment_FR_REAL,001,50,
,,,,,,,,,,,,,,,,,,,,,space,49.3430576,,,,,,,,,,,,,,,,,,,,,,,,,,,,,2019_Sep_24_1754,60.1909256158726,Cloud_Experiment_FR_REAL,001,50,
,,,,,,,,,,,,,,,,,,,,,,,space,19.7356008,,,,,,,,,,,,,,,,,,,,,,,,,,,2019_Sep_24_1754,60.1909256158726,Cloud_Experiment_FR_REAL,001,50,
,,,,,,,,,,,,,,,,,,,,,,,,,8,171.3,,,,,,,,,,,,,,,,,,,,,,,,,2019_Sep_24_1754,60.1909256158726,Cloud_Experiment_FR_REAL,001,50,
,,,,,,,,,,,,,,,,,,,,,,,,,,,space,6.6965507,,,,,,,,,,,,,,,,,,,,,,,2019_Sep_24_1754,60.1909256158726,Cloud_Experiment_FR_REAL,001,50,
pratique/fcloud80-20_D1_30,1.0,2,0,0,0,9,,,,,,,,,,,,,,,,,,,,,,,1,space,6.5807914,2,7.878,,,,,,,,,,,,,,,,,,2019_Sep_24_1754,60.1909256158726,Cloud_Experiment_FR_REAL,001,50,
pratique/fcloud65-35_D1.9_29,1.9,1,0,1,1,7,,,,,,,,,,,,,,,,,,,,,,,1,None,,1,3.016,,,,,,,,,,,,,,,,,,2019_Sep_24_1754,60.1909256158726,Cloud_Experiment_FR_REAL,001,50,
pratique/fcloud_D0.8_30,0.8,0,0,2,2,0,,,,,,,,,,,,,,,,,,,,,,,2,None,,3,2.719,,,,,,,,,,,,,,,,,,2019_Sep_24_1754,60.1909256158726,Cloud_Experiment_FR_REAL,001,50,
pratique/fcloud80-20_D1.8_30,1.8,2,0,3,3,4,,,,,,,,,,,,,,,,,,,,,,,1,space,7.53614410001,1,3.167,,,,,,,,,,,,,,,,,,2019_Sep_24_1754,60.1909256158726,Cloud_Experiment_FR_REAL,001,50,
pratique/fcloud_D1.4_30,1.4,0,0,4,4,1,,,,,,,,,,,,,,,,,,,,,,,1,space,3.784237,3,3.566,,,,,,,,,,,,,,,,,,2019_Sep_24_1754,60.1909256158726,Cloud_Experiment_FR_REAL,001,50,
pratique/fcloud65-35_D1.6_30,1.6,1,0,5,5,2,,,,,,,,,,,,,,,,,,,,,,,None,None,,None,18.47,,,,,,,,,,,,,,,,,,2019_Sep_24_1754,60.1909256158726,Cloud_Experiment_FR_REAL,001,50,
pratique/fcloud80-20_D1.5_30,1.5,2,0,6,6,8,,,,,,,,,,,,,,,,,,,,,,,1,space,2.5580458,4,1.536,,,,,,,,,,,,,,,,,,2019_Sep_24_1754,60.1909256158726,Cloud_Experiment_FR_REAL,001,50,
pratique/fcloud65-35_D1.3_30,1.3,1,0,7,7,6,,,,,,,,,,,,,,,,,,,,,,,None,None,,None,10.859,,,,,,,,,,,,,,,,,,2019_Sep_24_1754,60.1909256158726,Cloud_Experiment_FR_REAL,001,50,
pratique/fcloud_D1.6_28,1.6,0,0,8,8,5,,,,,,,,,,,,,,,,,,,,,,,2,space,1.808144,4,2.532,,,,,,,,,,,,,,,,,,2019_Sep_24_1754,60.1909256158726,Cloud_Experiment_FR_REAL,001,50,
pratique/fcloud65-35_D1.2_30,1.2,1,0,9,9,3,,,,,,,,,,,,,,,,,,,,,,,None,None,,None,12.274,,,,,,,,,,,,,,,,,,2019_Sep_24_1754,60.1909256158726,Cloud_Experiment_FR_REAL,001,50,
,,,,,,,,,,,,,,,,,,,,,,,,,,,,,,,,,,5,,,,,,,,,,,,,,,,,2019_Sep_24_1754,60.1909256158726,Cloud_Experiment_FR_REAL,001,50,
,,,,,,,,,,,,,,,,,,,,,,,,,,,,,,,,,,,4,,,,,,,,,,,,,,,,2019_Sep_24_1754,60.1909256158726,Cloud_Experiment_FR_REAL,001,50,
,,,,,,,,,,,,,,,,,,,,,,,,,,,,,,,,,,,,4,,,,,,,,,,,,,,,2019_Sep_24_1754,60.1909256158726,Cloud_Experiment_FR_REAL,001,50,
,,,,,,,,,,,,,,,,,,,,,,,,,,,,,,,,,,,,,5,,,,,,,,,,,,,,2019_Sep_24_1754,60.1909256158726,Cloud_Experiment_FR_REAL,001,50,
,,,,,,,,,,,,,,,,,,,,,,,,,,,,,,,,,,,,,,5,,,,,,,,,,,,,2019_Sep_24_1754,60.1909256158726,Cloud_Experiment_FR_REAL,001,50,
,,,,,,,,,,,,,,,,,,,,,,,,,,,,,,,,,,,,,,,3,,,,,,,,,,,,2019_Sep_24_1754,60.1909256158726,Cloud_Experiment_FR_REAL,001,50,
,,,,,,,,,,,,,,,,,,,,,,,,,,,,,,,,,,,,,,,,6,,,,,,,,,,,2019_Sep_24_1754,60.1909256158726,Cloud_Experiment_FR_REAL,001,50,
,,,,,,,,,,,,,,,,,,,,,,,,,,,,,,,,,,,,,,,,,7,,,,,,,,,,2019_Sep_24_1754,60.1909256158726,Cloud_Experiment_FR_REAL,001,50,
,,,,,,,,,,,,,,,,,,,,,,,,,,,,,,,,,,,,,,,,,,7,,,,,,,,,2019_Sep_24_1754,60.1909256158726,Cloud_Experiment_FR_REAL,001,50,
,,,,,,,,,,,,,,,,,,,,,,,,,,,,,,,,,,,,,,,,,,,1,,,,,,,,2019_Sep_24_1754,60.1909256158726,Cloud_Experiment_FR_REAL,001,50,
,,,,,,,,,,,,,,,,,,,,,,,,,,,,,,,,,,,,,,,,,,,,space,3.9660653,,,,,,2019_Sep_24_1754,60.1909256158726,Cloud_Experiment_FR_REAL,001,50,
images/fcloud_D1.4_3.tif,1.4,0,,,,,0,0,0,20,,,,,,,,,,,,,,,,,,,None,None,,None,146.058,,,,,,,,,,,,,,,,,,2019_Sep_24_1754,60.1909256158726,Cloud_Experiment_FR_REAL,001,50,
images/fcloud65-35_D1.1_2.tif,1.1,1,,,,,0,1,1,46,,,,,,,,,,,,,,,,,,,1,space,2.64551620001,2,1.851,,,,,,,,,,,,,,,,,,2019_Sep_24_1754,60.1909256158726,Cloud_Experiment_FR_REAL,001,50,
images/fcloud_D1.9_2.tif,1.9,0,,,,,0,2,2,34,,,,,,,,,,,,,,,,,,,None,None,,None,12.623,,,,,,,,,,,,,,,,,,2019_Sep_24_1754,60.1909256158726,Cloud_Experiment_FR_REAL,001,50,
images/fcloud80-20_D1.4_2.tif,1.4,2,,,,,0,3,3,91,,,,,,,,,,,,,,,,,,,1,space,4.82045280001,4,5.414,,,,,,,,,,,,,,,,,,2019_Sep_24_1754,60.1909256158726,Cloud_Experiment_FR_REAL,001,50,
images/fcloud_D0.8_2.tif,0.8,0,,,,,0,4,4,1,,,,,,,,,,,,,,,,,,,None,None,,None,14.89,,,,,,,,,,,,,,,,,,2019_Sep_24_1754,60.1909256158726,Cloud_Experiment_FR_REAL,001,50,
images/fcloud65-35_D1.1_1.tif,1.1,1,,,,,0,5,5,45,,,,,,,,,,,,,,,,,,,1,space,5.4471419,2,1.7,,,,,,,,,,,,,,,,,,2019_Sep_24_1754,60.1909256158726,Cloud_Experiment_FR_REAL,001,50,
images/fcloud65-35_D1.2_3.tif,1.2,1,,,,,0,6,6,50,,,,,,,,,,,,,,,,,,,2,space,2.0094332,5,1.935,,,,,,,,,,,,,,,,,,2019_Sep_24_1754,60.1909256158726,Cloud_Experiment_FR_REAL,001,50,
images/fcloud65-35_D1.8_2.tif,1.8,1,,,,,0,7,7,67,,,,,,,,,,,,,,,,,,,None,None,,None,11.108,,,,,,,,,,,,,,,,,,2019_Sep_24_1754,60.1909256158726,Cloud_Experiment_FR_REAL,001,50,
images/fcloud_D1.8_3.tif,1.8,0,,,,,0,8,8,32,,,,,,,,,,,,,,,,,,,None,None,,None,19.701,,,,,,,,,,,,,,,,,,2019_Sep_24_1754,60.1909256158726,Cloud_Experiment_FR_REAL,001,50,
images/fcloud80-20_D1.5_2.tif,1.5,2,,,,,0,9,9,94,,,,,,,,,,,,,,,,,,,2,space,3.83404110001,4,3.965,,,,,,,,,,,,,,,,,,2019_Sep_24_1754,60.1909256158726,Cloud_Experiment_FR_REAL,001,50,
images/fcloud65-35_D0.9_1.tif,0.9,1,,,,,0,10,10,39,,,,,,,,,,,,,,,,,,,1,space,7.5231201,3,2.784,,,,,,,,,,,,,,,,,,2019_Sep_24_1754,60.1909256158726,Cloud_Experiment_FR_REAL,001,50,
images/fcloud65-35_D1.4_1.tif,1.4,1,,,,,0,11,11,54,,,,,,,,,,,,,,,,,,,2,space,4.9392163,3,3.798,,,,,,,,,,,,,,,,,,2019_Sep_24_1754,60.1909256158726,Cloud_Experiment_FR_REAL,001,50,
images/fcloud_D1.1_3.tif,1.1,0,,,,,0,12,12,11,,,,,,,,,,,,,,,,,,,None,None,,None,13.189,,,,,,,,,,,,,,,,,,2019_Sep_24_1754,60.1909256158726,Cloud_Experiment_FR_REAL,001,50,
images/fcloud_D1.7_2.tif,1.7,0,,,,,0,13,13,28,,,,,,,,,,,,,,,,,,,2,space,3.49462499999,2,1.751,,,,,,,,,,,,,,,,,,2019_Sep_24_1754,60.1909256158726,Cloud_Experiment_FR_REAL,001,50,
images/fcloud_D1.6_3.tif,1.6,0,,,,,0,14,14,26,,,,,,,,,,,,,,,,,,,None,None,,None,10.859,,,,,,,,,,,,,,,,,,2019_Sep_24_1754,60.1909256158726,Cloud_Experiment_FR_REAL,001,50,
images/fcloud80-20_D1_1.tif,1.0,2,,,,,0,15,15,78,,,,,,,,,,,,,,,,,,,2,space,1.9706648,2,0.823,,,,,,,,,,,,,,,,,,2019_Sep_24_1754,60.1909256158726,Cloud_Experiment_FR_REAL,001,50,
images/fcloud80-20_D1.7_3.tif,1.7,2,,,,,0,16,16,101,,,,,,,,,,,,,,,,,,,2,space,3.9965674,3,4.366,,,,,,,,,,,,,,,,,,2019_Sep_24_1754,60.1909256158726,Cloud_Experiment_FR_REAL,001,50,
images/fcloud_D1.3_2.tif,1.3,0,,,,,0,17,17,16,,,,,,,,,,,,,,,,,,,5,space,5.32048189999,5,9.177,,,,,,,,,,,,,,,,,,2019_Sep_24_1754,60.1909256158726,Cloud_Experiment_FR_REAL,001,50,
images/fcloud_D1.1_1.tif,1.1,0,,,,,0,18,18,9,,,,,,,,,,,,,,,,,,,1,space,6.5738066,4,1.069,,,,,,,,,,,,,,,,,,2019_Sep_24_1754,60.1909256158726,Cloud_Experiment_FR_REAL,001,50,
images/fcloud_D1.6_2.tif,1.6,0,,,,,0,19,19,25,,,,,,,,,,,,,,,,,,,1,None,,1,0.884,,,,,,,,,,,,,,,,,,2019_Sep_24_1754,60.1909256158726,Cloud_Experiment_FR_REAL,001,50,
images/fcloud65-35_D0.8_2.tif,0.8,1,,,,,0,20,20,37,,,,,,,,,,,,,,,,,,,1,space,5.59170590001,3,1.15,,,,,,,,,,,,,,,,,,2019_Sep_24_1754,60.1909256158726,Cloud_Experiment_FR_REAL,001,50,
images/fcloud_D0.9_3.tif,0.9,0,,,,,0,21,21,5,,,,,,,,,,,,,,,,,,,1,space,5.7152541,4,3.665,,,,,,,,,,,,,,,,,,2019_Sep_24_1754,60.1909256158726,Cloud_Experiment_FR_REAL,001,50,
images/fcloud_D1.1_2.tif,1.1,0,,,,,0,22,22,10,,,,,,,,,,,,,,,,,,,2,space,2.98191830001,2,0.802,,,,,,,,,,,,,,,,,,2019_Sep_24_1754,60.1909256158726,Cloud_Experiment_FR_REAL,001,50,
images/fcloud_D1.2_2.tif,1.2,0,,,,,0,23,23,13,,,,,,,,,,,,,,,,,,,1,space,1.79439329999,3,0.702,,,,,,,,,,,,,,,,,,2019_Sep_24_1754,60.1909256158726,Cloud_Experiment_FR_REAL,001,50,
images/fcloud80-20_D1_2.tif,1.0,2,,,,,0,24,24,79,,,,,,,,,,,,,,,,,,,None,None,,None,10.125,,,,,,,,,,,,,,,,,,2019_Sep_24_1754,60.1909256158726,Cloud_Experiment_FR_REAL,001,50,
images/fcloud_D1.2_1.tif,1.2,0,,,,,0,25,25,12,,,,,,,,,,,,,,,,,,,3,space,1.9688392,4,1.351,,,,,,,,,,,,,,,,,,2019_Sep_24_1754,60.1909256158726,Cloud_Experiment_FR_REAL,001,50,
images/fcloud_D1.9_1.tif,1.9,0,,,,,0,26,26,33,,,,,,,,,,,,,,,,,,,None,None,,None,11.208,,,,,,,,,,,,,,,,,,2019_Sep_24_1754,60.1909256158726,Cloud_Experiment_FR_REAL,001,50,
images/fcloud80-20_D1.2_3.tif,1.2,2,,,,,0,27,27,86,,,,,,,,,,,,,,,,,,,1,space,7.7573101,3,1.287,,,,,,,,,,,,,,,,,,2019_Sep_24_1754,60.1909256158726,Cloud_Experiment_FR_REAL,001,50,
images/fcloud_D1.5_3.tif,1.5,0,,,,,0,28,28,23,,,,,,,,,,,,,,,,,,,1,space,5.0045116,1,0.719,,,,,,,,,,,,,,,,,,2019_Sep_24_1754,60.1909256158726,Cloud_Experiment_FR_REAL,001,50,
images/fcloud_D1.6_1.tif,1.6,0,,,,,0,29,29,24,,,,,,,,,,,,,,,,,,,1,space,4.80522570001,1,0.719,,,,,,,,,,,,,,,,,,2019_Sep_24_1754,60.1909256158726,Cloud_Experiment_FR_REAL,001,50,
images/fcloud_D1_3.tif,1.0,0,,,,,0,30,30,8,,,,,,,,,,,,,,,,,,,1,space,7.0813143,1,1.186,,,,,,,,,,,,,,,,,,2019_Sep_24_1754,60.1909256158726,Cloud_Experiment_FR_REAL,001,50,
images/fcloud80-20_D1.9_2.tif,1.9,2,,,,,0,31,31,106,,,,,,,,,,,,,,,,,,,1,space,7.23381549999,1,1.035,,,,,,,,,,,,,,,,,,2019_Sep_24_1754,60.1909256158726,Cloud_Experiment_FR_REAL,001,50,
images/fcloud80-20_D1.8_3.tif,1.8,2,,,,,0,32,32,104,,,,,,,,,,,,,,,,,,,None,None,,None,10.424,,,,,,,,,,,,,,,,,,2019_Sep_24_1754,60.1909256158726,Cloud_Experiment_FR_REAL,001,50,
images/fcloud80-20_D1.2_1.tif,1.2,2,,,,,0,33,33,84,,,,,,,,,,,,,,,,,,,1,space,7.8058851,2,1.485,,,,,,,,,,,,,,,,,,2019_Sep_24_1754,60.1909256158726,Cloud_Experiment_FR_REAL,001,50,
images/fcloud_D1.9_3.tif,1.9,0,,,,,0,34,34,35,,,,,,,,,,,,,,,,,,,None,None,,None,10.924,,,,,,,,,,,,,,,,,,2019_Sep_24_1754,60.1909256158726,Cloud_Experiment_FR_REAL,001,50,
images/fcloud80-20_D1.6_1.tif,1.6,2,,,,,0,35,35,96,,,,,,,,,,,,,,,,,,,1,space,4.54475060001,4,1.966,,,,,,,,,,,,,,,,,,2019_Sep_24_1754,60.1909256158726,Cloud_Experiment_FR_REAL,001,50,
images/fcloud65-35_D1.3_3.tif,1.3,1,,,,,0,36,36,53,,,,,,,,,,,,,,,,,,,None,None,,None,11.075,,,,,,,,,,,,,,,,,,2019_Sep_24_1754,60.1909256158726,Cloud_Experiment_FR_REAL,001,50,
images/fcloud65-35_D1.3_1.tif,1.3,1,,,,,0,37,37,51,,,,,,,,,,,,,,,,,,,1,space,6.2584273,5,1.652,,,,,,,,,,,,,,,,,,2019_Sep_24_1754,60.1909256158726,Cloud_Experiment_FR_REAL,001,50,
images/fcloud65-35_D1.4_2.tif,1.4,1,,,,,0,38,38,55,,,,,,,,,,,,,,,,,,,1,space,5.5427507,3,0.935,,,,,,,,,,,,,,,,,,2019_Sep_24_1754,60.1909256158726,Cloud_Experiment_FR_REAL,001,50,
images/fcloud65-35_D1_3.tif,1.0,1,,,,,0,39,39,44,,,,,,,,,,,,,,,,,,,1,space,3.38131119999,3,0.537,,,,,,,,,,,,,,,,,,2019_Sep_24_1754,60.1909256158726,Cloud_Experiment_FR_REAL,001,50,
images/fcloud80-20_D0.9_1.tif,0.9,2,,,,,0,40,40,75,,,,,,,,,,,,,,,,,,,1,space,4.6539912,3,3.499,,,,,,,,,,,,,,,,,,2019_Sep_24_1754,60.1909256158726,Cloud_Experiment_FR_REAL,001,50,
images/fcloud80-20_D1.3_2.tif,1.3,2,,,,,0,41,41,88,,,,,,,,,,,,,,,,,,,1,space,5.55254270001,4,0.718,,,,,,,,,,,,,,,,,,2019_Sep_24_1754,60.1909256158726,Cloud_Experiment_FR_REAL,001,50,
images/fcloud80-20_D1.1_3.tif,1.1,2,,,,,0,42,42,83,,,,,,,,,,,,,,,,,,,1,space,7.46519610001,4,0.702,,,,,,,,,,,,,,,,,,2019_Sep_24_1754,60.1909256158726,Cloud_Experiment_FR_REAL,001,50,
images/fcloud_D1.4_1.tif,1.4,0,,,,,0,43,43,18,,,,,,,,,,,,,,,,,,,None,None,,None,10.008,,,,,,,,,,,,,,,,,,2019_Sep_24_1754,60.1909256158726,Cloud_Experiment_FR_REAL,001,50,
images/fcloud80-20_D0.8_1.tif,0.8,2,,,,,0,44,44,72,,,,,,,,,,,,,,,,,,,None,None,,None,19.201,,,,,,,,,,,,,,,,,,2019_Sep_24_1754,60.1909256158726,Cloud_Experiment_FR_REAL,001,50,
images/fcloud80-20_D0.9_2.tif,0.9,2,,,,,0,45,45,76,,,,,,,,,,,,,,,,,,,2,space,2.000078,5,1.352,,,,,,,,,,,,,,,,,,2019_Sep_24_1754,60.1909256158726,Cloud_Experiment_FR_REAL,001,50,
images/fcloud_D1.2_3.tif,1.2,0,,,,,0,46,46,14,,,,,,,,,,,,,,,,,,,1,space,8.4962231,2,1.367,,,,,,,,,,,,,,,,,,2019_Sep_24_1754,60.1909256158726,Cloud_Experiment_FR_REAL,001,50,
images/fcloud65-35_D1_1.tif,1.0,1,,,,,0,47,47,42,,,,,,,,,,,,,,,,,,,1,space,5.999505,3,0.502,,,,,,,,,,,,,,,,,,2019_Sep_24_1754,60.1909256158726,Cloud_Experiment_FR_REAL,001,50,
images/fcloud_D1.7_1.tif,1.7,0,,,,,0,48,48,27,,,,,,,,,,,,,,,,,,,None,None,,None,10.009,,,,,,,,,,,,,,,,,,2019_Sep_24_1754,60.1909256158726,Cloud_Experiment_FR_REAL,001,50,
images/fcloud65-35_D1.4_3.tif,1.4,1,,,,,0,49,49,56,,,,,,,,,,,,,,,,,,,1,space,4.1507248,4,2.318,,,,,,,,,,,,,,,,,,2019_Sep_24_1754,60.1909256158726,Cloud_Experiment_FR_REAL,001,50,
images/fcloud65-35_D1.5_1.tif,1.5,1,,,,,0,50,50,57,,,,,,,,,,,,,,,,,,,1,space,6.89378490001,1,1.235,,,,,,,,,,,,,,,,,,2019_Sep_24_1754,60.1909256158726,Cloud_Experiment_FR_REAL,001,50,
images/fcloud_D1.3_3.tif,1.3,0,,,,,0,51,51,17,,,,,,,,,,,,,,,,,,,1,space,2.4967508,3,1.319,,,,,,,,,,,,,,,,,,2019_Sep_24_1754,60.1909256158726,Cloud_Experiment_FR_REAL,001,50,
images/fcloud_D0.8_3.tif,0.8,0,,,,,0,52,52,2,,,,,,,,,,,,,,,,,,,1,space,3.76138159999,2,0.603,,,,,,,,,,,,,,,,,,2019_Sep_24_1754,60.1909256158726,Cloud_Experiment_FR_REAL,001,50,
images/fcloud80-20_D1.6_3.tif,1.6,2,,,,,0,53,53,98,,,,,,,,,,,,,,,,,,,None,None,,None,10.491,,,,,,,,,,,,,,,,,,2019_Sep_24_1754,60.1909256158726,Cloud_Experiment_FR_REAL,001,50,
images/fcloud80-20_D0.9_3.tif,0.9,2,,,,,0,54,54,77,,,,,,,,,,,,,,,,,,,2,space,3.05030300001,4,1.152,,,,,,,,,,,,,,,,,,2019_Sep_24_1754,60.1909256158726,Cloud_Experiment_FR_REAL,001,50,
images/fcloud80-20_D1_3.tif,1.0,2,,,,,0,55,55,80,,,,,,,,,,,,,,,,,,,None,space,8.5192596,None,11.675,,,,,,,,,,,,,,,,,,2019_Sep_24_1754,60.1909256158726,Cloud_Experiment_FR_REAL,001,50,
images/fcloud65-35_D1.2_1.tif,1.2,1,,,,,0,56,56,48,,,,,,,,,,,,,,,,,,,None,None,,None,21.1,,,,,,,,,,,,,,,,,,2019_Sep_24_1754,60.1909256158726,Cloud_Experiment_FR_REAL,001,50,
images/fcloud_D1.7_3.tif,1.7,0,,,,,0,57,57,29,,,,,,,,,,,,,,,,,,,1,space,7.9754406,3,0.784,,,,,,,,,,,,,,,,,,2019_Sep_24_1754,60.1909256158726,Cloud_Experiment_FR_REAL,001,50,
images/fcloud65-35_D1.5_2.tif,1.5,1,,,,,0,58,58,58,,,,,,,,,,,,,,,,,,,4,space,1.6630321,4,0.885,,,,,,,,,,,,,,,,,,2019_Sep_24_1754,60.1909256158726,Cloud_Experiment_FR_REAL,001,50,
images/fcloud_D0.8_1.tif,0.8,0,,,,,0,59,59,0,,,,,,,,,,,,,,,,,,,1,space,4.7790255,2,1.452,,,,,,,,,,,,,,,,,,2019_Sep_24_1754,60.1909256158726,Cloud_Experiment_FR_REAL,001,50,
images/fcloud_D1.8_1.tif,1.8,0,,,,,0,60,60,30,,,,,,,,,,,,,,,,,,,None,None,,None,10.626,,,,,,,,,,,,,,,,,,2019_Sep_24_1754,60.1909256158726,Cloud_Experiment_FR_REAL,001,50,
images/fcloud80-20_D1.7_2.tif,1.7,2,,,,,0,61,61,100,,,,,,,,,,,,,,,,,,,2,space,2.5938968,5,1.436,,,,,,,,,,,,,,,,,,2019_Sep_24_1754,60.1909256158726,Cloud_Experiment_FR_REAL,001,50,
images/fcloud65-35_D1.6_1.tif,1.6,1,,,,,0,62,62,60,,,,,,,,,,,,,,,,,,,1,space,6.8136141,3,0.551,,,,,,,,,,,,,,,,,,2019_Sep_24_1754,60.1909256158726,Cloud_Experiment_FR_REAL,001,50,
images/fcloud_D0.9_1.tif,0.9,0,,,,,0,63,63,3,,,,,,,,,,,,,,,,,,,2,space,7.4073147,3,2.351,,,,,,,,,,,,,,,,,,2019_Sep_24_1754,60.1909256158726,Cloud_Experiment_FR_REAL,001,50,
images/fcloud80-20_D1.1_2.tif,1.1,2,,,,,0,64,64,82,,,,,,,,,,,,,,,,,,,None,None,,None,11.325,,,,,,,,,,,,,,,,,,2019_Sep_24_1754,60.1909256158726,Cloud_Experiment_FR_REAL,001,50,
images/fcloud65-35_D1.9_1.tif,1.9,1,,,,,0,65,65,69,,,,,,,,,,,,,,,,,,,1,space,4.1309546,4,1.568,,,,,,,,,,,,,,,,,,2019_Sep_24_1754,60.1909256158726,Cloud_Experiment_FR_REAL,001,50,
images/fcloud65-35_D1.6_3.tif,1.6,1,,,,,0,66,66,62,,,,,,,,,,,,,,,,,,,None,None,,None,10.509,,,,,,,,,,,,,,,,,,2019_Sep_24_1754,60.1909256158726,Cloud_Experiment_FR_REAL,001,50,
images/fcloud80-20_D1.3_1.tif,1.3,2,,,,,0,67,67,87,,,,,,,,,,,,,,,,,,,None,space,7.4208619,None,20.051,,,,,,,,,,,,,,,,,,2019_Sep_24_1754,60.1909256158726,Cloud_Experiment_FR_REAL,001,50,
images/fcloud80-20_D1.5_1.tif,1.5,2,,,,,0,68,68,93,,,,,,,,,,,,,,,,,,,1,space,6.5648717,2,1.951,,,,,,,,,,,,,,,,,,2019_Sep_24_1754,60.1909256158726,Cloud_Experiment_FR_REAL,001,50,
images/fcloud65-35_D1_2.tif,1.0,1,,,,,0,69,69,43,,,,,,,,,,,,,,,,,,,2,space,4.6905096,2,1.27,,,,,,,,,,,,,,,,,,2019_Sep_24_1754,60.1909256158726,Cloud_Experiment_FR_REAL,001,50,
images/fcloud_D1.5_1.tif,1.5,0,,,,,0,70,70,21,,,,,,,,,,,,,,,,,,,2,space,1.9481546,4,1.102,,,,,,,,,,,,,,,,,,2019_Sep_24_1754,60.1909256158726,Cloud_Experiment_FR_REAL,001,50,
images/fcloud65-35_D1.9_3.tif,1.9,1,,,,,0,71,71,71,,,,,,,,,,,,,,,,,,,None,None,,None,10.26,,,,,,,,,,,,,,,,,,2019_Sep_24_1754,60.1909256158726,Cloud_Experiment_FR_REAL,001,50,
images/fcloud65-35_D1.1_3.tif,1.1,1,,,,,0,72,72,47,,,,,,,,,,,,,,,,,,,2,space,3.0503862,5,1.552,,,,,,,,,,,,,,,,,,2019_Sep_24_1754,60.1909256158726,Cloud_Experiment_FR_REAL,001,50,
images/fcloud_D1.3_1.tif,1.3,0,,,,,0,73,73,15,,,,,,,,,,,,,,,,,,,3,space,3.7756273,3,1.152,,,,,,,,,,,,,,,,,,2019_Sep_24_1754,60.1909256158726,Cloud_Experiment_FR_REAL,001,50,
images/fcloud80-20_D0.8_2.tif,0.8,2,,,,,0,74,74,73,,,,,,,,,,,,,,,,,,,None,None,,None,10.342,,,,,,,,,,,,,,,,,,2019_Sep_24_1754,60.1909256158726,Cloud_Experiment_FR_REAL,001,50,
images/fcloud80-20_D1.8_1.tif,1.8,2,,,,,0,75,75,102,,,,,,,,,,,,,,,,,,,1,space,7.7208085,4,1.201,,,,,,,,,,,,,,,,,,2019_Sep_24_1754,60.1909256158726,Cloud_Experiment_FR_REAL,001,50,
images/fcloud_D1.8_2.tif,1.8,0,,,,,0,76,76,31,,,,,,,,,,,,,,,,,,,2,space,4.4481694,3,1.301,,,,,,,,,,,,,,,,,,2019_Sep_24_1754,60.1909256158726,Cloud_Experiment_FR_REAL,001,50,
images/fcloud80-20_D0.8_3.tif,0.8,2,,,,,0,77,77,74,,,,,,,,,,,,,,,,,,,1,space,7.9963915,2,0.586,,,,,,,,,,,,,,,,,,2019_Sep_24_1754,60.1909256158726,Cloud_Experiment_FR_REAL,001,50,
images/fcloud_D0.9_2.tif,0.9,0,,,,,0,78,78,4,,,,,,,,,,,,,,,,,,,1,space,1.80196490001,5,0.587,,,,,,,,,,,,,,,,,,2019_Sep_24_1754,60.1909256158726,Cloud_Experiment_FR_REAL,001,50,
images/fcloud80-20_D1.9_1.tif,1.9,2,,,,,0,79,79,105,,,,,,,,,,,,,,,,,,,None,None,,None,9.609,,,,,,,,,,,,,,,,,,2019_Sep_24_1754,60.1909256158726,Cloud_Experiment_FR_REAL,001,50,
images/fcloud80-20_D1.8_2.tif,1.8,2,,,,,0,80,80,103,,,,,,,,,,,,,,,,,,,3,space,2.0550788,4,0.619,,,,,,,,,,,,,,,,,,2019_Sep_24_1754,60.1909256158726,Cloud_Experiment_FR_REAL,001,50,
images/fcloud80-20_D1.4_3.tif,1.4,2,,,,,0,81,81,92,,,,,,,,,,,,,,,,,,,1,space,5.2206323,4,0.435,,,,,,,,,,,,,,,,,,2019_Sep_24_1754,60.1909256158726,Cloud_Experiment_FR_REAL,001,50,
images/fcloud80-20_D1.1_1.tif,1.1,2,,,,,0,82,82,81,,,,,,,,,,,,,,,,,,,2,space,2.10942940001,4,0.603,,,,,,,,,,,,,,,,,,2019_Sep_24_1754,60.1909256158726,Cloud_Experiment_FR_REAL,001,50,
images/fcloud80-20_D1.6_2.tif,1.6,2,,,,,0,83,83,97,,,,,,,,,,,,,,,,,,,1,space,5.26359819999,4,0.436,,,,,,,,,,,,,,,,,,2019_Sep_24_1754,60.1909256158726,Cloud_Experiment_FR_REAL,001,50,
images/fcloud65-35_D1.5_3.tif,1.5,1,,,,,0,84,84,59,,,,,,,,,,,,,,,,,,,3,space,2.23149389999,4,0.47,,,,,,,,,,,,,,,,,,2019_Sep_24_1754,60.1909256158726,Cloud_Experiment_FR_REAL,001,50,
images/fcloud80-20_D1.7_1.tif,1.7,2,,,,,0,85,85,99,,,,,,,,,,,,,,,,,,,2,space,5.88727990001,3,2.551,,,,,,,,,,,,,,,,,,2019_Sep_24_1754,60.1909256158726,Cloud_Experiment_FR_REAL,001,50,
images/fcloud_D1.4_2.tif,1.4,0,,,,,0,86,86,19,,,,,,,,,,,,,,,,,,,2,space,4.62254880001,2,0.636,,,,,,,,,,,,,,,,,,2019_Sep_24_1754,60.1909256158726,Cloud_Experiment_FR_REAL,001,50,
images/fcloud65-35_D1.6_2.tif,1.6,1,,,,,0,87,87,61,,,,,,,,,,,,,,,,,,,1,None,,2,1.167,,,,,,,,,,,,,,,,,,2019_Sep_24_1754,60.1909256158726,Cloud_Experiment_FR_REAL,001,50,
images/fcloud80-20_D1.5_3.tif,1.5,2,,,,,0,88,88,95,,,,,,,,,,,,,,,,,,,2,space,3.3338468,3,1.651,,,,,,,,,,,,,,,,,,2019_Sep_24_1754,60.1909256158726,Cloud_Experiment_FR_REAL,001,50,
images/fcloud65-35_D1.7_2.tif,1.7,1,,,,,0,89,89,64,,,,,,,,,,,,,,,,,,,None,None,,None,12.039,,,,,,,,,,,,,,,,,,2019_Sep_24_1754,60.1909256158726,Cloud_Experiment_FR_REAL,001,50,
images/fcloud_D1_1.tif,1.0,0,,,,,0,90,90,6,,,,,,,,,,,,,,,,,,,1,space,7.5913405,3,1.552,,,,,,,,,,,,,,,,,,2019_Sep_24_1754,60.1909256158726,Cloud_Experiment_FR_REAL,001,50,
images/fcloud65-35_D0.8_1.tif,0.8,1,,,,,0,91,91,36,,,,,,,,,,,,,,,,,,,2,space,4.07372660001,5,1.751,,,,,,,,,,,,,,,,,,2019_Sep_24_1754,60.1909256158726,Cloud_Experiment_FR_REAL,001,50,
images/fcloud65-35_D1.8_1.tif,1.8,1,,,,,0,92,92,66,,,,,,,,,,,,,,,,,,,2,space,5.8315895,3,1.352,,,,,,,,,,,,,,,,,,2019_Sep_24_1754,60.1909256158726,Cloud_Experiment_FR_REAL,001,50,
images/fcloud65-35_D1.3_2.tif,1.3,1,,,,,0,93,93,52,,,,,,,,,,,,,,,,,,,1,space,7.2162344,2,0.452,,,,,,,,,,,,,,,,,,2019_Sep_24_1754,60.1909256158726,Cloud_Experiment_FR_REAL,001,50,
images/fcloud65-35_D0.9_3.tif,0.9,1,,,,,0,94,94,41,,,,,,,,,,,,,,,,,,,None,None,,None,9.775,,,,,,,,,,,,,,,,,,2019_Sep_24_1754,60.1909256158726,Cloud_Experiment_FR_REAL,001,50,
images/fcloud65-35_D1.7_1.tif,1.7,1,,,,,0,95,95,63,,,,,,,,,,,,,,,,,,,1,space,7.6784821,1,2.133,,,,,,,,,,,,,,,,,,2019_Sep_24_1754,60.1909256158726,Cloud_Experiment_FR_REAL,001,50,
images/fcloud80-20_D1.9_3.tif,1.9,2,,,,,0,96,96,107,,,,,,,,,,,,,,,,,,,1,space,3.39579329999,4,0.719,,,,,,,,,,,,,,,,,,2019_Sep_24_1754,60.1909256158726,Cloud_Experiment_FR_REAL,001,50,
images/fcloud65-35_D0.9_2.tif,0.9,1,,,,,0,97,97,40,,,,,,,,,,,,,,,,,,,3,space,1.8514958,4,0.586,,,,,,,,,,,,,,,,,,2019_Sep_24_1754,60.1909256158726,Cloud_Experiment_FR_REAL,001,50,
images/fcloud65-35_D1.7_3.tif,1.7,1,,,,,0,98,98,65,,,,,,,,,,,,,,,,,,,None,None,,None,9.826,,,,,,,,,,,,,,,,,,2019_Sep_24_1754,60.1909256158726,Cloud_Experiment_FR_REAL,001,50,
images/fcloud65-35_D1.9_2.tif,1.9,1,,,,,0,99,99,70,,,,,,,,,,,,,,,,,,,2,space,3.40180599999,3,1.118,,,,,,,,,,,,,,,,,,2019_Sep_24_1754,60.1909256158726,Cloud_Experiment_FR_REAL,001,50,
images/fcloud80-20_D1.3_3.tif,1.3,2,,,,,0,100,100,89,,,,,,,,,,,,,,,,,,,2,space,4.329596,3,1.333,,,,,,,,,,,,,,,,,,2019_Sep_24_1754,60.1909256158726,Cloud_Experiment_FR_REAL,001,50,
images/fcloud65-35_D0.8_3.tif,0.8,1,,,,,0,101,101,38,,,,,,,,,,,,,,,,,,,2,space,4.52979130001,2,0.937,,,,,,,,,,,,,,,,,,2019_Sep_24_1754,60.1909256158726,Cloud_Experiment_FR_REAL,001,50,
images/fcloud65-35_D1.8_3.tif,1.8,1,,,,,0,102,102,68,,,,,,,,,,,,,,,,,,,3,space,3.36916520001,4,0.519,,,,,,,,,,,,,,,,,,2019_Sep_24_1754,60.1909256158726,Cloud_Experiment_FR_REAL,001,50,
images/fcloud_D1_2.tif,1.0,0,,,,,0,103,103,7,,,,,,,,,,,,,,,,,,,2,space,3.6030643,4,0.869,,,,,,,,,,,,,,,,,,2019_Sep_24_1754,60.1909256158726,Cloud_Experiment_FR_REAL,001,50,
images/fcloud80-20_D1.2_2.tif,1.2,2,,,,,0,104,104,85,,,,,,,,,,,,,,,,,,,None,None,,None,9.826,,,,,,,,,,,,,,,,,,2019_Sep_24_1754,60.1909256158726,Cloud_Experiment_FR_REAL,001,50,
images/fcloud_D1.5_2.tif,1.5,0,,,,,0,105,105,22,,,,,,,,,,,,,,,,,,,1,space,5.36909160001,4,0.551,,,,,,,,,,,,,,,,,,2019_Sep_24_1754,60.1909256158726,Cloud_Experiment_FR_REAL,001,50,
images/fcloud80-20_D1.4_1.tif,1.4,2,,,,,0,106,106,90,,,,,,,,,,,,,,,,,,,1,space,4.912432,3,1.505,,,,,,,,,,,,,,,,,,2019_Sep_24_1754,60.1909256158726,Cloud_Experiment_FR_REAL,001,50,
images/fcloud65-35_D1.2_2.tif,1.2,1,,,,,0,107,107,49,,,,,,,,,,,,,,,,,,,None,None,,None,10.509,,,,,,,,,,,,,,,,,,2019_Sep_24_1754,60.1909256158726,Cloud_Experiment_FR_REAL,001,50,
,,,,,,,,,,,,,,,,,,,,,,,,,,,,,,,,,,,,,,,,,,,,,,space,9.2602411,,,,2019_Sep_24_1754,60.1909256158726,Cloud_Experiment_FR_REAL,001,50,
,,,,,,,,,,,,,,,,,,,,,,,,,3,16.665,,,,,,,,,,,,,,,,,,,,,,,,,2019_Sep_24_1754,60.1909256158726,Cloud_Experiment_FR_REAL,001,50,
,,,,,,,,,,,,,,,,,,,,,,,,,,,,,,,,,,7,,,,,,,,,,,,,,,,,2019_Sep_24_1754,60.1909256158726,Cloud_Experiment_FR_REAL,001,50,
,,,,,,,,,,,,,,,,,,,,,,,,,,,,,,,,,,,6,,,,,,,,,,,,,,,,2019_Sep_24_1754,60.1909256158726,Cloud_Experiment_FR_REAL,001,50,
,,,,,,,,,,,,,,,,,,,,,,,,,,,,,,,,,,,,3,,,,,,,,,,,,,,,2019_Sep_24_1754,60.1909256158726,Cloud_Experiment_FR_REAL,001,50,
,,,,,,,,,,,,,,,,,,,,,,,,,,,,,,,,,,,,,7,,,,,,,,,,,,,,2019_Sep_24_1754,60.1909256158726,Cloud_Experiment_FR_REAL,001,50,
,,,,,,,,,,,,,,,,,,,,,,,,,,,,,,,,,,,,,,6,,,,,,,,,,,,,2019_Sep_24_1754,60.1909256158726,Cloud_Experiment_FR_REAL,001,50,
,,,,,,,,,,,,,,,,,,,,,,,,,,,,,,,,,,,,,,,6,,,,,,,,,,,,2019_Sep_24_1754,60.1909256158726,Cloud_Experiment_FR_REAL,001,50,
,,,,,,,,,,,,,,,,,,,,,,,,,,,,,,,,,,,,,,,,6,,,,,,,,,,,2019_Sep_24_1754,60.1909256158726,Cloud_Experiment_FR_REAL,001,50,
,,,,,,,,,,,,,,,,,,,,,,,,,,,,,,,,,,,,,,,,,7,,,,,,,,,,2019_Sep_24_1754,60.1909256158726,Cloud_Experiment_FR_REAL,001,50,
,,,,,,,,,,,,,,,,,,,,,,,,,,,,,,,,,,,,,,,,,,7,,,,,,,,,2019_Sep_24_1754,60.1909256158726,Cloud_Experiment_FR_REAL,001,50,
,,,,,,,,,,,,,,,,,,,,,,,,,,,,,,,,,,,,,,,,,,,2,,,,,,,,2019_Sep_24_1754,60.1909256158726,Cloud_Experiment_FR_REAL,001,50,
,,,,,,,,,,,,,,,,,,,,,,,,,,,,,,,,,,,,,,,,,,,,,,,,space,58.3036607,,2019_Sep_24_1754,60.1909256158726,Cloud_Experiment_FR_REAL,001,50,
images/fcloud_D1.6_5.tif,1.6,0,,,,,,,,,0,0,0,25,,,,,,,,,,,,,,,1,space,3.68253809999,2,2.634,,,,,,,,,,,,,,,,,,2019_Sep_24_1754,60.1909256158726,Cloud_Experiment_FR_REAL,001,50,
images/fcloud65-35_D1.2_6.tif,1.2,1,,,,,,,,,0,1,1,50,,,,,,,,,,,,,,,1,space,5.7572347,1,1.117,,,,,,,,,,,,,,,,,,2019_Sep_24_1754,60.1909256158726,Cloud_Experiment_FR_REAL,001,50,
images/fcloud_D1.7_5.tif,1.7,0,,,,,,,,,0,2,2,28,,,,,,,,,,,,,,,1,space,7.0342501,2,0.534,,,,,,,,,,,,,,,,,,2019_Sep_24_1754,60.1909256158726,Cloud_Experiment_FR_REAL,001,50,
images/fcloud_D1.9_6.tif,1.9,0,,,,,,,,,0,3,3,35,,,,,,,,,,,,,,,2,space,4.8710058,3,1.036,,,,,,,,,,,,,,,,,,2019_Sep_24_1754,60.1909256158726,Cloud_Experiment_FR_REAL,001,50,
images/fcloud80-20_D1.4_4.tif,1.4,2,,,,,,,,,0,4,4,90,,,,,,,,,,,,,,,1,space,4.26438779999,4,0.885,,,,,,,,,,,,,,,,,,2019_Sep_24_1754,60.1909256158726,Cloud_Experiment_FR_REAL,001,50,
images/fcloud80-20_D1.7_5.tif,1.7,2,,,,,,,,,0,5,5,100,,,,,,,,,,,,,,,2,space,1.9862746,3,0.985,,,,,,,,,,,,,,,,,,2019_Sep_24_1754,60.1909256158726,Cloud_Experiment_FR_REAL,001,50,
images/fcloud65-35_D1.4_5.tif,1.4,1,,,,,,,,,0,6,6,55,,,,,,,,,,,,,,,None,None,,None,10.342,,,,,,,,,,,,,,,,,,2019_Sep_24_1754,60.1909256158726,Cloud_Experiment_FR_REAL,001,50,
images/fcloud65-35_D1.8_4.tif,1.8,1,,,,,,,,,0,7,7,66,,,,,,,,,,,,,,,None,None,,None,19.584,,,,,,,,,,,,,,,,,,2019_Sep_24_1754,60.1909256158726,Cloud_Experiment_FR_REAL,001,50,
images/fcloud_D0.8_4.tif,0.8,0,,,,,,,,,0,8,8,0,,,,,,,,,,,,,,,1,space,6.39351340001,4,0.502,,,,,,,,,,,,,,,,,,2019_Sep_24_1754,60.1909256158726,Cloud_Experiment_FR_REAL,001,50,
images/fcloud_D0.8_5.tif,0.8,0,,,,,,,,,0,9,9,1,,,,,,,,,,,,,,,3,space,1.5913744,4,0.784,,,,,,,,,,,,,,,,,,2019_Sep_24_1754,60.1909256158726,Cloud_Experiment_FR_REAL,001,50,
images/fcloud_D1.1_6.tif,1.1,0,,,,,,,,,0,10,10,11,,,,,,,,,,,,,,,3,space,2.7688076,3,2.617,,,,,,,,,,,,,,,,,,2019_Sep_24_1754,60.1909256158726,Cloud_Experiment_FR_REAL,001,50,
images/fcloud_D1.3_4.tif,1.3,0,,,,,,,,,0,11,11,15,,,,,,,,,,,,,,,2,space,3.8439329,4,0.502,,,,,,,,,,,,,,,,,,2019_Sep_24_1754,60.1909256158726,Cloud_Experiment_FR_REAL,001,50,
images/fcloud65-35_D1.3_6.tif,1.3,1,,,,,,,,,0,12,12,53,,,,,,,,,,,,,,,3,space,1.54265989999,3,0.486,,,,,,,,,,,,,,,,,,2019_Sep_24_1754,60.1909256158726,Cloud_Experiment_FR_REAL,001,50,
images/fcloud65-35_D1.8_5.tif,1.8,1,,,,,,,,,0,13,13,67,,,,,,,,,,,,,,,1,space,2.4616949,3,1.252,,,,,,,,,,,,,,,,,,2019_Sep_24_1754,60.1909256158726,Cloud_Experiment_FR_REAL,001,50,
images/fcloud_D1.8_4.tif,1.8,0,,,,,,,,,0,14,14,30,,,,,,,,,,,,,,,2,space,2.070309,3,0.501,,,,,,,,,,,,,,,,,,2019_Sep_24_1754,60.1909256158726,Cloud_Experiment_FR_REAL,001,50,
images/fcloud80-20_D1.6_4.tif,1.6,2,,,,,,,,,0,15,15,96,,,,,,,,,,,,,,,1,space,4.5359377,2,1.267,,,,,,,,,,,,,,,,,,2019_Sep_24_1754,60.1909256158726,Cloud_Experiment_FR_REAL,001,50,
images/fcloud_D1.1_4.tif,1.1,0,,,,,,,,,0,16,16,9,,,,,,,,,,,,,,,1,space,5.6568254,3,1.3,,,,,,,,,,,,,,,,,,2019_Sep_24_1754,60.1909256158726,Cloud_Experiment_FR_REAL,001,50,
images/fcloud65-35_D1.3_4.tif,1.3,1,,,,,,,,,0,17,17,51,,,,,,,,,,,,,,,1,space,5.4744318,3,1.051,,,,,,,,,,,,,,,,,,2019_Sep_24_1754,60.1909256158726,Cloud_Experiment_FR_REAL,001,50,
images/fcloud65-35_D1.2_4.tif,1.2,1,,,,,,,,,0,18,18,48,,,,,,,,,,,,,,,1,None,,2,0.569,,,,,,,,,,,,,,,,,,2019_Sep_24_1754,60.1909256158726,Cloud_Experiment_FR_REAL,001,50,
images/fcloud_D0.8_6.tif,0.8,0,,,,,,,,,0,19,19,2,,,,,,,,,,,,,,,2,space,4.83854909999,3,0.619,,,,,,,,,,,,,,,,,,2019_Sep_24_1754,60.1909256158726,Cloud_Experiment_FR_REAL,001,50,
images/fcloud65-35_D1.6_6.tif,1.6,1,,,,,,,,,0,20,20,62,,,,,,,,,,,,,,,3,space,1.72519680001,3,0.701,,,,,,,,,,,,,,,,,,2019_Sep_24_1754,60.1909256158726,Cloud_Experiment_FR_REAL,001,50,
images/fcloud_D1.5_4.tif,1.5,0,,,,,,,,,0,21,21,21,,,,,,,,,,,,,,,1,space,4.07425580001,4,0.701,,,,,,,,,,,,,,,,,,2019_Sep_24_1754,60.1909256158726,Cloud_Experiment_FR_REAL,001,50,
images/fcloud_D1.6_4.tif,1.6,0,,,,,,,,,0,22,22,24,,,,,,,,,,,,,,,1,space,4.75448459999,3,0.652,,,,,,,,,,,,,,,,,,2019_Sep_24_1754,60.1909256158726,Cloud_Experiment_FR_REAL,001,50,
images/fcloud65-35_D1.7_6.tif,1.7,1,,,,,,,,,0,23,23,65,,,,,,,,,,,,,,,3,space,2.69323999999,4,0.685,,,,,,,,,,,,,,,,,,2019_Sep_24_1754,60.1909256158726,Cloud_Experiment_FR_REAL,001,50,
images/fcloud_D1.4_4.tif,1.4,0,,,,,,,,,0,24,24,18,,,,,,,,,,,,,,,2,space,2.70602719999,5,1.167,,,,,,,,,,,,,,,,,,2019_Sep_24_1754,60.1909256158726,Cloud_Experiment_FR_REAL,001,50,
images/fcloud80-20_D1.6_5.tif,1.6,2,,,,,,,,,0,25,25,97,,,,,,,,,,,,,,,1,space,6.4232105,3,0.534,,,,,,,,,,,,,,,,,,2019_Sep_24_1754,60.1909256158726,Cloud_Experiment_FR_REAL,001,50,
images/fcloud_D1.8_5.tif,1.8,0,,,,,,,,,0,26,26,31,,,,,,,,,,,,,,,3,space,2.3777482,4,0.701,,,,,,,,,,,,,,,,,,2019_Sep_24_1754,60.1909256158726,Cloud_Experiment_FR_REAL,001,50,
images/fcloud65-35_D1.8_6.tif,1.8,1,,,,,,,,,0,27,27,68,,,,,,,,,,,,,,,None,space,7.97756619999,None,10.592,,,,,,,,,,,,,,,,,,2019_Sep_24_1754,60.1909256158726,Cloud_Experiment_FR_REAL,001,50,
images/fcloud80-20_D1.9_6.tif,1.9,2,,,,,,,,,0,28,28,107,,,,,,,,,,,,,,,None,None,,None,19.868,,,,,,,,,,,,,,,,,,2019_Sep_24_1754,60.1909256158726,Cloud_Experiment_FR_REAL,001,50,
images/fcloud65-35_D0.9_6.tif,0.9,1,,,,,,,,,0,29,29,41,,,,,,,,,,,,,,,None,None,,None,28.378,,,,,,,,,,,,,,,,,,2019_Sep_24_1754,60.1909256158726,Cloud_Experiment_FR_REAL,001,50,
images/fcloud80-20_D1.2_6.tif,1.2,2,,,,,,,,,0,30,30,86,,,,,,,,,,,,,,,2,space,2.1333058,5,0.551,,,,,,,,,,,,,,,,,,2019_Sep_24_1754,60.1909256158726,Cloud_Experiment_FR_REAL,001,50,
images/fcloud65-35_D1.5_5.tif,1.5,1,,,,,,,,,0,31,31,58,,,,,,,,,,,,,,,3,space,2.27841089999,5,0.519,,,,,,,,,,,,,,,,,,2019_Sep_24_1754,60.1909256158726,Cloud_Experiment_FR_REAL,001,50,
images/fcloud_D1.5_6.tif,1.5,0,,,,,,,,,0,32,32,23,,,,,,,,,,,,,,,1,space,1.22219120001,4,0.867,,,,,,,,,,,,,,,,,,2019_Sep_24_1754,60.1909256158726,Cloud_Experiment_FR_REAL,001,50,
images/fcloud65-35_D1.6_4.tif,1.6,1,,,,,,,,,0,33,33,60,,,,,,,,,,,,,,,1,space,6.98094759999,2,0.453,,,,,,,,,,,,,,,,,,2019_Sep_24_1754,60.1909256158726,Cloud_Experiment_FR_REAL,001,50,
images/fcloud80-20_D1_5.tif,1.0,2,,,,,,,,,0,34,34,79,,,,,,,,,,,,,,,None,None,,None,9.377,,,,,,,,,,,,,,,,,,2019_Sep_24_1754,60.1909256158726,Cloud_Experiment_FR_REAL,001,50,
images/fcloud65-35_D1.7_4.tif,1.7,1,,,,,,,,,0,35,35,63,,,,,,,,,,,,,,,2,space,5.89391320001,4,0.485,,,,,,,,,,,,,,,,,,2019_Sep_24_1754,60.1909256158726,Cloud_Experiment_FR_REAL,001,50,
images/fcloud80-20_D0.9_4.tif,0.9,2,,,,,,,,,0,36,36,75,,,,,,,,,,,,,,,2,space,3.77185630001,5,0.619,,,,,,,,,,,,,,,,,,2019_Sep_24_1754,60.1909256158726,Cloud_Experiment_FR_REAL,001,50,
images/fcloud80-20_D1.8_4.tif,1.8,2,,,,,,,,,0,37,37,102,,,,,,,,,,,,,,,2,space,2.07496870001,3,1.135,,,,,,,,,,,,,,,,,,2019_Sep_24_1754,60.1909256158726,Cloud_Experiment_FR_REAL,001,50,
images/fcloud65-35_D0.9_5.tif,0.9,1,,,,,,,,,0,38,38,40,,,,,,,,,,,,,,,None,None,,None,10.242,,,,,,,,,,,,,,,,,,2019_Sep_24_1754,60.1909256158726,Cloud_Experiment_FR_REAL,001,50,
images/fcloud65-35_D1.1_6.tif,1.1,1,,,,,,,,,0,39,39,47,,,,,,,,,,,,,,,1,space,3.95283160001,3,0.569,,,,,,,,,,,,,,,,,,2019_Sep_24_1754,60.1909256158726,Cloud_Experiment_FR_REAL,001,50,
images/fcloud80-20_D1.2_5.tif,1.2,2,,,,,,,,,0,40,40,85,,,,,,,,,,,,,,,1,space,3.2165595,1,0.819,,,,,,,,,,,,,,,,,,2019_Sep_24_1754,60.1909256158726,Cloud_Experiment_FR_REAL,001,50,
images/fcloud80-20_D1.1_6.tif,1.1,2,,,,,,,,,0,41,41,83,,,,,,,,,,,,,,,1,space,5.48202109999,2,0.44,,,,,,,,,,,,,,,,,,2019_Sep_24_1754,60.1909256158726,Cloud_Experiment_FR_REAL,001,50,
images/fcloud_D1.2_6.tif,1.2,0,,,,,,,,,0,42,42,14,,,,,,,,,,,,,,,None,None,,None,10.125,,,,,,,,,,,,,,,,,,2019_Sep_24_1754,60.1909256158726,Cloud_Experiment_FR_REAL,001,50,
images/fcloud_D1_4.tif,1.0,0,,,,,,,,,0,43,43,6,,,,,,,,,,,,,,,4,space,1.32983040001,4,0.803,,,,,,,,,,,,,,,,,,2019_Sep_24_1754,60.1909256158726,Cloud_Experiment_FR_REAL,001,50,
images/fcloud65-35_D1.5_4.tif,1.5,1,,,,,,,,,0,44,44,57,,,,,,,,,,,,,,,3,space,4.9385153,5,0.52,,,,,,,,,,,,,,,,,,2019_Sep_24_1754,60.1909256158726,Cloud_Experiment_FR_REAL,001,50,
images/fcloud80-20_D1.5_4.tif,1.5,2,,,,,,,,,0,45,45,93,,,,,,,,,,,,,,,2,space,3.587887,2,0.553,,,,,,,,,,,,,,,,,,2019_Sep_24_1754,60.1909256158726,Cloud_Experiment_FR_REAL,001,50,
images/fcloud_D1.6_6.tif,1.6,0,,,,,,,,,0,46,46,26,,,,,,,,,,,,,,,1,space,5.3172526,1,1.084,,,,,,,,,,,,,,,,,,2019_Sep_24_1754,60.1909256158726,Cloud_Experiment_FR_REAL,001,50,
images/fcloud65-35_D1.1_4.tif,1.1,1,,,,,,,,,0,47,47,45,,,,,,,,,,,,,,,2,space,2.06417910001,5,0.57,,,,,,,,,,,,,,,,,,2019_Sep_24_1754,60.1909256158726,Cloud_Experiment_FR_REAL,001,50,
images/fcloud_D1.4_6.tif,1.4,0,,,,,,,,,0,48,48,20,,,,,,,,,,,,,,,1,space,7.8587075,5,0.651,,,,,,,,,,,,,,,,,,2019_Sep_24_1754,60.1909256158726,Cloud_Experiment_FR_REAL,001,50,
images/fcloud80-20_D1.3_4.tif,1.3,2,,,,,,,,,0,49,49,87,,,,,,,,,,,,,,,2,space,2.65974030001,4,0.552,,,,,,,,,,,,,,,,,,2019_Sep_24_1754,60.1909256158726,Cloud_Experiment_FR_REAL,001,50,
images/fcloud_D1.1_5.tif,1.1,0,,,,,,,,,0,50,50,10,,,,,,,,,,,,,,,3,space,1.40468750001,5,0.501,,,,,,,,,,,,,,,,,,2019_Sep_24_1754,60.1909256158726,Cloud_Experiment_FR_REAL,001,50,
images/fcloud80-20_D0.8_6.tif,0.8,2,,,,,,,,,0,51,51,74,,,,,,,,,,,,,,,1,space,1.80809369999,3,0.967,,,,,,,,,,,,,,,,,,2019_Sep_24_1754,60.1909256158726,Cloud_Experiment_FR_REAL,001,50,
images/fcloud65-35_D0.8_4.tif,0.8,1,,,,,,,,,0,52,52,36,,,,,,,,,,,,,,,2,space,1.7795623,4,0.518,,,,,,,,,,,,,,,,,,2019_Sep_24_1754,60.1909256158726,Cloud_Experiment_FR_REAL,001,50,
images/fcloud_D0.9_4.tif,0.9,0,,,,,,,,,0,53,53,3,,,,,,,,,,,,,,,2,space,3.9830926,3,0.867,,,,,,,,,,,,,,,,,,2019_Sep_24_1754,60.1909256158726,Cloud_Experiment_FR_REAL,001,50,
images/fcloud65-35_D1.4_6.tif,1.4,1,,,,,,,,,0,54,54,56,,,,,,,,,,,,,,,2,space,4.9247166,3,0.534,,,,,,,,,,,,,,,,,,2019_Sep_24_1754,60.1909256158726,Cloud_Experiment_FR_REAL,001,50,
images/fcloud_D1.9_4.tif,1.9,0,,,,,,,,,0,55,55,33,,,,,,,,,,,,,,,3,space,4.92408490001,3,0.902,,,,,,,,,,,,,,,,,,2019_Sep_24_1754,60.1909256158726,Cloud_Experiment_FR_REAL,001,50,
images/fcloud_D1.5_5.tif,1.5,0,,,,,,,,,0,56,56,22,,,,,,,,,,,,,,,None,None,,None,10.092,,,,,,,,,,,,,,,,,,2019_Sep_24_1754,60.1909256158726,Cloud_Experiment_FR_REAL,001,50,
images/fcloud_D1.8_6.tif,1.8,0,,,,,,,,,0,57,57,32,,,,,,,,,,,,,,,None,space,5.93320490001,None,18.785,,,,,,,,,,,,,,,,,,2019_Sep_24_1754,60.1909256158726,Cloud_Experiment_FR_REAL,001,50,
images/fcloud80-20_D1.5_5.tif,1.5,2,,,,,,,,,0,58,58,94,,,,,,,,,,,,,,,1,space,3.35180819999,4,0.485,,,,,,,,,,,,,,,,,,2019_Sep_24_1754,60.1909256158726,Cloud_Experiment_FR_REAL,001,50,
images/fcloud80-20_D1.6_6.tif,1.6,2,,,,,,,,,0,59,59,98,,,,,,,,,,,,,,,2,space,4.11601469999,4,0.652,,,,,,,,,,,,,,,,,,2019_Sep_24_1754,60.1909256158726,Cloud_Experiment_FR_REAL,001,50,
images/fcloud65-35_D0.8_5.tif,0.8,1,,,,,,,,,0,60,60,37,,,,,,,,,,,,,,,2,space,2.96018960001,5,1.118,,,,,,,,,,,,,,,,,,2019_Sep_24_1754,60.1909256158726,Cloud_Experiment_FR_REAL,001,50,
images/fcloud80-20_D1.3_5.tif,1.3,2,,,,,,,,,0,61,61,88,,,,,,,,,,,,,,,1,space,5.2778305,2,2.149,,,,,,,,,,,,,,,,,,2019_Sep_24_1754,60.1909256158726,Cloud_Experiment_FR_REAL,001,50,
images/fcloud80-20_D1.3_6.tif,1.3,2,,,,,,,,,0,62,62,89,,,,,,,,,,,,,,,1,space,1.97384799999,1,0.419,,,,,,,,,,,,,,,,,,2019_Sep_24_1754,60.1909256158726,Cloud_Experiment_FR_REAL,001,50,
images/fcloud65-35_D1.9_6.tif,1.9,1,,,,,,,,,0,63,63,71,,,,,,,,,,,,,,,3,space,2.0860585,4,0.486,,,,,,,,,,,,,,,,,,2019_Sep_24_1754,60.1909256158726,Cloud_Experiment_FR_REAL,001,50,
images/fcloud65-35_D1.3_5.tif,1.3,1,,,,,,,,,0,64,64,52,,,,,,,,,,,,,,,2,space,2.6382921,3,1.584,,,,,,,,,,,,,,,,,,2019_Sep_24_1754,60.1909256158726,Cloud_Experiment_FR_REAL,001,50,
images/fcloud65-35_D0.8_6.tif,0.8,1,,,,,,,,,0,65,65,38,,,,,,,,,,,,,,,None,None,,None,10.542,,,,,,,,,,,,,,,,,,2019_Sep_24_1754,60.1909256158726,Cloud_Experiment_FR_REAL,001,50,
images/fcloud_D1.2_5.tif,1.2,0,,,,,,,,,0,66,66,13,,,,,,,,,,,,,,,3,space,2.63929560001,4,0.503,,,,,,,,,,,,,,,,,,2019_Sep_24_1754,60.1909256158726,Cloud_Experiment_FR_REAL,001,50,
images/fcloud_D0.9_6.tif,0.9,0,,,,,,,,,0,67,67,5,,,,,,,,,,,,,,,2,space,5.0099052,5,1.784,,,,,,,,,,,,,,,,,,2019_Sep_24_1754,60.1909256158726,Cloud_Experiment_FR_REAL,001,50,
images/fcloud65-35_D1.4_4.tif,1.4,1,,,,,,,,,0,68,68,54,,,,,,,,,,,,,,,3,space,1.7351455,3,2.634,,,,,,,,,,,,,,,,,,2019_Sep_24_1754,60.1909256158726,Cloud_Experiment_FR_REAL,001,50,
images/fcloud_D1.2_4.tif,1.2,0,,,,,,,,,0,69,69,12,,,,,,,,,,,,,,,3,space,1.1867546,5,0.684,,,,,,,,,,,,,,,,,,2019_Sep_24_1754,60.1909256158726,Cloud_Experiment_FR_REAL,001,50,
images/fcloud65-35_D0.9_4.tif,0.9,1,,,,,,,,,0,70,70,39,,,,,,,,,,,,,,,3,space,2.24209119999,4,0.701,,,,,,,,,,,,,,,,,,2019_Sep_24_1754,60.1909256158726,Cloud_Experiment_FR_REAL,001,50,
images/fcloud80-20_D1.8_6.tif,1.8,2,,,,,,,,,0,71,71,104,,,,,,,,,,,,,,,2,space,6.17763190001,4,0.718,,,,,,,,,,,,,,,,,,2019_Sep_24_1754,60.1909256158726,Cloud_Experiment_FR_REAL,001,50,
images/fcloud80-20_D1_6.tif,1.0,2,,,,,,,,,0,72,72,80,,,,,,,,,,,,,,,None,None,,None,10.059,,,,,,,,,,,,,,,,,,2019_Sep_24_1754,60.1909256158726,Cloud_Experiment_FR_REAL,001,50,
images/fcloud65-35_D1.9_4.tif,1.9,1,,,,,,,,,0,73,73,69,,,,,,,,,,,,,,,2,space,5.62071229999,2,0.568,,,,,,,,,,,,,,,,,,2019_Sep_24_1754,60.1909256158726,Cloud_Experiment_FR_REAL,001,50,
images/fcloud_D1.3_6.tif,1.3,0,,,,,,,,,0,74,74,17,,,,,,,,,,,,,,,2,space,1.9800864,4,0.436,,,,,,,,,,,,,,,,,,2019_Sep_24_1754,60.1909256158726,Cloud_Experiment_FR_REAL,001,50,
images/fcloud80-20_D0.9_5.tif,0.9,2,,,,,,,,,0,75,75,76,,,,,,,,,,,,,,,2,space,5.9344722,3,0.835,,,,,,,,,,,,,,,,,,2019_Sep_24_1754,60.1909256158726,Cloud_Experiment_FR_REAL,001,50,
images/fcloud80-20_D0.8_4.tif,0.8,2,,,,,,,,,0,76,76,72,,,,,,,,,,,,,,,2,space,3.53882429999,3,1.9,,,,,,,,,,,,,,,,,,2019_Sep_24_1754,60.1909256158726,Cloud_Experiment_FR_REAL,001,50,
images/fcloud80-20_D1.2_4.tif,1.2,2,,,,,,,,,0,77,77,84,,,,,,,,,,,,,,,2,space,1.4547431,4,0.719,,,,,,,,,,,,,,,,,,2019_Sep_24_1754,60.1909256158726,Cloud_Experiment_FR_REAL,001,50,
images/fcloud_D1.7_6.tif,1.7,0,,,,,,,,,0,78,78,29,,,,,,,,,,,,,,,None,None,,None,9.809,,,,,,,,,,,,,,,,,,2019_Sep_24_1754,60.1909256158726,Cloud_Experiment_FR_REAL,001,50,
images/fcloud_D0.9_5.tif,0.9,0,,,,,,,,,0,79,79,4,,,,,,,,,,,,,,,1,space,7.2160098,5,0.568,,,,,,,,,,,,,,,,,,2019_Sep_24_1754,60.1909256158726,Cloud_Experiment_FR_REAL,001,50,
images/fcloud_D1.4_5.tif,1.4,0,,,,,,,,,0,80,80,19,,,,,,,,,,,,,,,2,space,2.36219479999,2,0.486,,,,,,,,,,,,,,,,,,2019_Sep_24_1754,60.1909256158726,Cloud_Experiment_FR_REAL,001,50,
images/fcloud80-20_D1.7_4.tif,1.7,2,,,,,,,,,0,81,81,99,,,,,,,,,,,,,,,1,space,4.3303921,3,1.085,,,,,,,,,,,,,,,,,,2019_Sep_24_1754,60.1909256158726,Cloud_Experiment_FR_REAL,001,50,
images/fcloud65-35_D1.6_5.tif,1.6,1,,,,,,,,,0,82,82,61,,,,,,,,,,,,,,,1,space,5.78067410001,2,0.569,,,,,,,,,,,,,,,,,,2019_Sep_24_1754,60.1909256158726,Cloud_Experiment_FR_REAL,001,50,
images/fcloud_D1.3_5.tif,1.3,0,,,,,,,,,0,83,83,16,,,,,,,,,,,,,,,3,space,1.9109778,3,0.568,,,,,,,,,,,,,,,,,,2019_Sep_24_1754,60.1909256158726,Cloud_Experiment_FR_REAL,001,50,
images/fcloud65-35_D1.7_5.tif,1.7,1,,,,,,,,,0,84,84,64,,,,,,,,,,,,,,,1,space,2.1886659,3,1.052,,,,,,,,,,,,,,,,,,2019_Sep_24_1754,60.1909256158726,Cloud_Experiment_FR_REAL,001,50,
images/fcloud80-20_D0.8_5.tif,0.8,2,,,,,,,,,0,85,85,73,,,,,,,,,,,,,,,None,None,,None,10.691,,,,,,,,,,,,,,,,,,2019_Sep_24_1754,60.1909256158726,Cloud_Experiment_FR_REAL,001,50,
images/fcloud65-35_D1.1_5.tif,1.1,1,,,,,,,,,0,86,86,46,,,,,,,,,,,,,,,2,space,4.386398,3,0.869,,,,,,,,,,,,,,,,,,2019_Sep_24_1754,60.1909256158726,Cloud_Experiment_FR_REAL,001,50,
images/fcloud80-20_D1.1_4.tif,1.1,2,,,,,,,,,0,87,87,81,,,,,,,,,,,,,,,3,space,2.10463269999,2,0.485,,,,,,,,,,,,,,,,,,2019_Sep_24_1754,60.1909256158726,Cloud_Experiment_FR_REAL,001,50,
images/fcloud65-35_D1_6.tif,1.0,1,,,,,,,,,0,88,88,44,,,,,,,,,,,,,,,2,space,3.1270357,4,0.469,,,,,,,,,,,,,,,,,,2019_Sep_24_1754,60.1909256158726,Cloud_Experiment_FR_REAL,001,50,
images/fcloud_D1_6.tif,1.0,0,,,,,,,,,0,89,89,8,,,,,,,,,,,,,,,1,space,6.6509621,3,1.217,,,,,,,,,,,,,,,,,,2019_Sep_24_1754,60.1909256158726,Cloud_Experiment_FR_REAL,001,50,
images/fcloud65-35_D1.5_6.tif,1.5,1,,,,,,,,,0,90,90,59,,,,,,,,,,,,,,,None,None,,None,10.375,,,,,,,,,,,,,,,,,,2019_Sep_24_1754,60.1909256158726,Cloud_Experiment_FR_REAL,001,50,
images/fcloud65-35_D1.2_5.tif,1.2,1,,,,,,,,,0,91,91,49,,,,,,,,,,,,,,,None,space,4.0182037,None,19.067,,,,,,,,,,,,,,,,,,2019_Sep_24_1754,60.1909256158726,Cloud_Experiment_FR_REAL,001,50,
images/fcloud80-20_D1.8_5.tif,1.8,2,,,,,,,,,0,92,92,103,,,,,,,,,,,,,,,2,space,4.4645744,2,0.534,,,,,,,,,,,,,,,,,,2019_Sep_24_1754,60.1909256158726,Cloud_Experiment_FR_REAL,001,50,
images/fcloud_D1_5.tif,1.0,0,,,,,,,,,0,93,93,7,,,,,,,,,,,,,,,2,space,3.2436529,4,0.636,,,,,,,,,,,,,,,,,,2019_Sep_24_1754,60.1909256158726,Cloud_Experiment_FR_REAL,001,50,
images/fcloud_D1.7_4.tif,1.7,0,,,,,,,,,0,94,94,27,,,,,,,,,,,,,,,4,space,4.24920699999,4,0.536,,,,,,,,,,,,,,,,,,2019_Sep_24_1754,60.1909256158726,Cloud_Experiment_FR_REAL,001,50,
images/fcloud80-20_D1.4_6.tif,1.4,2,,,,,,,,,0,95,95,92,,,,,,,,,,,,,,,2,space,2.5661029,4,4.465,,,,,,,,,,,,,,,,,,2019_Sep_24_1754,60.1909256158726,Cloud_Experiment_FR_REAL,001,50,
images/fcloud65-35_D1_5.tif,1.0,1,,,,,,,,,0,96,96,43,,,,,,,,,,,,,,,1,space,4.00767029999,4,0.719,,,,,,,,,,,,,,,,,,2019_Sep_24_1754,60.1909256158726,Cloud_Experiment_FR_REAL,001,50,
images/fcloud80-20_D0.9_6.tif,0.9,2,,,,,,,,,0,97,97,77,,,,,,,,,,,,,,,2,space,2.43378959999,5,0.468,,,,,,,,,,,,,,,,,,2019_Sep_24_1754,60.1909256158726,Cloud_Experiment_FR_REAL,001,50,
images/fcloud_D1.9_5.tif,1.9,0,,,,,,,,,0,98,98,34,,,,,,,,,,,,,,,1,space,3.8583375,2,0.668,,,,,,,,,,,,,,,,,,2019_Sep_24_1754,60.1909256158726,Cloud_Experiment_FR_REAL,001,50,
images/fcloud80-20_D1.1_5.tif,1.1,2,,,,,,,,,0,99,99,82,,,,,,,,,,,,,,,2,space,6.3050557,2,1.433,,,,,,,,,,,,,,,,,,2019_Sep_24_1754,60.1909256158726,Cloud_Experiment_FR_REAL,001,50,
images/fcloud65-35_D1_4.tif,1.0,1,,,,,,,,,0,100,100,42,,,,,,,,,,,,,,,1,space,6.5233053,2,2.135,,,,,,,,,,,,,,,,,,2019_Sep_24_1754,60.1909256158726,Cloud_Experiment_FR_REAL,001,50,
images/fcloud80-20_D1.9_4.tif,1.9,2,,,,,,,,,0,101,101,105,,,,,,,,,,,,,,,2,space,3.3474952,2,0.604,,,,,,,,,,,,,,,,,,2019_Sep_24_1754,60.1909256158726,Cloud_Experiment_FR_REAL,001,50,
images/fcloud80-20_D1.7_6.tif,1.7,2,,,,,,,,,0,102,102,101,,,,,,,,,,,,,,,1,space,7.10152159999,1,0.637,,,,,,,,,,,,,,,,,,2019_Sep_24_1754,60.1909256158726,Cloud_Experiment_FR_REAL,001,50,
images/fcloud80-20_D1_4.tif,1.0,2,,,,,,,,,0,103,103,78,,,,,,,,,,,,,,,1,space,4.538694,2,0.452,,,,,,,,,,,,,,,,,,2019_Sep_24_1754,60.1909256158726,Cloud_Experiment_FR_REAL,001,50,
images/fcloud80-20_D1.5_6.tif,1.5,2,,,,,,,,,0,104,104,95,,,,,,,,,,,,,,,2,space,2.60520399999,5,0.668,,,,,,,,,,,,,,,,,,2019_Sep_24_1754,60.1909256158726,Cloud_Experiment_FR_REAL,001,50,
images/fcloud80-20_D1.9_5.tif,1.9,2,,,,,,,,,0,105,105,106,,,,,,,,,,,,,,,2,space,3.962593,3,0.818,,,,,,,,,,,,,,,,,,2019_Sep_24_1754,60.1909256158726,Cloud_Experiment_FR_REAL,001,50,
images/fcloud65-35_D1.9_5.tif,1.9,1,,,,,,,,,0,106,106,70,,,,,,,,,,,,,,,3,space,2.21331980001,5,0.502,,,,,,,,,,,,,,,,,,2019_Sep_24_1754,60.1909256158726,Cloud_Experiment_FR_REAL,001,50,
images/fcloud80-20_D1.4_5.tif,1.4,2,,,,,,,,,0,107,107,91,,,,,,,,,,,,,,,2,space,1.94680630001,4,0.486,,,,,,,,,,,,,,,,,,2019_Sep_24_1754,60.1909256158726,Cloud_Experiment_FR_REAL,001,50,
,,,,,,,,,,,,,,,,,,,,,,,,,,,,,,,,,,,,,,,,,,,,,,space,6.55099670001,,,,2019_Sep_24_1754,60.1909256158726,Cloud_Experiment_FR_REAL,001,50,
,,,,,,,,,,,,,,,,,,,,,,,,,3,12.727,,,,,,,,,,,,,,,,,,,,,,,,,2019_Sep_24_1754,60.1909256158726,Cloud_Experiment_FR_REAL,001,50,
,,,,,,,,,,,,,,,,,,,,,,,,,,,,,,,,,,7,,,,,,,,,,,,,,,,,2019_Sep_24_1754,60.1909256158726,Cloud_Experiment_FR_REAL,001,50,
,,,,,,,,,,,,,,,,,,,,,,,,,,,,,,,,,,,7,,,,,,,,,,,,,,,,2019_Sep_24_1754,60.1909256158726,Cloud_Experiment_FR_REAL,001,50,
,,,,,,,,,,,,,,,,,,,,,,,,,,,,,,,,,,,,3,,,,,,,,,,,,,,,2019_Sep_24_1754,60.1909256158726,Cloud_Experiment_FR_REAL,001,50,
,,,,,,,,,,,,,,,,,,,,,,,,,,,,,,,,,,,,,5,,,,,,,,,,,,,,2019_Sep_24_1754,60.1909256158726,Cloud_Experiment_FR_REAL,001,50,
,,,,,,,,,,,,,,,,,,,,,,,,,,,,,,,,,,,,,,5,,,,,,,,,,,,,2019_Sep_24_1754,60.1909256158726,Cloud_Experiment_FR_REAL,001,50,
,,,,,,,,,,,,,,,,,,,,,,,,,,,,,,,,,,,,,,,5,,,,,,,,,,,,2019_Sep_24_1754,60.1909256158726,Cloud_Experiment_FR_REAL,001,50,
,,,,,,,,,,,,,,,,,,,,,,,,,,,,,,,,,,,,,,,,7,,,,,,,,,,,2019_Sep_24_1754,60.1909256158726,Cloud_Experiment_FR_REAL,001,50,
,,,,,,,,,,,,,,,,,,,,,,,,,,,,,,,,,,,,,,,,,7,,,,,,,,,,2019_Sep_24_1754,60.1909256158726,Cloud_Experiment_FR_REAL,001,50,
,,,,,,,,,,,,,,,,,,,,,,,,,,,,,,,,,,,,,,,,,,7,,,,,,,,,2019_Sep_24_1754,60.1909256158726,Cloud_Experiment_FR_REAL,001,50,
,,,,,,,,,,,,,,,,,,,,,,,,,,,,,,,,,,,,,,,,,,,2,,,,,,,,2019_Sep_24_1754,60.1909256158726,Cloud_Experiment_FR_REAL,001,50,
,,,,,,,,,,,,,,,,,,,,,,,,,,,,,,,,,,,,,,,,,,,,,,,,space,72.8892823,,2019_Sep_24_1754,60.1909256158726,Cloud_Experiment_FR_REAL,001,50,
images/fcloud80-20_D0.8_10.tif,0.8,2,,,,,,,,,,,,,0,0,0,99,,,,,,,,,,,4,space,2.0690934,2,1.452,,,,,,,,,,,,,,,,,,2019_Sep_24_1754,60.1909256158726,Cloud_Experiment_FR_REAL,001,50,
images/fcloud80-20_D1.5_10.tif,1.5,2,,,,,,,,,,,,,0,1,1,127,,,,,,,,,,,2,space,5.8019415,2,1.018,,,,,,,,,,,,,,,,,,2019_Sep_24_1754,60.1909256158726,Cloud_Experiment_FR_REAL,001,50,
images/fcloud65-35_D1.1_10.tif,1.1,1,,,,,,,,,,,,,0,2,2,63,,,,,,,,,,,2,space,3.8125139,3,0.537,,,,,,,,,,,,,,,,,,2019_Sep_24_1754,60.1909256158726,Cloud_Experiment_FR_REAL,001,50,
images/fcloud_D1.9_8.tif,1.9,0,,,,,,,,,,,,,0,3,3,45,,,,,,,,,,,2,space,2.8941915,3,1.052,,,,,,,,,,,,,,,,,,2019_Sep_24_1754,60.1909256158726,Cloud_Experiment_FR_REAL,001,50,
images/fcloud_D1.6_8.tif,1.6,0,,,,,,,,,,,,,0,4,4,33,,,,,,,,,,,3,space,1.9648187,3,0.635,,,,,,,,,,,,,,,,,,2019_Sep_24_1754,60.1909256158726,Cloud_Experiment_FR_REAL,001,50,
images/fcloud65-35_D1.8_7.tif,1.8,1,,,,,,,,,,,,,0,5,5,88,,,,,,,,,,,1,space,2.2276885,2,0.555,,,,,,,,,,,,,,,,,,2019_Sep_24_1754,60.1909256158726,Cloud_Experiment_FR_REAL,001,50,
images/fcloud_D0.8_9.tif,0.8,0,,,,,,,,,,,,,0,6,6,2,,,,,,,,,,,2,space,4.7140224,3,1.55,,,,,,,,,,,,,,,,,,2019_Sep_24_1754,60.1909256158726,Cloud_Experiment_FR_REAL,001,50,
images/fcloud65-35_D1.3_8.tif,1.3,1,,,,,,,,,,,,,0,7,7,69,,,,,,,,,,,None,None,,None,10.558,,,,,,,,,,,,,,,,,,2019_Sep_24_1754,60.1909256158726,Cloud_Experiment_FR_REAL,001,50,
images/fcloud80-20_D1.7_8.tif,1.7,2,,,,,,,,,,,,,0,8,8,133,,,,,,,,,,,1,space,6.1042416,1,0.669,,,,,,,,,,,,,,,,,,2019_Sep_24_1754,60.1909256158726,Cloud_Experiment_FR_REAL,001,50,
images/fcloud80-20_D1.9_7.tif,1.9,2,,,,,,,,,,,,,0,9,9,140,,,,,,,,,,,None,None,,None,9.61,,,,,,,,,,,,,,,,,,2019_Sep_24_1754,60.1909256158726,Cloud_Experiment_FR_REAL,001,50,
images/fcloud_D1.3_9.tif,1.3,0,,,,,,,,,,,,,0,10,10,22,,,,,,,,,,,1,space,7.31593329999,2,0.469,,,,,,,,,,,,,,,,,,2019_Sep_24_1754,60.1909256158726,Cloud_Experiment_FR_REAL,001,50,
images/fcloud80-20_D1.4_7.tif,1.4,2,,,,,,,,,,,,,0,11,11,120,,,,,,,,,,,2,space,1.52675270001,2,1.036,,,,,,,,,,,,,,,,,,2019_Sep_24_1754,60.1909256158726,Cloud_Experiment_FR_REAL,001,50,
images/fcloud65-35_D1.8_10.tif,1.8,1,,,,,,,,,,,,,0,12,12,91,,,,,,,,,,,1,space,5.81100999999,2,0.568,,,,,,,,,,,,,,,,,,2019_Sep_24_1754,60.1909256158726,Cloud_Experiment_FR_REAL,001,50,
images/fcloud80-20_D1.4_8.tif,1.4,2,,,,,,,,,,,,,0,13,13,121,,,,,,,,,,,1,space,5.6790049,3,0.986,,,,,,,,,,,,,,,,,,2019_Sep_24_1754,60.1909256158726,Cloud_Experiment_FR_REAL,001,50,
images/fcloud65-35_D1.9_9.tif,1.9,1,,,,,,,,,,,,,0,14,14,94,,,,,,,,,,,2,space,3.0990039,3,0.486,,,,,,,,,,,,,,,,,,2019_Sep_24_1754,60.1909256158726,Cloud_Experiment_FR_REAL,001,50,
images/fcloud80-20_D1.5_8.tif,1.5,2,,,,,,,,,,,,,0,15,15,125,,,,,,,,,,,1,space,2.35983999999,2,0.471,,,,,,,,,,,,,,,,,,2019_Sep_24_1754,60.1909256158726,Cloud_Experiment_FR_REAL,001,50,
images/fcloud65-35_D1.6_7.tif,1.6,1,,,,,,,,,,,,,0,16,16,80,,,,,,,,,,,2,space,3.104028,3,0.552,,,,,,,,,,,,,,,,,,2019_Sep_24_1754,60.1909256158726,Cloud_Experiment_FR_REAL,001,50,
images/fcloud_D1.5_9.tif,1.5,0,,,,,,,,,,,,,0,17,17,30,,,,,,,,,,,3,space,2.57297220001,4,0.867,,,,,,,,,,,,,,,,,,2019_Sep_24_1754,60.1909256158726,Cloud_Experiment_FR_REAL,001,50,
images/fcloud80-20_D0.9_9.tif,0.9,2,,,,,,,,,,,,,0,18,18,102,,,,,,,,,,,1,space,2.4400322,3,0.503,,,,,,,,,,,,,,,,,,2019_Sep_24_1754,60.1909256158726,Cloud_Experiment_FR_REAL,001,50,
images/fcloud80-20_D1.3_8.tif,1.3,2,,,,,,,,,,,,,0,19,19,117,,,,,,,,,,,2,space,2.1893134,3,1.451,,,,,,,,,,,,,,,,,,2019_Sep_24_1754,60.1909256158726,Cloud_Experiment_FR_REAL,001,50,
images/fcloud65-35_D1.2_9.tif,1.2,1,,,,,,,,,,,,,0,20,20,66,,,,,,,,,,,1,space,2.8843914,2,0.769,,,,,,,,,,,,,,,,,,2019_Sep_24_1754,60.1909256158726,Cloud_Experiment_FR_REAL,001,50,
images/fcloud_D1.1_9.tif,1.1,0,,,,,,,,,,,,,0,21,21,14,,,,,,,,,,,2,space,4.3428446,3,0.934,,,,,,,,,,,,,,,,,,2019_Sep_24_1754,60.1909256158726,Cloud_Experiment_FR_REAL,001,50,
images/fcloud65-35_D1.7_9.tif,1.7,1,,,,,,,,,,,,,0,22,22,86,,,,,,,,,,,2,space,4.25030469999,4,0.47,,,,,,,,,,,,,,,,,,2019_Sep_24_1754,60.1909256158726,Cloud_Experiment_FR_REAL,001,50,
images/fcloud65-35_D1.3_9.tif,1.3,1,,,,,,,,,,,,,0,23,23,70,,,,,,,,,,,None,None,,None,9.593,,,,,,,,,,,,,,,,,,2019_Sep_24_1754,60.1909256158726,Cloud_Experiment_FR_REAL,001,50,
images/fcloud80-20_D1_10.tif,1.0,2,,,,,,,,,,,,,0,24,24,107,,,,,,,,,,,2,space,4.45908700001,3,1.217,,,,,,,,,,,,,,,,,,2019_Sep_24_1754,60.1909256158726,Cloud_Experiment_FR_REAL,001,50,
images/fcloud80-20_D1.1_10.tif,1.1,2,,,,,,,,,,,,,0,25,25,111,,,,,,,,,,,3,space,3.8915402,2,0.469,,,,,,,,,,,,,,,,,,2019_Sep_24_1754,60.1909256158726,Cloud_Experiment_FR_REAL,001,50,
images/fcloud_D0.9_10.tif,0.9,0,,,,,,,,,,,,,0,26,26,7,,,,,,,,,,,5,space,2.34193719999,5,1.067,,,,,,,,,,,,,,,,,,2019_Sep_24_1754,60.1909256158726,Cloud_Experiment_FR_REAL,001,50,
images/fcloud_D1.9_9.tif,1.9,0,,,,,,,,,,,,,0,27,27,46,,,,,,,,,,,None,space,5.8314234,None,10.259,,,,,,,,,,,,,,,,,,2019_Sep_24_1754,60.1909256158726,Cloud_Experiment_FR_REAL,001,50,
images/fcloud80-20_D1.8_7.tif,1.8,2,,,,,,,,,,,,,0,28,28,136,,,,,,,,,,,1,space,3.9731193,3,0.552,,,,,,,,,,,,,,,,,,2019_Sep_24_1754,60.1909256158726,Cloud_Experiment_FR_REAL,001,50,
images/fcloud65-35_D1.4_9.tif,1.4,1,,,,,,,,,,,,,0,29,29,74,,,,,,,,,,,3,space,1.61739480001,2,0.552,,,,,,,,,,,,,,,,,,2019_Sep_24_1754,60.1909256158726,Cloud_Experiment_FR_REAL,001,50,
images/fcloud_D1.2_9.tif,1.2,0,,,,,,,,,,,,,0,30,30,18,,,,,,,,,,,2,space,2.93480179999,4,0.452,,,,,,,,,,,,,,,,,,2019_Sep_24_1754,60.1909256158726,Cloud_Experiment_FR_REAL,001,50,
images/fcloud_D1.9_10.tif,1.9,0,,,,,,,,,,,,,0,31,31,47,,,,,,,,,,,1,space,3.14146850001,2,0.452,,,,,,,,,,,,,,,,,,2019_Sep_24_1754,60.1909256158726,Cloud_Experiment_FR_REAL,001,50,
images/fcloud_D1.1_7.tif,1.1,0,,,,,,,,,,,,,0,32,32,12,,,,,,,,,,,4,space,1.573984,5,0.534,,,,,,,,,,,,,,,,,,2019_Sep_24_1754,60.1909256158726,Cloud_Experiment_FR_REAL,001,50,
images/fcloud65-35_D1.9_8.tif,1.9,1,,,,,,,,,,,,,0,33,33,93,,,,,,,,,,,1,space,7.2626395,1,0.586,,,,,,,,,,,,,,,,,,2019_Sep_24_1754,60.1909256158726,Cloud_Experiment_FR_REAL,001,50,
images/fcloud65-35_D1.8_8.tif,1.8,1,,,,,,,,,,,,,0,34,34,89,,,,,,,,,,,1,space,5.5523508,2,0.435,,,,,,,,,,,,,,,,,,2019_Sep_24_1754,60.1909256158726,Cloud_Experiment_FR_REAL,001,50,
images/fcloud_D1.4_8.tif,1.4,0,,,,,,,,,,,,,0,35,35,25,,,,,,,,,,,1,space,5.89482639999,2,0.436,,,,,,,,,,,,,,,,,,2019_Sep_24_1754,60.1909256158726,Cloud_Experiment_FR_REAL,001,50,
images/fcloud_D0.9_7.tif,0.9,0,,,,,,,,,,,,,0,36,36,4,,,,,,,,,,,4,space,1.8682438,4,0.502,,,,,,,,,,,,,,,,,,2019_Sep_24_1754,60.1909256158726,Cloud_Experiment_FR_REAL,001,50,
images/fcloud_D1.7_9.tif,1.7,0,,,,,,,,,,,,,0,37,37,38,,,,,,,,,,,2,space,6.3858205,2,0.884,,,,,,,,,,,,,,,,,,2019_Sep_24_1754,60.1909256158726,Cloud_Experiment_FR_REAL,001,50,
images/fcloud65-35_D1.5_7.tif,1.5,1,,,,,,,,,,,,,0,38,38,76,,,,,,,,,,,1,space,6.2156795,3,1.636,,,,,,,,,,,,,,,,,,2019_Sep_24_1754,60.1909256158726,Cloud_Experiment_FR_REAL,001,50,
images/fcloud80-20_D1_8.tif,1.0,2,,,,,,,,,,,,,0,39,39,105,,,,,,,,,,,2,space,3.9299606,2,1.25,,,,,,,,,,,,,,,,,,2019_Sep_24_1754,60.1909256158726,Cloud_Experiment_FR_REAL,001,50,
images/fcloud80-20_D1.9_8.tif,1.9,2,,,,,,,,,,,,,0,40,40,141,,,,,,,,,,,None,None,,None,10.894,,,,,,,,,,,,,,,,,,2019_Sep_24_1754,60.1909256158726,Cloud_Experiment_FR_REAL,001,50,
images/fcloud65-35_D1.4_8.tif,1.4,1,,,,,,,,,,,,,0,41,41,73,,,,,,,,,,,2,space,4.89354609999,5,0.586,,,,,,,,,,,,,,,,,,2019_Sep_24_1754,60.1909256158726,Cloud_Experiment_FR_REAL,001,50,
images/fcloud65-35_D1.1_8.tif,1.1,1,,,,,,,,,,,,,0,42,42,61,,,,,,,,,,,2,space,4.58131020001,5,0.469,,,,,,,,,,,,,,,,,,2019_Sep_24_1754,60.1909256158726,Cloud_Experiment_FR_REAL,001,50,
images/fcloud65-35_D1.5_9.tif,1.5,1,,,,,,,,,,,,,0,43,43,78,,,,,,,,,,,4,space,1.8935619,4,0.485,,,,,,,,,,,,,,,,,,2019_Sep_24_1754,60.1909256158726,Cloud_Experiment_FR_REAL,001,50,
images/fcloud_D1.3_7.tif,1.3,0,,,,,,,,,,,,,0,44,44,20,,,,,,,,,,,3,space,5.233532,5,0.535,,,,,,,,,,,,,,,,,,2019_Sep_24_1754,60.1909256158726,Cloud_Experiment_FR_REAL,001,50,
images/fcloud_D1_8.tif,1.0,0,,,,,,,,,,,,,0,45,45,9,,,,,,,,,,,2,space,3.3880908,2,0.485,,,,,,,,,,,,,,,,,,2019_Sep_24_1754,60.1909256158726,Cloud_Experiment_FR_REAL,001,50,
images/fcloud80-20_D1.8_9.tif,1.8,2,,,,,,,,,,,,,0,46,46,138,,,,,,,,,,,2,space,3.8498001,2,0.669,,,,,,,,,,,,,,,,,,2019_Sep_24_1754,60.1909256158726,Cloud_Experiment_FR_REAL,001,50,
images/fcloud80-20_D1.7_7.tif,1.7,2,,,,,,,,,,,,,0,47,47,132,,,,,,,,,,,3,space,3.66481710001,3,2.034,,,,,,,,,,,,,,,,,,2019_Sep_24_1754,60.1909256158726,Cloud_Experiment_FR_REAL,001,50,
images/fcloud65-35_D1.6_10.tif,1.6,1,,,,,,,,,,,,,0,48,48,83,,,,,,,,,,,1,space,2.92301360001,2,0.703,,,,,,,,,,,,,,,,,,2019_Sep_24_1754,60.1909256158726,Cloud_Experiment_FR_REAL,001,50,
images/fcloud65-35_D1.5_10.tif,1.5,1,,,,,,,,,,,,,0,49,49,79,,,,,,,,,,,1,space,5.5488509,3,0.867,,,,,,,,,,,,,,,,,,2019_Sep_24_1754,60.1909256158726,Cloud_Experiment_FR_REAL,001,50,
images/fcloud_D0.8_8.tif,0.8,0,,,,,,,,,,,,,0,50,50,1,,,,,,,,,,,2,space,4.09183230001,2,0.952,,,,,,,,,,,,,,,,,,2019_Sep_24_1754,60.1909256158726,Cloud_Experiment_FR_REAL,001,50,
images/fcloud_D1.1_8.tif,1.1,0,,,,,,,,,,,,,0,51,51,13,,,,,,,,,,,3,space,2.87131450001,3,0.702,,,,,,,,,,,,,,,,,,2019_Sep_24_1754,60.1909256158726,Cloud_Experiment_FR_REAL,001,50,
images/fcloud_D1.7_10.tif,1.7,0,,,,,,,,,,,,,0,52,52,39,,,,,,,,,,,2,space,2.66498130001,4,0.786,,,,,,,,,,,,,,,,,,2019_Sep_24_1754,60.1909256158726,Cloud_Experiment_FR_REAL,001,50,
images/fcloud65-35_D1.9_10.tif,1.9,1,,,,,,,,,,,,,0,53,53,95,,,,,,,,,,,1,space,4.0075964,1,1.885,,,,,,,,,,,,,,,,,,2019_Sep_24_1754,60.1909256158726,Cloud_Experiment_FR_REAL,001,50,
images/fcloud80-20_D1.2_10.tif,1.2,2,,,,,,,,,,,,,0,54,54,115,,,,,,,,,,,2,space,2.17871109999,4,0.452,,,,,,,,,,,,,,,,,,2019_Sep_24_1754,60.1909256158726,Cloud_Experiment_FR_REAL,001,50,
images/fcloud80-20_D1.1_8.tif,1.1,2,,,,,,,,,,,,,0,55,55,109,,,,,,,,,,,None,None,,None,9.51,,,,,,,,,,,,,,,,,,2019_Sep_24_1754,60.1909256158726,Cloud_Experiment_FR_REAL,001,50,
images/fcloud65-35_D1.6_9.tif,1.6,1,,,,,,,,,,,,,0,56,56,82,,,,,,,,,,,1,space,5.3417647,2,0.702,,,,,,,,,,,,,,,,,,2019_Sep_24_1754,60.1909256158726,Cloud_Experiment_FR_REAL,001,50,
images/fcloud65-35_D1.7_7.tif,1.7,1,,,,,,,,,,,,,0,57,57,84,,,,,,,,,,,None,None,,None,9.792,,,,,,,,,,,,,,,,,,2019_Sep_24_1754,60.1909256158726,Cloud_Experiment_FR_REAL,001,50,
images/fcloud65-35_D0.9_9.tif,0.9,1,,,,,,,,,,,,,0,58,58,54,,,,,,,,,,,2,space,2.7919064,3,0.717,,,,,,,,,,,,,,,,,,2019_Sep_24_1754,60.1909256158726,Cloud_Experiment_FR_REAL,001,50,
images/fcloud_D0.9_8.tif,0.9,0,,,,,,,,,,,,,0,59,59,5,,,,,,,,,,,3,space,1.12283570001,4,0.668,,,,,,,,,,,,,,,,,,2019_Sep_24_1754,60.1909256158726,Cloud_Experiment_FR_REAL,001,50,
images/fcloud80-20_D1_7.tif,1.0,2,,,,,,,,,,,,,0,60,60,104,,,,,,,,,,,None,None,,None,9.609,,,,,,,,,,,,,,,,,,2019_Sep_24_1754,60.1909256158726,Cloud_Experiment_FR_REAL,001,50,
images/fcloud65-35_D0.9_7.tif,0.9,1,,,,,,,,,,,,,0,61,61,52,,,,,,,,,,,1,space,4.1762918,2,0.951,,,,,,,,,,,,,,,,,,2019_Sep_24_1754,60.1909256158726,Cloud_Experiment_FR_REAL,001,50,
images/fcloud80-20_D1.5_7.tif,1.5,2,,,,,,,,,,,,,0,62,62,124,,,,,,,,,,,2,space,3.78089549999,5,0.587,,,,,,,,,,,,,,,,,,2019_Sep_24_1754,60.1909256158726,Cloud_Experiment_FR_REAL,001,50,
images/fcloud_D0.9_9.tif,0.9,0,,,,,,,,,,,,,0,63,63,6,,,,,,,,,,,2,space,4.56873309999,5,0.486,,,,,,,,,,,,,,,,,,2019_Sep_24_1754,60.1909256158726,Cloud_Experiment_FR_REAL,001,50,
images/fcloud_D1.9_7.tif,1.9,0,,,,,,,,,,,,,0,64,64,44,,,,,,,,,,,None,None,,None,10.941,,,,,,,,,,,,,,,,,,2019_Sep_24_1754,60.1909256158726,Cloud_Experiment_FR_REAL,001,50,
images/fcloud_D1.8_7.tif,1.8,0,,,,,,,,,,,,,0,65,65,40,,,,,,,,,,,1,space,4.8559146,2,0.503,,,,,,,,,,,,,,,,,,2019_Sep_24_1754,60.1909256158726,Cloud_Experiment_FR_REAL,001,50,
images/fcloud_D1.2_8.tif,1.2,0,,,,,,,,,,,,,0,66,66,17,,,,,,,,,,,2,space,3.5488837,3,0.452,,,,,,,,,,,,,,,,,,2019_Sep_24_1754,60.1909256158726,Cloud_Experiment_FR_REAL,001,50,
images/fcloud80-20_D1.9_9.tif,1.9,2,,,,,,,,,,,,,0,67,67,142,,,,,,,,,,,1,space,2.1892328,4,1.069,,,,,,,,,,,,,,,,,,2019_Sep_24_1754,60.1909256158726,Cloud_Experiment_FR_REAL,001,50,
images/fcloud65-35_D1.2_8.tif,1.2,1,,,,,,,,,,,,,0,68,68,65,,,,,,,,,,,1,space,7.4291465,2,1.3,,,,,,,,,,,,,,,,,,2019_Sep_24_1754,60.1909256158726,Cloud_Experiment_FR_REAL,001,50,
images/fcloud_D1_7.tif,1.0,0,,,,,,,,,,,,,0,69,69,8,,,,,,,,,,,2,space,4.0149274,4,0.701,,,,,,,,,,,,,,,,,,2019_Sep_24_1754,60.1909256158726,Cloud_Experiment_FR_REAL,001,50,
images/fcloud65-35_D1.5_8.tif,1.5,1,,,,,,,,,,,,,0,70,70,77,,,,,,,,,,,1,space,3.4714124,3,0.735,,,,,,,,,,,,,,,,,,2019_Sep_24_1754,60.1909256158726,Cloud_Experiment_FR_REAL,001,50,
images/fcloud_D1.4_10.tif,1.4,0,,,,,,,,,,,,,0,71,71,27,,,,,,,,,,,3,space,2.1386303,4,0.602,,,,,,,,,,,,,,,,,,2019_Sep_24_1754,60.1909256158726,Cloud_Experiment_FR_REAL,001,50,
images/fcloud80-20_D0.9_10.tif,0.9,2,,,,,,,,,,,,,0,72,72,103,,,,,,,,,,,3,space,2.4942243,3,0.502,,,,,,,,,,,,,,,,,,2019_Sep_24_1754,60.1909256158726,Cloud_Experiment_FR_REAL,001,50,
images/fcloud65-35_D0.8_9.tif,0.8,1,,,,,,,,,,,,,0,73,73,50,,,,,,,,,,,3,space,2.420237,3,0.702,,,,,,,,,,,,,,,,,,2019_Sep_24_1754,60.1909256158726,Cloud_Experiment_FR_REAL,001,50,
images/fcloud80-20_D0.8_8.tif,0.8,2,,,,,,,,,,,,,0,74,74,97,,,,,,,,,,,None,None,,None,9.842,,,,,,,,,,,,,,,,,,2019_Sep_24_1754,60.1909256158726,Cloud_Experiment_FR_REAL,001,50,
images/fcloud65-35_D1.8_9.tif,1.8,1,,,,,,,,,,,,,0,75,75,90,,,,,,,,,,,2,space,5.42481700001,2,0.669,,,,,,,,,,,,,,,,,,2019_Sep_24_1754,60.1909256158726,Cloud_Experiment_FR_REAL,001,50,
images/fcloud65-35_D1.7_8.tif,1.7,1,,,,,,,,,,,,,0,76,76,85,,,,,,,,,,,2,space,5.45904229999,2,3.699,,,,,,,,,,,,,,,,,,2019_Sep_24_1754,60.1909256158726,Cloud_Experiment_FR_REAL,001,50,
images/fcloud65-35_D1.2_10.tif,1.2,1,,,,,,,,,,,,,0,77,77,67,,,,,,,,,,,1,space,6.86731469999,1,0.586,,,,,,,,,,,,,,,,,,2019_Sep_24_1754,60.1909256158726,Cloud_Experiment_FR_REAL,001,50,
images/fcloud80-20_D1.2_7.tif,1.2,2,,,,,,,,,,,,,0,78,78,112,,,,,,,,,,,2,space,4.1927247,1,0.519,,,,,,,,,,,,,,,,,,2019_Sep_24_1754,60.1909256158726,Cloud_Experiment_FR_REAL,001,50,
images/fcloud80-20_D1.5_9.tif,1.5,2,,,,,,,,,,,,,0,79,79,126,,,,,,,,,,,2,space,3.14470989999,4,0.402,,,,,,,,,,,,,,,,,,2019_Sep_24_1754,60.1909256158726,Cloud_Experiment_FR_REAL,001,50,
images/fcloud80-20_D1.6_10.tif,1.6,2,,,,,,,,,,,,,0,80,80,131,,,,,,,,,,,2,space,2.1183614,3,0.501,,,,,,,,,,,,,,,,,,2019_Sep_24_1754,60.1909256158726,Cloud_Experiment_FR_REAL,001,50,
images/fcloud65-35_D0.8_10.tif,0.8,1,,,,,,,,,,,,,0,81,81,51,,,,,,,,,,,1,space,4.70217559999,2,0.567,,,,,,,,,,,,,,,,,,2019_Sep_24_1754,60.1909256158726,Cloud_Experiment_FR_REAL,001,50,
images/fcloud80-20_D1.3_9.tif,1.3,2,,,,,,,,,,,,,0,82,82,118,,,,,,,,,,,None,None,,None,9.442,,,,,,,,,,,,,,,,,,2019_Sep_24_1754,60.1909256158726,Cloud_Experiment_FR_REAL,001,50,
images/fcloud_D1.5_8.tif,1.5,0,,,,,,,,,,,,,0,83,83,29,,,,,,,,,,,3,space,4.93188049999,4,0.468,,,,,,,,,,,,,,,,,,2019_Sep_24_1754,60.1909256158726,Cloud_Experiment_FR_REAL,001,50,
images/fcloud_D1.3_10.tif,1.3,0,,,,,,,,,,,,,0,84,84,23,,,,,,,,,,,2,space,1.661758,3,0.435,,,,,,,,,,,,,,,,,,2019_Sep_24_1754,60.1909256158726,Cloud_Experiment_FR_REAL,001,50,
images/fcloud65-35_D1.3_7.tif,1.3,1,,,,,,,,,,,,,0,85,85,68,,,,,,,,,,,1,space,5.63022369999,1,0.652,,,,,,,,,,,,,,,,,,2019_Sep_24_1754,60.1909256158726,Cloud_Experiment_FR_REAL,001,50,
images/fcloud65-35_D1.2_7.tif,1.2,1,,,,,,,,,,,,,0,86,86,64,,,,,,,,,,,1,space,6.51987809999,2,1.901,,,,,,,,,,,,,,,,,,2019_Sep_24_1754,60.1909256158726,Cloud_Experiment_FR_REAL,001,50,
images/fcloud80-20_D1.3_10.tif,1.3,2,,,,,,,,,,,,,0,87,87,119,,,,,,,,,,,None,None,,None,10.575,,,,,,,,,,,,,,,,,,2019_Sep_24_1754,60.1909256158726,Cloud_Experiment_FR_REAL,001,50,
images/fcloud80-20_D1.6_9.tif,1.6,2,,,,,,,,,,,,,0,88,88,130,,,,,,,,,,,2,space,4.440126,3,0.618,,,,,,,,,,,,,,,,,,2019_Sep_24_1754,60.1909256158726,Cloud_Experiment_FR_REAL,001,50,
images/fcloud65-35_D1.1_9.tif,1.1,1,,,,,,,,,,,,,0,89,89,62,,,,,,,,,,,1,space,7.075339,1,0.701,,,,,,,,,,,,,,,,,,2019_Sep_24_1754,60.1909256158726,Cloud_Experiment_FR_REAL,001,50,
images/fcloud80-20_D1.6_7.tif,1.6,2,,,,,,,,,,,,,0,90,90,128,,,,,,,,,,,1,space,2.9898487,1,1.018,,,,,,,,,,,,,,,,,,2019_Sep_24_1754,60.1909256158726,Cloud_Experiment_FR_REAL,001,50,
images/fcloud_D1.2_7.tif,1.2,0,,,,,,,,,,,,,0,91,91,16,,,,,,,,,,,3,space,2.0698046,3,0.736,,,,,,,,,,,,,,,,,,2019_Sep_24_1754,60.1909256158726,Cloud_Experiment_FR_REAL,001,50,
images/fcloud80-20_D1.9_10.tif,1.9,2,,,,,,,,,,,,,0,92,92,143,,,,,,,,,,,1,space,1.49937210001,2,0.618,,,,,,,,,,,,,,,,,,2019_Sep_24_1754,60.1909256158726,Cloud_Experiment_FR_REAL,001,50,
images/fcloud65-35_D0.9_8.tif,0.9,1,,,,,,,,,,,,,0,93,93,53,,,,,,,,,,,1,space,6.58916049999,2,0.868,,,,,,,,,,,,,,,,,,2019_Sep_24_1754,60.1909256158726,Cloud_Experiment_FR_REAL,001,50,
images/fcloud_D1.7_7.tif,1.7,0,,,,,,,,,,,,,0,94,94,36,,,,,,,,,,,2,space,4.70989920001,4,0.785,,,,,,,,,,,,,,,,,,2019_Sep_24_1754,60.1909256158726,Cloud_Experiment_FR_REAL,001,50,
images/fcloud_D1_10.tif,1.0,0,,,,,,,,,,,,,0,95,95,11,,,,,,,,,,,2,space,3.94322389999,4,0.485,,,,,,,,,,,,,,,,,,2019_Sep_24_1754,60.1909256158726,Cloud_Experiment_FR_REAL,001,50,
images/fcloud80-20_D1.8_8.tif,1.8,2,,,,,,,,,,,,,0,96,96,137,,,,,,,,,,,None,None,,None,9.443,,,,,,,,,,,,,,,,,,2019_Sep_24_1754,60.1909256158726,Cloud_Experiment_FR_REAL,001,50,
images/fcloud65-35_D1.1_7.tif,1.1,1,,,,,,,,,,,,,0,97,97,60,,,,,,,,,,,3,space,2.1806755,4,0.586,,,,,,,,,,,,,,,,,,2019_Sep_24_1754,60.1909256158726,Cloud_Experiment_FR_REAL,001,50,
images/fcloud65-35_D1.7_10.tif,1.7,1,,,,,,,,,,,,,0,98,98,87,,,,,,,,,,,1,space,5.0047105,2,0.468,,,,,,,,,,,,,,,,,,2019_Sep_24_1754,60.1909256158726,Cloud_Experiment_FR_REAL,001,50,
images/fcloud80-20_D1.6_8.tif,1.6,2,,,,,,,,,,,,,0,99,99,129,,,,,,,,,,,2,space,2.73563140001,4,1.635,,,,,,,,,,,,,,,,,,2019_Sep_24_1754,60.1909256158726,Cloud_Experiment_FR_REAL,001,50,
images/fcloud80-20_D1.1_9.tif,1.1,2,,,,,,,,,,,,,0,100,100,110,,,,,,,,,,,2,space,2.9040192,3,0.7,,,,,,,,,,,,,,,,,,2019_Sep_24_1754,60.1909256158726,Cloud_Experiment_FR_REAL,001,50,
images/fcloud65-35_D1_8.tif,1.0,1,,,,,,,,,,,,,0,101,101,57,,,,,,,,,,,None,None,,None,9.443,,,,,,,,,,,,,,,,,,2019_Sep_24_1754,60.1909256158726,Cloud_Experiment_FR_REAL,001,50,
images/fcloud80-20_D0.8_7.tif,0.8,2,,,,,,,,,,,,,0,102,102,96,,,,,,,,,,,None,None,,None,18.418,,,,,,,,,,,,,,,,,,2019_Sep_24_1754,60.1909256158726,Cloud_Experiment_FR_REAL,001,50,
images/fcloud_D1.8_10.tif,1.8,0,,,,,,,,,,,,,0,103,103,43,,,,,,,,,,,2,space,2.67653899999,2,0.651,,,,,,,,,,,,,,,,,,2019_Sep_24_1754,60.1909256158726,Cloud_Experiment_FR_REAL,001,50,
images/fcloud_D1.2_10.tif,1.2,0,,,,,,,,,,,,,0,104,104,19,,,,,,,,,,,4,space,2.7285442,2,0.519,,,,,,,,,,,,,,,,,,2019_Sep_24_1754,60.1909256158726,Cloud_Experiment_FR_REAL,001,50,
images/fcloud_D1.4_7.tif,1.4,0,,,,,,,,,,,,,0,105,105,24,,,,,,,,,,,1,space,6.2819358,3,0.617,,,,,,,,,,,,,,,,,,2019_Sep_24_1754,60.1909256158726,Cloud_Experiment_FR_REAL,001,50,
images/fcloud80-20_D0.8_9.tif,0.8,2,,,,,,,,,,,,,0,106,106,98,,,,,,,,,,,None,None,,None,11.423,,,,,,,,,,,,,,,,,,2019_Sep_24_1754,60.1909256158726,Cloud_Experiment_FR_REAL,001,50,
images/fcloud_D1.3_8.tif,1.3,0,,,,,,,,,,,,,0,107,107,21,,,,,,,,,,,4,space,1.0492792,4,0.435,,,,,,,,,,,,,,,,,,2019_Sep_24_1754,60.1909256158726,Cloud_Experiment_FR_REAL,001,50,
images/fcloud65-35_D1.3_10.tif,1.3,1,,,,,,,,,,,,,0,108,108,71,,,,,,,,,,,1,space,6.6471168,3,0.502,,,,,,,,,,,,,,,,,,2019_Sep_24_1754,60.1909256158726,Cloud_Experiment_FR_REAL,001,50,
images/fcloud80-20_D1.4_10.tif,1.4,2,,,,,,,,,,,,,0,109,109,123,,,,,,,,,,,None,None,,None,9.692,,,,,,,,,,,,,,,,,,2019_Sep_24_1754,60.1909256158726,Cloud_Experiment_FR_REAL,001,50,
images/fcloud65-35_D1.4_10.tif,1.4,1,,,,,,,,,,,,,0,110,110,75,,,,,,,,,,,1,space,6.9896377,3,0.685,,,,,,,,,,,,,,,,,,2019_Sep_24_1754,60.1909256158726,Cloud_Experiment_FR_REAL,001,50,
images/fcloud80-20_D1.8_10.tif,1.8,2,,,,,,,,,,,,,0,111,111,139,,,,,,,,,,,None,space,8.61641420001,None,10.659,,,,,,,,,,,,,,,,,,2019_Sep_24_1754,60.1909256158726,Cloud_Experiment_FR_REAL,001,50,
images/fcloud80-20_D1.4_9.tif,1.4,2,,,,,,,,,,,,,0,112,112,122,,,,,,,,,,,None,None,,None,19.235,,,,,,,,,,,,,,,,,,2019_Sep_24_1754,60.1909256158726,Cloud_Experiment_FR_REAL,001,50,
images/fcloud_D1.6_7.tif,1.6,0,,,,,,,,,,,,,0,113,113,32,,,,,,,,,,,2,space,3.6975793,3,0.502,,,,,,,,,,,,,,,,,,2019_Sep_24_1754,60.1909256158726,Cloud_Experiment_FR_REAL,001,50,
images/fcloud65-35_D0.9_10.tif,0.9,1,,,,,,,,,,,,,0,114,114,55,,,,,,,,,,,1,space,1.29441469999,1,0.602,,,,,,,,,,,,,,,,,,2019_Sep_24_1754,60.1909256158726,Cloud_Experiment_FR_REAL,001,50,
images/fcloud80-20_D1.2_8.tif,1.2,2,,,,,,,,,,,,,0,115,115,113,,,,,,,,,,,3,space,3.1018246,2,1.818,,,,,,,,,,,,,,,,,,2019_Sep_24_1754,60.1909256158726,Cloud_Experiment_FR_REAL,001,50,
images/fcloud65-35_D1.9_7.tif,1.9,1,,,,,,,,,,,,,0,116,116,92,,,,,,,,,,,1,space,1.76884039999,1,0.469,,,,,,,,,,,,,,,,,,2019_Sep_24_1754,60.1909256158726,Cloud_Experiment_FR_REAL,001,50,
images/fcloud80-20_D0.9_7.tif,0.9,2,,,,,,,,,,,,,0,117,117,100,,,,,,,,,,,1,space,4.997833,2,0.801,,,,,,,,,,,,,,,,,,2019_Sep_24_1754,60.1909256158726,Cloud_Experiment_FR_REAL,001,50,
images/fcloud65-35_D1_9.tif,1.0,1,,,,,,,,,,,,,0,118,118,58,,,,,,,,,,,2,space,3.11308859999,3,1.368,,,,,,,,,,,,,,,,,,2019_Sep_24_1754,60.1909256158726,Cloud_Experiment_FR_REAL,001,50,
images/fcloud_D1_9.tif,1.0,0,,,,,,,,,,,,,0,119,119,10,,,,,,,,,,,3,space,3.5719528,3,1.117,,,,,,,,,,,,,,,,,,2019_Sep_24_1754,60.1909256158726,Cloud_Experiment_FR_REAL,001,50,
images/fcloud65-35_D0.8_8.tif,0.8,1,,,,,,,,,,,,,0,120,120,49,,,,,,,,,,,3,space,1.9431122,3,0.717,,,,,,,,,,,,,,,,,,2019_Sep_24_1754,60.1909256158726,Cloud_Experiment_FR_REAL,001,50,
images/fcloud_D1.8_8.tif,1.8,0,,,,,,,,,,,,,0,121,121,41,,,,,,,,,,,1,space,3.2174749,2,0.669,,,,,,,,,,,,,,,,,,2019_Sep_24_1754,60.1909256158726,Cloud_Experiment_FR_REAL,001,50,
images/fcloud_D1.6_9.tif,1.6,0,,,,,,,,,,,,,0,122,122,34,,,,,,,,,,,None,None,,None,9.876,,,,,,,,,,,,,,,,,,2019_Sep_24_1754,60.1909256158726,Cloud_Experiment_FR_REAL,001,50,
images/fcloud80-20_D1.3_7.tif,1.3,2,,,,,,,,,,,,,0,123,123,116,,,,,,,,,,,1,space,3.08368359999,1,4.017,,,,,,,,,,,,,,,,,,2019_Sep_24_1754,60.1909256158726,Cloud_Experiment_FR_REAL,001,50,
images/fcloud_D1.6_10.tif,1.6,0,,,,,,,,,,,,,0,124,124,35,,,,,,,,,,,None,None,,None,13.057,,,,,,,,,,,,,,,,,,2019_Sep_24_1754,60.1909256158726,Cloud_Experiment_FR_REAL,001,50,
images/fcloud_D1.5_10.tif,1.5,0,,,,,,,,,,,,,0,125,125,31,,,,,,,,,,,1,space,4.08490249999,1,0.569,,,,,,,,,,,,,,,,,,2019_Sep_24_1754,60.1909256158726,Cloud_Experiment_FR_REAL,001,50,
images/fcloud_D1.4_9.tif,1.4,0,,,,,,,,,,,,,0,126,126,26,,,,,,,,,,,1,space,5.13570700001,2,0.669,,,,,,,,,,,,,,,,,,2019_Sep_24_1754,60.1909256158726,Cloud_Experiment_FR_REAL,001,50,
images/fcloud_D1.7_8.tif,1.7,0,,,,,,,,,,,,,0,127,127,37,,,,,,,,,,,1,space,7.19585250001,2,0.535,,,,,,,,,,,,,,,,,,2019_Sep_24_1754,60.1909256158726,Cloud_Experiment_FR_REAL,001,50,
images/fcloud80-20_D1.7_10.tif,1.7,2,,,,,,,,,,,,,0,128,128,135,,,,,,,,,,,1,space,3.8879012,2,0.47,,,,,,,,,,,,,,,,,,2019_Sep_24_1754,60.1909256158726,Cloud_Experiment_FR_REAL,001,50,
images/fcloud_D0.8_10.tif,0.8,0,,,,,,,,,,,,,0,129,129,3,,,,,,,,,,,3,space,1.3417435,3,0.568,,,,,,,,,,,,,,,,,,2019_Sep_24_1754,60.1909256158726,Cloud_Experiment_FR_REAL,001,50,
images/fcloud65-35_D0.8_7.tif,0.8,1,,,,,,,,,,,,,0,130,130,48,,,,,,,,,,,1,None,,2,0.752,,,,,,,,,,,,,,,,,,2019_Sep_24_1754,60.1909256158726,Cloud_Experiment_FR_REAL,001,50,
images/fcloud80-20_D1_9.tif,1.0,2,,,,,,,,,,,,,0,131,131,106,,,,,,,,,,,None,None,,None,10.758,,,,,,,,,,,,,,,,,,2019_Sep_24_1754,60.1909256158726,Cloud_Experiment_FR_REAL,001,50,
images/fcloud_D0.8_7.tif,0.8,0,,,,,,,,,,,,,0,132,132,0,,,,,,,,,,,2,space,3.3695433,3,0.903,,,,,,,,,,,,,,,,,,2019_Sep_24_1754,60.1909256158726,Cloud_Experiment_FR_REAL,001,50,
images/fcloud_D1.5_7.tif,1.5,0,,,,,,,,,,,,,0,133,133,28,,,,,,,,,,,2,space,2.0436974,4,0.47,,,,,,,,,,,,,,,,,,2019_Sep_24_1754,60.1909256158726,Cloud_Experiment_FR_REAL,001,50,
images/fcloud_D1.1_10.tif,1.1,0,,,,,,,,,,,,,0,134,134,15,,,,,,,,,,,2,space,5.1088575,4,0.568,,,,,,,,,,,,,,,,,,2019_Sep_24_1754,60.1909256158726,Cloud_Experiment_FR_REAL,001,50,
images/fcloud80-20_D1.1_7.tif,1.1,2,,,,,,,,,,,,,0,135,135,108,,,,,,,,,,,None,None,,None,14.805,,,,,,,,,,,,,,,,,,2019_Sep_24_1754,60.1909256158726,Cloud_Experiment_FR_REAL,001,50,
images/fcloud65-35_D1_7.tif,1.0,1,,,,,,,,,,,,,0,136,136,56,,,,,,,,,,,None,None,,None,24.43,,,,,,,,,,,,,,,,,,2019_Sep_24_1754,60.1909256158726,Cloud_Experiment_FR_REAL,001,50,
images/fcloud80-20_D1.2_9.tif,1.2,2,,,,,,,,,,,,,0,137,137,114,,,,,,,,,,,1,space,3.896285,1,0.486,,,,,,,,,,,,,,,,,,2019_Sep_24_1754,60.1909256158726,Cloud_Experiment_FR_REAL,001,50,
images/fcloud65-35_D1.6_8.tif,1.6,1,,,,,,,,,,,,,0,138,138,81,,,,,,,,,,,1,space,6.81485380001,2,1.017,,,,,,,,,,,,,,,,,,2019_Sep_24_1754,60.1909256158726,Cloud_Experiment_FR_REAL,001,50,
images/fcloud_D1.8_9.tif,1.8,0,,,,,,,,,,,,,0,139,139,42,,,,,,,,,,,1,space,5.2283573,1,0.519,,,,,,,,,,,,,,,,,,2019_Sep_24_1754,60.1909256158726,Cloud_Experiment_FR_REAL,001,50,
images/fcloud65-35_D1.4_7.tif,1.4,1,,,,,,,,,,,,,0,140,140,72,,,,,,,,,,,None,None,,None,8.994,,,,,,,,,,,,,,,,,,2019_Sep_24_1754,60.1909256158726,Cloud_Experiment_FR_REAL,001,50,
images/fcloud80-20_D0.9_8.tif,0.9,2,,,,,,,,,,,,,0,141,141,101,,,,,,,,,,,1,space,6.77704,2,0.537,,,,,,,,,,,,,,,,,,2019_Sep_24_1754,60.1909256158726,Cloud_Experiment_FR_REAL,001,50,
images/fcloud65-35_D1_10.tif,1.0,1,,,,,,,,,,,,,0,142,142,59,,,,,,,,,,,1,space,2.31321790001,4,0.502,,,,,,,,,,,,,,,,,,2019_Sep_24_1754,60.1909256158726,Cloud_Experiment_FR_REAL,001,50,
images/fcloud80-20_D1.7_9.tif,1.7,2,,,,,,,,,,,,,0,143,143,134,,,,,,,,,,,None,None,,None,9.661,,,,,,,,,,,,,,,,,,2019_Sep_24_1754,60.1909256158726,Cloud_Experiment_FR_REAL,001,50,
,,,,,,,,,,,,,,,,,,,,,,,,,2,14.371,,,,,,,,,,,,,,,,,,,,,,,,,2019_Sep_24_1754,60.1909256158726,Cloud_Experiment_FR_REAL,001,50,
,,,,,,,,,,,,,,,,,,,,,,,,,,,,,,,,,,4,,,,,,,,,,,,,,,,,2019_Sep_24_1754,60.1909256158726,Cloud_Experiment_FR_REAL,001,50,
,,,,,,,,,,,,,,,,,,,,,,,,,,,,,,,,,,,4,,,,,,,,,,,,,,,,2019_Sep_24_1754,60.1909256158726,Cloud_Experiment_FR_REAL,001,50,
,,,,,,,,,,,,,,,,,,,,,,,,,,,,,,,,,,,,2,,,,,,,,,,,,,,,2019_Sep_24_1754,60.1909256158726,Cloud_Experiment_FR_REAL,001,50,
,,,,,,,,,,,,,,,,,,,,,,,,,,,,,,,,,,,,,5,,,,,,,,,,,,,,2019_Sep_24_1754,60.1909256158726,Cloud_Experiment_FR_REAL,001,50,
,,,,,,,,,,,,,,,,,,,,,,,,,,,,,,,,,,,,,,4,,,,,,,,,,,,,2019_Sep_24_1754,60.1909256158726,Cloud_Experiment_FR_REAL,001,50,
,,,,,,,,,,,,,,,,,,,,,,,,,,,,,,,,,,,,,,,5,,,,,,,,,,,,2019_Sep_24_1754,60.1909256158726,Cloud_Experiment_FR_REAL,001,50,
,,,,,,,,,,,,,,,,,,,,,,,,,,,,,,,,,,,,,,,,6,,,,,,,,,,,2019_Sep_24_1754,60.1909256158726,Cloud_Experiment_FR_REAL,001,50,
,,,,,,,,,,,,,,,,,,,,,,,,,,,,,,,,,,,,,,,,,7,,,,,,,,,,2019_Sep_24_1754,60.1909256158726,Cloud_Experiment_FR_REAL,001,50,
,,,,,,,,,,,,,,,,,,,,,,,,,,,,,,,,,,,,,,,,,,6,,,,,,,,,2019_Sep_24_1754,60.1909256158726,Cloud_Experiment_FR_REAL,001,50,
,,,,,,,,,,,,,,,,,,,,,,,,,,,,,,,,,,,,,,,,,,,4,,,,,,,,2019_Sep_24_1754,60.1909256158726,Cloud_Experiment_FR_REAL,001,50,
,,,,,,,,,,,,,,,,,,,,,,,,,,,,,,,,,,,,,,,,,,,,,,,,,,2,2019_Sep_24_1754,60.1909256158726,Cloud_Experiment_FR_REAL,001,50,
