ImageFile,FD,Contrast,trials_4.thisRepN,trials_4.thisTrialN,trials_4.thisN,trials_4.thisIndex,trials.thisRepN,trials.thisTrialN,trials.thisN,trials.thisIndex,trials_2.thisRepN,trials_2.thisTrialN,trials_2.thisN,trials_2.thisIndex,trials_3.thisRepN,trials_3.thisTrialN,trials_3.thisN,trials_3.thisIndex,end_instructions.keys,end_instructions.rt,key_resp_4.keys,key_resp_4.rt,key_resp_6.keys,key_resp_6.rt,Fatigue.response,Fatigue.rt,key_resp_5.keys,key_resp_5.rt,n_objets.response,reaction_time.keys,reaction_time.rt,vividness.response,vividness.rt,Flow01.response,Flow02.response,Flow03.response,Flow04.response,Flow05.response,Flow06.response,Flow07.response,Flow08.response,Flow09.response,Flow10.response,key_resp_2.keys,key_resp_2.rt,key_resp_8.keys,key_resp_8.rt,key_resp_3.keys,key_resp_3.rt,Redondance_question.response,date,frameRate,expName,session,participant,
,,,,,,,,,,,,,,,,,,,space,389.8385758,,,,,,,,,,,,,,,,,,,,,,,,,,,,,,,2019_Sep_27_1135,59.613904582999865,Cloud_Experiment_FR_REAL,001,51,
,,,,,,,,,,,,,,,,,,,,,space,95.3697671,,,,,,,,,,,,,,,,,,,,,,,,,,,,,2019_Sep_27_1135,59.613904582999865,Cloud_Experiment_FR_REAL,001,51,
,,,,,,,,,,,,,,,,,,,,,,,space,41.481859,,,,,,,,,,,,,,,,,,,,,,,,,,,2019_Sep_27_1135,59.613904582999865,Cloud_Experiment_FR_REAL,001,51,
,,,,,,,,,,,,,,,,,,,,,,,,,4,18.515,,,,,,,,,,,,,,,,,,,,,,,,,2019_Sep_27_1135,59.613904582999865,Cloud_Experiment_FR_REAL,001,51,
,,,,,,,,,,,,,,,,,,,,,,,,,,,space,9.97706809999,,,,,,,,,,,,,,,,,,,,,,,2019_Sep_27_1135,59.613904582999865,Cloud_Experiment_FR_REAL,001,51,
pratique/fcloud65-35_D1.3_30,1.3,1,0,0,0,6,,,,,,,,,,,,,,,,,,,,,,,1,space,19.1639773,2,20.719,,,,,,,,,,,,,,,,,,2019_Sep_27_1135,59.613904582999865,Cloud_Experiment_FR_REAL,001,51,
pratique/fcloud65-35_D1.2_30,1.2,1,0,1,1,3,,,,,,,,,,,,,,,,,,,,,,,1,space,3.89372360001,2,9.844,,,,,,,,,,,,,,,,,,2019_Sep_27_1135,59.613904582999865,Cloud_Experiment_FR_REAL,001,51,
pratique/fcloud_D1.4_30,1.4,0,0,2,2,1,,,,,,,,,,,,,,,,,,,,,,,2,space,4.7523676,3,6.398,,,,,,,,,,,,,,,,,,2019_Sep_27_1135,59.613904582999865,Cloud_Experiment_FR_REAL,001,51,
pratique/fcloud_D0.8_30,0.8,0,0,3,3,0,,,,,,,,,,,,,,,,,,,,,,,3,space,2.3038728,3,3.766,,,,,,,,,,,,,,,,,,2019_Sep_27_1135,59.613904582999865,Cloud_Experiment_FR_REAL,001,51,
pratique/fcloud80-20_D1.8_30,1.8,2,0,4,4,4,,,,,,,,,,,,,,,,,,,,,,,1,space,5.0824669,1,3.533,,,,,,,,,,,,,,,,,,2019_Sep_27_1135,59.613904582999865,Cloud_Experiment_FR_REAL,001,51,
pratique/fcloud65-35_D1.9_29,1.9,1,0,5,5,7,,,,,,,,,,,,,,,,,,,,,,,None,None,,None,13.707,,,,,,,,,,,,,,,,,,2019_Sep_27_1135,59.613904582999865,Cloud_Experiment_FR_REAL,001,51,
pratique/fcloud_D1.6_28,1.6,0,0,6,6,5,,,,,,,,,,,,,,,,,,,,,,,1,None,,1,3.265,,,,,,,,,,,,,,,,,,2019_Sep_27_1135,59.613904582999865,Cloud_Experiment_FR_REAL,001,51,
pratique/fcloud65-35_D1.6_30,1.6,1,0,7,7,2,,,,,,,,,,,,,,,,,,,,,,,None,None,,None,14.006,,,,,,,,,,,,,,,,,,2019_Sep_27_1135,59.613904582999865,Cloud_Experiment_FR_REAL,001,51,
pratique/fcloud80-20_D1.5_30,1.5,2,0,8,8,8,,,,,,,,,,,,,,,,,,,,,,,1,space,6.6737351,2,1.867,,,,,,,,,,,,,,,,,,2019_Sep_27_1135,59.613904582999865,Cloud_Experiment_FR_REAL,001,51,
pratique/fcloud80-20_D1_30,1.0,2,0,9,9,9,,,,,,,,,,,,,,,,,,,,,,,3,space,1.99879149999,2,3.232,,,,,,,,,,,,,,,,,,2019_Sep_27_1135,59.613904582999865,Cloud_Experiment_FR_REAL,001,51,
,,,,,,,,,,,,,,,,,,,,,,,,,,,,,,,,,,4,,,,,,,,,,,,,,,,,2019_Sep_27_1135,59.613904582999865,Cloud_Experiment_FR_REAL,001,51,
,,,,,,,,,,,,,,,,,,,,,,,,,,,,,,,,,,,3,,,,,,,,,,,,,,,,2019_Sep_27_1135,59.613904582999865,Cloud_Experiment_FR_REAL,001,51,
,,,,,,,,,,,,,,,,,,,,,,,,,,,,,,,,,,,,5,,,,,,,,,,,,,,,2019_Sep_27_1135,59.613904582999865,Cloud_Experiment_FR_REAL,001,51,
,,,,,,,,,,,,,,,,,,,,,,,,,,,,,,,,,,,,,4,,,,,,,,,,,,,,2019_Sep_27_1135,59.613904582999865,Cloud_Experiment_FR_REAL,001,51,
,,,,,,,,,,,,,,,,,,,,,,,,,,,,,,,,,,,,,,2,,,,,,,,,,,,,2019_Sep_27_1135,59.613904582999865,Cloud_Experiment_FR_REAL,001,51,
,,,,,,,,,,,,,,,,,,,,,,,,,,,,,,,,,,,,,,,4,,,,,,,,,,,,2019_Sep_27_1135,59.613904582999865,Cloud_Experiment_FR_REAL,001,51,
,,,,,,,,,,,,,,,,,,,,,,,,,,,,,,,,,,,,,,,,3,,,,,,,,,,,2019_Sep_27_1135,59.613904582999865,Cloud_Experiment_FR_REAL,001,51,
,,,,,,,,,,,,,,,,,,,,,,,,,,,,,,,,,,,,,,,,,5,,,,,,,,,,2019_Sep_27_1135,59.613904582999865,Cloud_Experiment_FR_REAL,001,51,
,,,,,,,,,,,,,,,,,,,,,,,,,,,,,,,,,,,,,,,,,,4,,,,,,,,,2019_Sep_27_1135,59.613904582999865,Cloud_Experiment_FR_REAL,001,51,
,,,,,,,,,,,,,,,,,,,,,,,,,,,,,,,,,,,,,,,,,,,5,,,,,,,,2019_Sep_27_1135,59.613904582999865,Cloud_Experiment_FR_REAL,001,51,
,,,,,,,,,,,,,,,,,,,,,,,,,,,,,,,,,,,,,,,,,,,,space,2.250564,,,,,,2019_Sep_27_1135,59.613904582999865,Cloud_Experiment_FR_REAL,001,51,
images/fcloud80-20_D1.2_3.tif,1.2,2,,,,,0,0,0,86,,,,,,,,,,,,,,,,,,,2,space,2.7636142,3,3.833,,,,,,,,,,,,,,,,,,2019_Sep_27_1135,59.613904582999865,Cloud_Experiment_FR_REAL,001,51,
images/fcloud80-20_D1_3.tif,1.0,2,,,,,0,1,1,80,,,,,,,,,,,,,,,,,,,1,space,4.4384516,1,1.585,,,,,,,,,,,,,,,,,,2019_Sep_27_1135,59.613904582999865,Cloud_Experiment_FR_REAL,001,51,
images/fcloud80-20_D1.5_3.tif,1.5,2,,,,,0,2,2,95,,,,,,,,,,,,,,,,,,,2,space,3.9175448,3,2.601,,,,,,,,,,,,,,,,,,2019_Sep_27_1135,59.613904582999865,Cloud_Experiment_FR_REAL,001,51,
images/fcloud_D0.9_2.tif,0.9,0,,,,,0,3,3,4,,,,,,,,,,,,,,,,,,,3,space,1.84895870001,4,6.248,,,,,,,,,,,,,,,,,,2019_Sep_27_1135,59.613904582999865,Cloud_Experiment_FR_REAL,001,51,
images/fcloud80-20_D1_2.tif,1.0,2,,,,,0,4,4,79,,,,,,,,,,,,,,,,,,,2,space,4.8391036,2,2.484,,,,,,,,,,,,,,,,,,2019_Sep_27_1135,59.613904582999865,Cloud_Experiment_FR_REAL,001,51,
images/fcloud80-20_D1.6_1.tif,1.6,2,,,,,0,5,5,96,,,,,,,,,,,,,,,,,,,1,space,5.3588148,2,3.001,,,,,,,,,,,,,,,,,,2019_Sep_27_1135,59.613904582999865,Cloud_Experiment_FR_REAL,001,51,
images/fcloud65-35_D1.8_1.tif,1.8,1,,,,,0,6,6,66,,,,,,,,,,,,,,,,,,,1,space,5.11367460001,1,4.766,,,,,,,,,,,,,,,,,,2019_Sep_27_1135,59.613904582999865,Cloud_Experiment_FR_REAL,001,51,
images/fcloud65-35_D1.5_2.tif,1.5,1,,,,,0,7,7,58,,,,,,,,,,,,,,,,,,,2,space,5.01760219999,3,2.468,,,,,,,,,,,,,,,,,,2019_Sep_27_1135,59.613904582999865,Cloud_Experiment_FR_REAL,001,51,
images/fcloud80-20_D0.8_3.tif,0.8,2,,,,,0,8,8,74,,,,,,,,,,,,,,,,,,,1,space,5.96470900001,1,1.585,,,,,,,,,,,,,,,,,,2019_Sep_27_1135,59.613904582999865,Cloud_Experiment_FR_REAL,001,51,
images/fcloud65-35_D1.3_1.tif,1.3,1,,,,,0,9,9,51,,,,,,,,,,,,,,,,,,,1,space,4.3639142,4,3.25,,,,,,,,,,,,,,,,,,2019_Sep_27_1135,59.613904582999865,Cloud_Experiment_FR_REAL,001,51,
images/fcloud65-35_D1.9_1.tif,1.9,1,,,,,0,10,10,69,,,,,,,,,,,,,,,,,,,1,space,7.1051186,2,2.001,,,,,,,,,,,,,,,,,,2019_Sep_27_1135,59.613904582999865,Cloud_Experiment_FR_REAL,001,51,
images/fcloud80-20_D0.9_3.tif,0.9,2,,,,,0,11,11,77,,,,,,,,,,,,,,,,,,,1,space,4.62156489999,4,2.232,,,,,,,,,,,,,,,,,,2019_Sep_27_1135,59.613904582999865,Cloud_Experiment_FR_REAL,001,51,
images/fcloud80-20_D1.5_2.tif,1.5,2,,,,,0,12,12,94,,,,,,,,,,,,,,,,,,,1,space,7.38422969999,2,1.951,,,,,,,,,,,,,,,,,,2019_Sep_27_1135,59.613904582999865,Cloud_Experiment_FR_REAL,001,51,
images/fcloud80-20_D1.7_2.tif,1.7,2,,,,,0,13,13,100,,,,,,,,,,,,,,,,,,,None,None,,None,12.242,,,,,,,,,,,,,,,,,,2019_Sep_27_1135,59.613904582999865,Cloud_Experiment_FR_REAL,001,51,
images/fcloud65-35_D1.3_3.tif,1.3,1,,,,,0,14,14,53,,,,,,,,,,,,,,,,,,,None,space,8.0900749,None,22.449,,,,,,,,,,,,,,,,,,2019_Sep_27_1135,59.613904582999865,Cloud_Experiment_FR_REAL,001,51,
images/fcloud65-35_D1.1_3.tif,1.1,1,,,,,0,15,15,47,,,,,,,,,,,,,,,,,,,3,space,2.3636044,4,1.902,,,,,,,,,,,,,,,,,,2019_Sep_27_1135,59.613904582999865,Cloud_Experiment_FR_REAL,001,51,
images/fcloud_D1.7_2.tif,1.7,0,,,,,0,16,16,28,,,,,,,,,,,,,,,,,,,None,None,,None,11.576,,,,,,,,,,,,,,,,,,2019_Sep_27_1135,59.613904582999865,Cloud_Experiment_FR_REAL,001,51,
images/fcloud65-35_D1.8_2.tif,1.8,1,,,,,0,17,17,67,,,,,,,,,,,,,,,,,,,1,space,3.3069673,2,1.785,,,,,,,,,,,,,,,,,,2019_Sep_27_1135,59.613904582999865,Cloud_Experiment_FR_REAL,001,51,
images/fcloud_D1.5_1.tif,1.5,0,,,,,0,18,18,21,,,,,,,,,,,,,,,,,,,2,space,5.1522997,1,1.569,,,,,,,,,,,,,,,,,,2019_Sep_27_1135,59.613904582999865,Cloud_Experiment_FR_REAL,001,51,
images/fcloud_D1.3_1.tif,1.3,0,,,,,0,19,19,15,,,,,,,,,,,,,,,,,,,None,None,,None,10.842,,,,,,,,,,,,,,,,,,2019_Sep_27_1135,59.613904582999865,Cloud_Experiment_FR_REAL,001,51,
images/fcloud80-20_D1.2_2.tif,1.2,2,,,,,0,20,20,85,,,,,,,,,,,,,,,,,,,2,space,3.7678643,2,1.735,,,,,,,,,,,,,,,,,,2019_Sep_27_1135,59.613904582999865,Cloud_Experiment_FR_REAL,001,51,
images/fcloud65-35_D1.6_2.tif,1.6,1,,,,,0,21,21,61,,,,,,,,,,,,,,,,,,,None,None,,None,11.143,,,,,,,,,,,,,,,,,,2019_Sep_27_1135,59.613904582999865,Cloud_Experiment_FR_REAL,001,51,
images/fcloud_D1.7_1.tif,1.7,0,,,,,0,22,22,27,,,,,,,,,,,,,,,,,,,1,space,5.93285699999,1,1.218,,,,,,,,,,,,,,,,,,2019_Sep_27_1135,59.613904582999865,Cloud_Experiment_FR_REAL,001,51,
images/fcloud65-35_D1.8_3.tif,1.8,1,,,,,0,23,23,68,,,,,,,,,,,,,,,,,,,1,space,6.5033258,3,1.136,,,,,,,,,,,,,,,,,,2019_Sep_27_1135,59.613904582999865,Cloud_Experiment_FR_REAL,001,51,
images/fcloud_D1.1_3.tif,1.1,0,,,,,0,24,24,11,,,,,,,,,,,,,,,,,,,2,space,3.7332187,2,4.083,,,,,,,,,,,,,,,,,,2019_Sep_27_1135,59.613904582999865,Cloud_Experiment_FR_REAL,001,51,
images/fcloud_D1.8_3.tif,1.8,0,,,,,0,25,25,32,,,,,,,,,,,,,,,,,,,2,space,4.92172660001,3,1.768,,,,,,,,,,,,,,,,,,2019_Sep_27_1135,59.613904582999865,Cloud_Experiment_FR_REAL,001,51,
images/fcloud80-20_D1.7_1.tif,1.7,2,,,,,0,26,26,99,,,,,,,,,,,,,,,,,,,1,space,1.9597415,4,1.602,,,,,,,,,,,,,,,,,,2019_Sep_27_1135,59.613904582999865,Cloud_Experiment_FR_REAL,001,51,
images/fcloud_D0.8_3.tif,0.8,0,,,,,0,27,27,2,,,,,,,,,,,,,,,,,,,2,space,2.1062579,4,1.835,,,,,,,,,,,,,,,,,,2019_Sep_27_1135,59.613904582999865,Cloud_Experiment_FR_REAL,001,51,
images/fcloud65-35_D1.1_1.tif,1.1,1,,,,,0,28,28,45,,,,,,,,,,,,,,,,,,,2,space,2.4507196,3,2.251,,,,,,,,,,,,,,,,,,2019_Sep_27_1135,59.613904582999865,Cloud_Experiment_FR_REAL,001,51,
images/fcloud65-35_D1_3.tif,1.0,1,,,,,0,29,29,44,,,,,,,,,,,,,,,,,,,None,None,,None,12.175,,,,,,,,,,,,,,,,,,2019_Sep_27_1135,59.613904582999865,Cloud_Experiment_FR_REAL,001,51,
images/fcloud_D1.5_3.tif,1.5,0,,,,,0,30,30,23,,,,,,,,,,,,,,,,,,,1,space,2.98467559999,2,1.352,,,,,,,,,,,,,,,,,,2019_Sep_27_1135,59.613904582999865,Cloud_Experiment_FR_REAL,001,51,
images/fcloud_D1.3_2.tif,1.3,0,,,,,0,31,31,16,,,,,,,,,,,,,,,,,,,2,space,3.0609994,4,1.735,,,,,,,,,,,,,,,,,,2019_Sep_27_1135,59.613904582999865,Cloud_Experiment_FR_REAL,001,51,
images/fcloud_D1.8_2.tif,1.8,0,,,,,0,32,32,31,,,,,,,,,,,,,,,,,,,1,space,4.39853329999,4,1.518,,,,,,,,,,,,,,,,,,2019_Sep_27_1135,59.613904582999865,Cloud_Experiment_FR_REAL,001,51,
images/fcloud65-35_D1.1_2.tif,1.1,1,,,,,0,33,33,46,,,,,,,,,,,,,,,,,,,1,space,5.0423873,4,1.386,,,,,,,,,,,,,,,,,,2019_Sep_27_1135,59.613904582999865,Cloud_Experiment_FR_REAL,001,51,
images/fcloud65-35_D1.2_2.tif,1.2,1,,,,,0,34,34,49,,,,,,,,,,,,,,,,,,,2,space,4.40815229999,3,2.401,,,,,,,,,,,,,,,,,,2019_Sep_27_1135,59.613904582999865,Cloud_Experiment_FR_REAL,001,51,
images/fcloud_D0.9_1.tif,0.9,0,,,,,0,35,35,3,,,,,,,,,,,,,,,,,,,1,space,4.33367930001,1,1.135,,,,,,,,,,,,,,,,,,2019_Sep_27_1135,59.613904582999865,Cloud_Experiment_FR_REAL,001,51,
images/fcloud_D1.4_2.tif,1.4,0,,,,,0,36,36,19,,,,,,,,,,,,,,,,,,,None,None,,None,10.859,,,,,,,,,,,,,,,,,,2019_Sep_27_1135,59.613904582999865,Cloud_Experiment_FR_REAL,001,51,
images/fcloud80-20_D0.8_1.tif,0.8,2,,,,,0,37,37,72,,,,,,,,,,,,,,,,,,,None,None,,None,19.819,,,,,,,,,,,,,,,,,,2019_Sep_27_1135,59.613904582999865,Cloud_Experiment_FR_REAL,001,51,
images/fcloud80-20_D1.8_1.tif,1.8,2,,,,,0,38,38,102,,,,,,,,,,,,,,,,,,,2,space,4.5072128,3,2.201,,,,,,,,,,,,,,,,,,2019_Sep_27_1135,59.613904582999865,Cloud_Experiment_FR_REAL,001,51,
images/fcloud_D1.1_1.tif,1.1,0,,,,,0,39,39,9,,,,,,,,,,,,,,,,,,,None,None,,None,12.491,,,,,,,,,,,,,,,,,,2019_Sep_27_1135,59.613904582999865,Cloud_Experiment_FR_REAL,001,51,
images/fcloud65-35_D0.9_1.tif,0.9,1,,,,,0,40,40,39,,,,,,,,,,,,,,,,,,,None,None,,None,22.483,,,,,,,,,,,,,,,,,,2019_Sep_27_1135,59.613904582999865,Cloud_Experiment_FR_REAL,001,51,
images/fcloud_D1.3_3.tif,1.3,0,,,,,0,41,41,17,,,,,,,,,,,,,,,,,,,2,space,4.38484160001,3,1.618,,,,,,,,,,,,,,,,,,2019_Sep_27_1135,59.613904582999865,Cloud_Experiment_FR_REAL,001,51,
images/fcloud_D1.8_1.tif,1.8,0,,,,,0,42,42,30,,,,,,,,,,,,,,,,,,,None,None,,None,11.858,,,,,,,,,,,,,,,,,,2019_Sep_27_1135,59.613904582999865,Cloud_Experiment_FR_REAL,001,51,
images/fcloud65-35_D1.5_1.tif,1.5,1,,,,,0,43,43,57,,,,,,,,,,,,,,,,,,,1,space,2.44585230001,4,3.917,,,,,,,,,,,,,,,,,,2019_Sep_27_1135,59.613904582999865,Cloud_Experiment_FR_REAL,001,51,
images/fcloud80-20_D1.8_2.tif,1.8,2,,,,,0,44,44,103,,,,,,,,,,,,,,,,,,,1,space,5.4100201,3,1.985,,,,,,,,,,,,,,,,,,2019_Sep_27_1135,59.613904582999865,Cloud_Experiment_FR_REAL,001,51,
images/fcloud65-35_D0.8_1.tif,0.8,1,,,,,0,45,45,36,,,,,,,,,,,,,,,,,,,None,None,,None,11.908,,,,,,,,,,,,,,,,,,2019_Sep_27_1135,59.613904582999865,Cloud_Experiment_FR_REAL,001,51,
images/fcloud65-35_D0.9_3.tif,0.9,1,,,,,0,46,46,41,,,,,,,,,,,,,,,,,,,None,None,,None,21.401,,,,,,,,,,,,,,,,,,2019_Sep_27_1135,59.613904582999865,Cloud_Experiment_FR_REAL,001,51,
images/fcloud80-20_D1.6_2.tif,1.6,2,,,,,0,47,47,97,,,,,,,,,,,,,,,,,,,1,space,3.7860738,2,3.167,,,,,,,,,,,,,,,,,,2019_Sep_27_1135,59.613904582999865,Cloud_Experiment_FR_REAL,001,51,
images/fcloud65-35_D1.6_3.tif,1.6,1,,,,,0,48,48,62,,,,,,,,,,,,,,,,,,,1,space,7.5839285,1,1.569,,,,,,,,,,,,,,,,,,2019_Sep_27_1135,59.613904582999865,Cloud_Experiment_FR_REAL,001,51,
images/fcloud80-20_D0.9_1.tif,0.9,2,,,,,0,49,49,75,,,,,,,,,,,,,,,,,,,2,space,4.27422940001,3,1.502,,,,,,,,,,,,,,,,,,2019_Sep_27_1135,59.613904582999865,Cloud_Experiment_FR_REAL,001,51,
images/fcloud_D1.6_2.tif,1.6,0,,,,,0,50,50,25,,,,,,,,,,,,,,,,,,,2,space,2.4398791,4,1.069,,,,,,,,,,,,,,,,,,2019_Sep_27_1135,59.613904582999865,Cloud_Experiment_FR_REAL,001,51,
images/fcloud65-35_D1_2.tif,1.0,1,,,,,0,51,51,43,,,,,,,,,,,,,,,,,,,1,space,2.9083499,4,3.6,,,,,,,,,,,,,,,,,,2019_Sep_27_1135,59.613904582999865,Cloud_Experiment_FR_REAL,001,51,
images/fcloud65-35_D1.2_3.tif,1.2,1,,,,,0,52,52,50,,,,,,,,,,,,,,,,,,,1,space,1.60587110001,5,0.869,,,,,,,,,,,,,,,,,,2019_Sep_27_1135,59.613904582999865,Cloud_Experiment_FR_REAL,001,51,
images/fcloud_D1.9_3.tif,1.9,0,,,,,0,53,53,35,,,,,,,,,,,,,,,,,,,None,None,,None,10.394,,,,,,,,,,,,,,,,,,2019_Sep_27_1135,59.613904582999865,Cloud_Experiment_FR_REAL,001,51,
images/fcloud_D1_1.tif,1.0,0,,,,,0,54,54,6,,,,,,,,,,,,,,,,,,,None,None,,None,20.051,,,,,,,,,,,,,,,,,,2019_Sep_27_1135,59.613904582999865,Cloud_Experiment_FR_REAL,001,51,
images/fcloud_D1_2.tif,1.0,0,,,,,0,55,55,7,,,,,,,,,,,,,,,,,,,None,None,,None,30.092,,,,,,,,,,,,,,,,,,2019_Sep_27_1135,59.613904582999865,Cloud_Experiment_FR_REAL,001,51,
images/fcloud_D1.7_3.tif,1.7,0,,,,,0,56,56,29,,,,,,,,,,,,,,,,,,,1,space,7.33918709999,1,1.952,,,,,,,,,,,,,,,,,,2019_Sep_27_1135,59.613904582999865,Cloud_Experiment_FR_REAL,001,51,
images/fcloud_D1.9_2.tif,1.9,0,,,,,0,57,57,34,,,,,,,,,,,,,,,,,,,None,None,,None,13.374,,,,,,,,,,,,,,,,,,2019_Sep_27_1135,59.613904582999865,Cloud_Experiment_FR_REAL,001,51,
images/fcloud65-35_D1.7_3.tif,1.7,1,,,,,0,58,58,65,,,,,,,,,,,,,,,,,,,1,space,6.8924636,1,2.218,,,,,,,,,,,,,,,,,,2019_Sep_27_1135,59.613904582999865,Cloud_Experiment_FR_REAL,001,51,
images/fcloud80-20_D1.6_3.tif,1.6,2,,,,,0,59,59,98,,,,,,,,,,,,,,,,,,,1,space,2.94979890001,3,1.552,,,,,,,,,,,,,,,,,,2019_Sep_27_1135,59.613904582999865,Cloud_Experiment_FR_REAL,001,51,
images/fcloud65-35_D0.9_2.tif,0.9,1,,,,,0,60,60,40,,,,,,,,,,,,,,,,,,,1,space,6.8713848,1,1.236,,,,,,,,,,,,,,,,,,2019_Sep_27_1135,59.613904582999865,Cloud_Experiment_FR_REAL,001,51,
images/fcloud65-35_D1.4_1.tif,1.4,1,,,,,0,61,61,54,,,,,,,,,,,,,,,,,,,None,None,,None,10.643,,,,,,,,,,,,,,,,,,2019_Sep_27_1135,59.613904582999865,Cloud_Experiment_FR_REAL,001,51,
images/fcloud80-20_D1.2_1.tif,1.2,2,,,,,0,62,62,84,,,,,,,,,,,,,,,,,,,None,None,,None,19.334,,,,,,,,,,,,,,,,,,2019_Sep_27_1135,59.613904582999865,Cloud_Experiment_FR_REAL,001,51,
images/fcloud80-20_D0.8_2.tif,0.8,2,,,,,0,63,63,73,,,,,,,,,,,,,,,,,,,1,space,7.085534,1,1.118,,,,,,,,,,,,,,,,,,2019_Sep_27_1135,59.613904582999865,Cloud_Experiment_FR_REAL,001,51,
images/fcloud80-20_D1.4_3.tif,1.4,2,,,,,0,64,64,92,,,,,,,,,,,,,,,,,,,None,None,,None,11.009,,,,,,,,,,,,,,,,,,2019_Sep_27_1135,59.613904582999865,Cloud_Experiment_FR_REAL,001,51,
images/fcloud65-35_D1.6_1.tif,1.6,1,,,,,0,65,65,60,,,,,,,,,,,,,,,,,,,1,space,5.9088301,1,1.335,,,,,,,,,,,,,,,,,,2019_Sep_27_1135,59.613904582999865,Cloud_Experiment_FR_REAL,001,51,
images/fcloud80-20_D1.1_2.tif,1.1,2,,,,,0,66,66,82,,,,,,,,,,,,,,,,,,,3,space,2.5021731,4,2.218,,,,,,,,,,,,,,,,,,2019_Sep_27_1135,59.613904582999865,Cloud_Experiment_FR_REAL,001,51,
images/fcloud65-35_D1.3_2.tif,1.3,1,,,,,0,67,67,52,,,,,,,,,,,,,,,,,,,1,space,1.7892082,5,1.419,,,,,,,,,,,,,,,,,,2019_Sep_27_1135,59.613904582999865,Cloud_Experiment_FR_REAL,001,51,
images/fcloud80-20_D1.3_3.tif,1.3,2,,,,,0,68,68,89,,,,,,,,,,,,,,,,,,,None,None,,None,10.56,,,,,,,,,,,,,,,,,,2019_Sep_27_1135,59.613904582999865,Cloud_Experiment_FR_REAL,001,51,
images/fcloud80-20_D1.4_1.tif,1.4,2,,,,,0,69,69,90,,,,,,,,,,,,,,,,,,,1,space,4.10846649999,1,1.252,,,,,,,,,,,,,,,,,,2019_Sep_27_1135,59.613904582999865,Cloud_Experiment_FR_REAL,001,51,
images/fcloud_D0.8_1.tif,0.8,0,,,,,0,70,70,0,,,,,,,,,,,,,,,,,,,1,space,6.3585605,3,6.629,,,,,,,,,,,,,,,,,,2019_Sep_27_1135,59.613904582999865,Cloud_Experiment_FR_REAL,001,51,
images/fcloud65-35_D1.2_1.tif,1.2,1,,,,,0,71,71,48,,,,,,,,,,,,,,,,,,,1,None,,1,3.317,,,,,,,,,,,,,,,,,,2019_Sep_27_1135,59.613904582999865,Cloud_Experiment_FR_REAL,001,51,
images/fcloud80-20_D1.5_1.tif,1.5,2,,,,,0,72,72,93,,,,,,,,,,,,,,,,,,,None,None,,None,14.921,,,,,,,,,,,,,,,,,,2019_Sep_27_1135,59.613904582999865,Cloud_Experiment_FR_REAL,001,51,
images/fcloud80-20_D1.9_3.tif,1.9,2,,,,,0,73,73,107,,,,,,,,,,,,,,,,,,,2,space,2.33899820001,1,1.319,,,,,,,,,,,,,,,,,,2019_Sep_27_1135,59.613904582999865,Cloud_Experiment_FR_REAL,001,51,
images/fcloud80-20_D1.9_1.tif,1.9,2,,,,,0,74,74,105,,,,,,,,,,,,,,,,,,,None,None,,None,11.025,,,,,,,,,,,,,,,,,,2019_Sep_27_1135,59.613904582999865,Cloud_Experiment_FR_REAL,001,51,
images/fcloud80-20_D0.9_2.tif,0.9,2,,,,,0,75,75,76,,,,,,,,,,,,,,,,,,,1,space,4.27226689999,3,1.535,,,,,,,,,,,,,,,,,,2019_Sep_27_1135,59.613904582999865,Cloud_Experiment_FR_REAL,001,51,
images/fcloud65-35_D0.8_2.tif,0.8,1,,,,,0,76,76,37,,,,,,,,,,,,,,,,,,,None,None,,None,11.025,,,,,,,,,,,,,,,,,,2019_Sep_27_1135,59.613904582999865,Cloud_Experiment_FR_REAL,001,51,
images/fcloud_D1.4_3.tif,1.4,0,,,,,0,77,77,20,,,,,,,,,,,,,,,,,,,1,space,3.39338950001,2,1.317,,,,,,,,,,,,,,,,,,2019_Sep_27_1135,59.613904582999865,Cloud_Experiment_FR_REAL,001,51,
images/fcloud80-20_D1.7_3.tif,1.7,2,,,,,0,78,78,101,,,,,,,,,,,,,,,,,,,1,space,6.6857603,3,4.266,,,,,,,,,,,,,,,,,,2019_Sep_27_1135,59.613904582999865,Cloud_Experiment_FR_REAL,001,51,
images/fcloud65-35_D1.9_3.tif,1.9,1,,,,,0,79,79,71,,,,,,,,,,,,,,,,,,,2,space,2.46023859999,2,1.802,,,,,,,,,,,,,,,,,,2019_Sep_27_1135,59.613904582999865,Cloud_Experiment_FR_REAL,001,51,
images/fcloud65-35_D1.7_2.tif,1.7,1,,,,,0,80,80,64,,,,,,,,,,,,,,,,,,,2,space,3.1730718,3,1.884,,,,,,,,,,,,,,,,,,2019_Sep_27_1135,59.613904582999865,Cloud_Experiment_FR_REAL,001,51,
images/fcloud_D1.2_1.tif,1.2,0,,,,,0,81,81,12,,,,,,,,,,,,,,,,,,,1,space,5.4166964,1,1.369,,,,,,,,,,,,,,,,,,2019_Sep_27_1135,59.613904582999865,Cloud_Experiment_FR_REAL,001,51,
images/fcloud_D1.2_3.tif,1.2,0,,,,,0,82,82,14,,,,,,,,,,,,,,,,,,,None,None,,None,11.077,,,,,,,,,,,,,,,,,,2019_Sep_27_1135,59.613904582999865,Cloud_Experiment_FR_REAL,001,51,
images/fcloud_D1.5_2.tif,1.5,0,,,,,0,83,83,22,,,,,,,,,,,,,,,,,,,1,space,7.3052728,1,1.252,,,,,,,,,,,,,,,,,,2019_Sep_27_1135,59.613904582999865,Cloud_Experiment_FR_REAL,001,51,
images/fcloud80-20_D1.9_2.tif,1.9,2,,,,,0,84,84,106,,,,,,,,,,,,,,,,,,,1,space,6.46423339999,2,3.866,,,,,,,,,,,,,,,,,,2019_Sep_27_1135,59.613904582999865,Cloud_Experiment_FR_REAL,001,51,
images/fcloud_D1_3.tif,1.0,0,,,,,0,85,85,8,,,,,,,,,,,,,,,,,,,None,None,,None,14.106,,,,,,,,,,,,,,,,,,2019_Sep_27_1135,59.613904582999865,Cloud_Experiment_FR_REAL,001,51,
images/fcloud_D1.6_3.tif,1.6,0,,,,,0,86,86,26,,,,,,,,,,,,,,,,,,,None,space,7.4435106,None,23.499,,,,,,,,,,,,,,,,,,2019_Sep_27_1135,59.613904582999865,Cloud_Experiment_FR_REAL,001,51,
images/fcloud_D0.8_2.tif,0.8,0,,,,,0,87,87,1,,,,,,,,,,,,,,,,,,,3,space,6.40237700001,4,3.583,,,,,,,,,,,,,,,,,,2019_Sep_27_1135,59.613904582999865,Cloud_Experiment_FR_REAL,001,51,
images/fcloud80-20_D1.1_3.tif,1.1,2,,,,,0,88,88,83,,,,,,,,,,,,,,,,,,,None,None,,None,13.157,,,,,,,,,,,,,,,,,,2019_Sep_27_1135,59.613904582999865,Cloud_Experiment_FR_REAL,001,51,
images/fcloud_D1.6_1.tif,1.6,0,,,,,0,89,89,24,,,,,,,,,,,,,,,,,,,1,space,7.2676101,2,1.769,,,,,,,,,,,,,,,,,,2019_Sep_27_1135,59.613904582999865,Cloud_Experiment_FR_REAL,001,51,
images/fcloud65-35_D1.5_3.tif,1.5,1,,,,,0,90,90,59,,,,,,,,,,,,,,,,,,,1,space,6.68984949999,3,1.352,,,,,,,,,,,,,,,,,,2019_Sep_27_1135,59.613904582999865,Cloud_Experiment_FR_REAL,001,51,
images/fcloud_D1.1_2.tif,1.1,0,,,,,0,91,91,10,,,,,,,,,,,,,,,,,,,1,space,5.25175129999,4,1.685,,,,,,,,,,,,,,,,,,2019_Sep_27_1135,59.613904582999865,Cloud_Experiment_FR_REAL,001,51,
images/fcloud65-35_D0.8_3.tif,0.8,1,,,,,0,92,92,38,,,,,,,,,,,,,,,,,,,None,None,,None,13.807,,,,,,,,,,,,,,,,,,2019_Sep_27_1135,59.613904582999865,Cloud_Experiment_FR_REAL,001,51,
images/fcloud_D1.9_1.tif,1.9,0,,,,,0,93,93,33,,,,,,,,,,,,,,,,,,,None,None,,None,22.666,,,,,,,,,,,,,,,,,,2019_Sep_27_1135,59.613904582999865,Cloud_Experiment_FR_REAL,001,51,
images/fcloud65-35_D1.4_2.tif,1.4,1,,,,,0,94,94,55,,,,,,,,,,,,,,,,,,,1,space,3.2693059,3,1.052,,,,,,,,,,,,,,,,,,2019_Sep_27_1135,59.613904582999865,Cloud_Experiment_FR_REAL,001,51,
images/fcloud_D0.9_3.tif,0.9,0,,,,,0,95,95,5,,,,,,,,,,,,,,,,,,,None,None,,None,11.077,,,,,,,,,,,,,,,,,,2019_Sep_27_1135,59.613904582999865,Cloud_Experiment_FR_REAL,001,51,
images/fcloud65-35_D1_1.tif,1.0,1,,,,,0,96,96,42,,,,,,,,,,,,,,,,,,,1,space,6.1904206,2,1.868,,,,,,,,,,,,,,,,,,2019_Sep_27_1135,59.613904582999865,Cloud_Experiment_FR_REAL,001,51,
images/fcloud80-20_D1.8_3.tif,1.8,2,,,,,0,97,97,104,,,,,,,,,,,,,,,,,,,None,None,,None,11.175,,,,,,,,,,,,,,,,,,2019_Sep_27_1135,59.613904582999865,Cloud_Experiment_FR_REAL,001,51,
images/fcloud80-20_D1.3_1.tif,1.3,2,,,,,0,98,98,87,,,,,,,,,,,,,,,,,,,1,space,3.6396354,4,3.683,,,,,,,,,,,,,,,,,,2019_Sep_27_1135,59.613904582999865,Cloud_Experiment_FR_REAL,001,51,
images/fcloud80-20_D1.4_2.tif,1.4,2,,,,,0,99,99,91,,,,,,,,,,,,,,,,,,,1,space,4.14374039999,3,2.234,,,,,,,,,,,,,,,,,,2019_Sep_27_1135,59.613904582999865,Cloud_Experiment_FR_REAL,001,51,
images/fcloud65-35_D1.9_2.tif,1.9,1,,,,,0,100,100,70,,,,,,,,,,,,,,,,,,,None,None,,None,11.574,,,,,,,,,,,,,,,,,,2019_Sep_27_1135,59.613904582999865,Cloud_Experiment_FR_REAL,001,51,
images/fcloud_D1.4_1.tif,1.4,0,,,,,0,101,101,18,,,,,,,,,,,,,,,,,,,None,None,,None,20.9,,,,,,,,,,,,,,,,,,2019_Sep_27_1135,59.613904582999865,Cloud_Experiment_FR_REAL,001,51,
images/fcloud_D1.2_2.tif,1.2,0,,,,,0,102,102,13,,,,,,,,,,,,,,,,,,,1,space,2.55982149999,3,1.769,,,,,,,,,,,,,,,,,,2019_Sep_27_1135,59.613904582999865,Cloud_Experiment_FR_REAL,001,51,
images/fcloud80-20_D1_1.tif,1.0,2,,,,,0,103,103,78,,,,,,,,,,,,,,,,,,,None,None,,None,11.292,,,,,,,,,,,,,,,,,,2019_Sep_27_1135,59.613904582999865,Cloud_Experiment_FR_REAL,001,51,
images/fcloud65-35_D1.4_3.tif,1.4,1,,,,,0,104,104,56,,,,,,,,,,,,,,,,,,,1,space,5.4780755,4,0.986,,,,,,,,,,,,,,,,,,2019_Sep_27_1135,59.613904582999865,Cloud_Experiment_FR_REAL,001,51,
images/fcloud80-20_D1.1_1.tif,1.1,2,,,,,0,105,105,81,,,,,,,,,,,,,,,,,,,1,space,2.16275900001,4,3.314,,,,,,,,,,,,,,,,,,2019_Sep_27_1135,59.613904582999865,Cloud_Experiment_FR_REAL,001,51,
images/fcloud80-20_D1.3_2.tif,1.3,2,,,,,0,106,106,88,,,,,,,,,,,,,,,,,,,None,None,,None,12.957,,,,,,,,,,,,,,,,,,2019_Sep_27_1135,59.613904582999865,Cloud_Experiment_FR_REAL,001,51,
images/fcloud65-35_D1.7_1.tif,1.7,1,,,,,0,107,107,63,,,,,,,,,,,,,,,,,,,None,None,,None,22.232,,,,,,,,,,,,,,,,,,2019_Sep_27_1135,59.613904582999865,Cloud_Experiment_FR_REAL,001,51,
,,,,,,,,,,,,,,,,,,,,,,,,,,,,,,,,,,,,,,,,,,,,,,space,5.19742309999,,,,2019_Sep_27_1135,59.613904582999865,Cloud_Experiment_FR_REAL,001,51,
,,,,,,,,,,,,,,,,,,,,,,,,,4,14.914,,,,,,,,,,,,,,,,,,,,,,,,,2019_Sep_27_1135,59.613904582999865,Cloud_Experiment_FR_REAL,001,51,
,,,,,,,,,,,,,,,,,,,,,,,,,,,,,,,,,,3,,,,,,,,,,,,,,,,,2019_Sep_27_1135,59.613904582999865,Cloud_Experiment_FR_REAL,001,51,
,,,,,,,,,,,,,,,,,,,,,,,,,,,,,,,,,,,6,,,,,,,,,,,,,,,,2019_Sep_27_1135,59.613904582999865,Cloud_Experiment_FR_REAL,001,51,
,,,,,,,,,,,,,,,,,,,,,,,,,,,,,,,,,,,,4,,,,,,,,,,,,,,,2019_Sep_27_1135,59.613904582999865,Cloud_Experiment_FR_REAL,001,51,
,,,,,,,,,,,,,,,,,,,,,,,,,,,,,,,,,,,,,4,,,,,,,,,,,,,,2019_Sep_27_1135,59.613904582999865,Cloud_Experiment_FR_REAL,001,51,
,,,,,,,,,,,,,,,,,,,,,,,,,,,,,,,,,,,,,,5,,,,,,,,,,,,,2019_Sep_27_1135,59.613904582999865,Cloud_Experiment_FR_REAL,001,51,
,,,,,,,,,,,,,,,,,,,,,,,,,,,,,,,,,,,,,,,5,,,,,,,,,,,,2019_Sep_27_1135,59.613904582999865,Cloud_Experiment_FR_REAL,001,51,
,,,,,,,,,,,,,,,,,,,,,,,,,,,,,,,,,,,,,,,,6,,,,,,,,,,,2019_Sep_27_1135,59.613904582999865,Cloud_Experiment_FR_REAL,001,51,
,,,,,,,,,,,,,,,,,,,,,,,,,,,,,,,,,,,,,,,,,7,,,,,,,,,,2019_Sep_27_1135,59.613904582999865,Cloud_Experiment_FR_REAL,001,51,
,,,,,,,,,,,,,,,,,,,,,,,,,,,,,,,,,,,,,,,,,,4,,,,,,,,,2019_Sep_27_1135,59.613904582999865,Cloud_Experiment_FR_REAL,001,51,
,,,,,,,,,,,,,,,,,,,,,,,,,,,,,,,,,,,,,,,,,,,4,,,,,,,,2019_Sep_27_1135,59.613904582999865,Cloud_Experiment_FR_REAL,001,51,
,,,,,,,,,,,,,,,,,,,,,,,,,,,,,,,,,,,,,,,,,,,,,,,,space,17.8704694,,2019_Sep_27_1135,59.613904582999865,Cloud_Experiment_FR_REAL,001,51,
images/fcloud65-35_D0.9_4.tif,0.9,1,,,,,,,,,0,0,0,39,,,,,,,,,,,,,,,1,space,2.9736961,4,1.169,,,,,,,,,,,,,,,,,,2019_Sep_27_1135,59.613904582999865,Cloud_Experiment_FR_REAL,001,51,
images/fcloud_D1.3_4.tif,1.3,0,,,,,,,,,0,1,1,15,,,,,,,,,,,,,,,1,space,4.70597910001,4,1.268,,,,,,,,,,,,,,,,,,2019_Sep_27_1135,59.613904582999865,Cloud_Experiment_FR_REAL,001,51,
images/fcloud80-20_D1.5_4.tif,1.5,2,,,,,,,,,0,2,2,93,,,,,,,,,,,,,,,None,None,,None,13.455,,,,,,,,,,,,,,,,,,2019_Sep_27_1135,59.613904582999865,Cloud_Experiment_FR_REAL,001,51,
images/fcloud65-35_D1_5.tif,1.0,1,,,,,,,,,0,3,3,43,,,,,,,,,,,,,,,1,space,6.24925180001,1,1.085,,,,,,,,,,,,,,,,,,2019_Sep_27_1135,59.613904582999865,Cloud_Experiment_FR_REAL,001,51,
images/fcloud_D0.8_4.tif,0.8,0,,,,,,,,,0,4,4,0,,,,,,,,,,,,,,,1,space,2.3850077,1,1.769,,,,,,,,,,,,,,,,,,2019_Sep_27_1135,59.613904582999865,Cloud_Experiment_FR_REAL,001,51,
images/fcloud_D1.6_4.tif,1.6,0,,,,,,,,,0,5,5,24,,,,,,,,,,,,,,,1,space,2.0776243,3,3.084,,,,,,,,,,,,,,,,,,2019_Sep_27_1135,59.613904582999865,Cloud_Experiment_FR_REAL,001,51,
images/fcloud80-20_D1.2_6.tif,1.2,2,,,,,,,,,0,6,6,86,,,,,,,,,,,,,,,1,space,4.72093879999,4,1.702,,,,,,,,,,,,,,,,,,2019_Sep_27_1135,59.613904582999865,Cloud_Experiment_FR_REAL,001,51,
images/fcloud80-20_D1.8_6.tif,1.8,2,,,,,,,,,0,7,7,104,,,,,,,,,,,,,,,None,None,,None,11.108,,,,,,,,,,,,,,,,,,2019_Sep_27_1135,59.613904582999865,Cloud_Experiment_FR_REAL,001,51,
images/fcloud80-20_D1.9_4.tif,1.9,2,,,,,,,,,0,8,8,105,,,,,,,,,,,,,,,1,space,2.4604179,3,1.169,,,,,,,,,,,,,,,,,,2019_Sep_27_1135,59.613904582999865,Cloud_Experiment_FR_REAL,001,51,
images/fcloud65-35_D1_4.tif,1.0,1,,,,,,,,,0,9,9,42,,,,,,,,,,,,,,,None,None,,None,10.376,,,,,,,,,,,,,,,,,,2019_Sep_27_1135,59.613904582999865,Cloud_Experiment_FR_REAL,001,51,
images/fcloud_D1.8_5.tif,1.8,0,,,,,,,,,0,10,10,31,,,,,,,,,,,,,,,None,None,,None,19.767,,,,,,,,,,,,,,,,,,2019_Sep_27_1135,59.613904582999865,Cloud_Experiment_FR_REAL,001,51,
images/fcloud65-35_D1.8_4.tif,1.8,1,,,,,,,,,0,11,11,66,,,,,,,,,,,,,,,1,space,7.2594239,2,1.102,,,,,,,,,,,,,,,,,,2019_Sep_27_1135,59.613904582999865,Cloud_Experiment_FR_REAL,001,51,
images/fcloud80-20_D1.9_5.tif,1.9,2,,,,,,,,,0,12,12,106,,,,,,,,,,,,,,,1,space,7.18707890001,1,1.219,,,,,,,,,,,,,,,,,,2019_Sep_27_1135,59.613904582999865,Cloud_Experiment_FR_REAL,001,51,
images/fcloud80-20_D0.9_4.tif,0.9,2,,,,,,,,,0,13,13,75,,,,,,,,,,,,,,,None,None,,None,10.61,,,,,,,,,,,,,,,,,,2019_Sep_27_1135,59.613904582999865,Cloud_Experiment_FR_REAL,001,51,
images/fcloud80-20_D1_6.tif,1.0,2,,,,,,,,,0,14,14,80,,,,,,,,,,,,,,,None,None,,None,21.982,,,,,,,,,,,,,,,,,,2019_Sep_27_1135,59.613904582999865,Cloud_Experiment_FR_REAL,001,51,
images/fcloud_D1.3_6.tif,1.3,0,,,,,,,,,0,15,15,17,,,,,,,,,,,,,,,2,space,3.858098,1,1.119,,,,,,,,,,,,,,,,,,2019_Sep_27_1135,59.613904582999865,Cloud_Experiment_FR_REAL,001,51,
images/fcloud65-35_D1.9_6.tif,1.9,1,,,,,,,,,0,16,16,71,,,,,,,,,,,,,,,1,space,6.48580159999,2,2.118,,,,,,,,,,,,,,,,,,2019_Sep_27_1135,59.613904582999865,Cloud_Experiment_FR_REAL,001,51,
images/fcloud65-35_D1.2_5.tif,1.2,1,,,,,,,,,0,17,17,49,,,,,,,,,,,,,,,1,space,6.7513135,2,1.052,,,,,,,,,,,,,,,,,,2019_Sep_27_1135,59.613904582999865,Cloud_Experiment_FR_REAL,001,51,
images/fcloud80-20_D1.8_5.tif,1.8,2,,,,,,,,,0,18,18,103,,,,,,,,,,,,,,,2,space,2.2337278,3,1.335,,,,,,,,,,,,,,,,,,2019_Sep_27_1135,59.613904582999865,Cloud_Experiment_FR_REAL,001,51,
images/fcloud80-20_D0.8_5.tif,0.8,2,,,,,,,,,0,19,19,73,,,,,,,,,,,,,,,None,None,,None,10.576,,,,,,,,,,,,,,,,,,2019_Sep_27_1135,59.613904582999865,Cloud_Experiment_FR_REAL,001,51,
images/fcloud80-20_D1.4_6.tif,1.4,2,,,,,,,,,0,20,20,92,,,,,,,,,,,,,,,1,space,2.10862869999,5,1.435,,,,,,,,,,,,,,,,,,2019_Sep_27_1135,59.613904582999865,Cloud_Experiment_FR_REAL,001,51,
images/fcloud65-35_D1.6_5.tif,1.6,1,,,,,,,,,0,21,21,61,,,,,,,,,,,,,,,1,space,8.1444205,1,2.534,,,,,,,,,,,,,,,,,,2019_Sep_27_1135,59.613904582999865,Cloud_Experiment_FR_REAL,001,51,
images/fcloud80-20_D1.7_6.tif,1.7,2,,,,,,,,,0,22,22,101,,,,,,,,,,,,,,,1,space,4.4221564,1,1.436,,,,,,,,,,,,,,,,,,2019_Sep_27_1135,59.613904582999865,Cloud_Experiment_FR_REAL,001,51,
images/fcloud_D1.6_6.tif,1.6,0,,,,,,,,,0,23,23,26,,,,,,,,,,,,,,,None,None,,None,10.992,,,,,,,,,,,,,,,,,,2019_Sep_27_1135,59.613904582999865,Cloud_Experiment_FR_REAL,001,51,
images/fcloud80-20_D1_4.tif,1.0,2,,,,,,,,,0,24,24,78,,,,,,,,,,,,,,,1,space,5.99281339999,4,1.335,,,,,,,,,,,,,,,,,,2019_Sep_27_1135,59.613904582999865,Cloud_Experiment_FR_REAL,001,51,
images/fcloud65-35_D1.9_5.tif,1.9,1,,,,,,,,,0,25,25,70,,,,,,,,,,,,,,,None,None,,None,10.426,,,,,,,,,,,,,,,,,,2019_Sep_27_1135,59.613904582999865,Cloud_Experiment_FR_REAL,001,51,
images/fcloud_D0.8_5.tif,0.8,0,,,,,,,,,0,26,26,1,,,,,,,,,,,,,,,2,space,4.9731665,4,2.434,,,,,,,,,,,,,,,,,,2019_Sep_27_1135,59.613904582999865,Cloud_Experiment_FR_REAL,001,51,
images/fcloud80-20_D0.9_6.tif,0.9,2,,,,,,,,,0,27,27,77,,,,,,,,,,,,,,,None,None,,None,14.106,,,,,,,,,,,,,,,,,,2019_Sep_27_1135,59.613904582999865,Cloud_Experiment_FR_REAL,001,51,
images/fcloud80-20_D1.1_6.tif,1.1,2,,,,,,,,,0,28,28,83,,,,,,,,,,,,,,,None,None,,None,24.447,,,,,,,,,,,,,,,,,,2019_Sep_27_1135,59.613904582999865,Cloud_Experiment_FR_REAL,001,51,
images/fcloud_D1.8_6.tif,1.8,0,,,,,,,,,0,29,29,32,,,,,,,,,,,,,,,2,space,3.33724909999,1,2.851,,,,,,,,,,,,,,,,,,2019_Sep_27_1135,59.613904582999865,Cloud_Experiment_FR_REAL,001,51,
images/fcloud80-20_D1.9_6.tif,1.9,2,,,,,,,,,0,30,30,107,,,,,,,,,,,,,,,1,space,2.30078579999,1,1.268,,,,,,,,,,,,,,,,,,2019_Sep_27_1135,59.613904582999865,Cloud_Experiment_FR_REAL,001,51,
images/fcloud_D1.3_5.tif,1.3,0,,,,,,,,,0,31,31,16,,,,,,,,,,,,,,,2,space,3.0601277,4,1.169,,,,,,,,,,,,,,,,,,2019_Sep_27_1135,59.613904582999865,Cloud_Experiment_FR_REAL,001,51,
images/fcloud65-35_D1.3_4.tif,1.3,1,,,,,,,,,0,32,32,51,,,,,,,,,,,,,,,None,None,,None,13.374,,,,,,,,,,,,,,,,,,2019_Sep_27_1135,59.613904582999865,Cloud_Experiment_FR_REAL,001,51,
images/fcloud65-35_D1.7_6.tif,1.7,1,,,,,,,,,0,33,33,65,,,,,,,,,,,,,,,1,space,2.6156507,3,1.901,,,,,,,,,,,,,,,,,,2019_Sep_27_1135,59.613904582999865,Cloud_Experiment_FR_REAL,001,51,
images/fcloud65-35_D1.7_5.tif,1.7,1,,,,,,,,,0,34,34,64,,,,,,,,,,,,,,,1,space,1.63463060001,4,1.402,,,,,,,,,,,,,,,,,,2019_Sep_27_1135,59.613904582999865,Cloud_Experiment_FR_REAL,001,51,
images/fcloud_D1.1_5.tif,1.1,0,,,,,,,,,0,35,35,10,,,,,,,,,,,,,,,3,space,4.88054909999,4,0.902,,,,,,,,,,,,,,,,,,2019_Sep_27_1135,59.613904582999865,Cloud_Experiment_FR_REAL,001,51,
images/fcloud65-35_D1.6_4.tif,1.6,1,,,,,,,,,0,36,36,60,,,,,,,,,,,,,,,1,space,4.1130437,3,1.568,,,,,,,,,,,,,,,,,,2019_Sep_27_1135,59.613904582999865,Cloud_Experiment_FR_REAL,001,51,
images/fcloud_D1.2_5.tif,1.2,0,,,,,,,,,0,37,37,13,,,,,,,,,,,,,,,1,space,5.62765679999,2,1.835,,,,,,,,,,,,,,,,,,2019_Sep_27_1135,59.613904582999865,Cloud_Experiment_FR_REAL,001,51,
images/fcloud80-20_D0.9_5.tif,0.9,2,,,,,,,,,0,38,38,76,,,,,,,,,,,,,,,2,space,5.9544728,1,3.167,,,,,,,,,,,,,,,,,,2019_Sep_27_1135,59.613904582999865,Cloud_Experiment_FR_REAL,001,51,
images/fcloud_D1.1_6.tif,1.1,0,,,,,,,,,0,39,39,11,,,,,,,,,,,,,,,4,space,2.3889658,4,5.948,,,,,,,,,,,,,,,,,,2019_Sep_27_1135,59.613904582999865,Cloud_Experiment_FR_REAL,001,51,
images/fcloud80-20_D1.5_6.tif,1.5,2,,,,,,,,,0,40,40,95,,,,,,,,,,,,,,,2,space,6.0147589,1,1.157,,,,,,,,,,,,,,,,,,2019_Sep_27_1135,59.613904582999865,Cloud_Experiment_FR_REAL,001,51,
images/fcloud65-35_D1_6.tif,1.0,1,,,,,,,,,0,41,41,44,,,,,,,,,,,,,,,1,space,3.2094313,4,2.217,,,,,,,,,,,,,,,,,,2019_Sep_27_1135,59.613904582999865,Cloud_Experiment_FR_REAL,001,51,
images/fcloud_D1_4.tif,1.0,0,,,,,,,,,0,42,42,6,,,,,,,,,,,,,,,1,space,4.3665028,4,0.951,,,,,,,,,,,,,,,,,,2019_Sep_27_1135,59.613904582999865,Cloud_Experiment_FR_REAL,001,51,
images/fcloud65-35_D1.5_4.tif,1.5,1,,,,,,,,,0,43,43,57,,,,,,,,,,,,,,,None,None,,None,13.491,,,,,,,,,,,,,,,,,,2019_Sep_27_1135,59.613904582999865,Cloud_Experiment_FR_REAL,001,51,
images/fcloud65-35_D1.4_5.tif,1.4,1,,,,,,,,,0,44,44,55,,,,,,,,,,,,,,,2,space,2.8191404,4,0.952,,,,,,,,,,,,,,,,,,2019_Sep_27_1135,59.613904582999865,Cloud_Experiment_FR_REAL,001,51,
images/fcloud_D1.7_4.tif,1.7,0,,,,,,,,,0,45,45,27,,,,,,,,,,,,,,,3,space,3.4827634,3,1.701,,,,,,,,,,,,,,,,,,2019_Sep_27_1135,59.613904582999865,Cloud_Experiment_FR_REAL,001,51,
images/fcloud65-35_D1.1_5.tif,1.1,1,,,,,,,,,0,46,46,46,,,,,,,,,,,,,,,1,space,5.38070720001,1,1.768,,,,,,,,,,,,,,,,,,2019_Sep_27_1135,59.613904582999865,Cloud_Experiment_FR_REAL,001,51,
images/fcloud65-35_D1.6_6.tif,1.6,1,,,,,,,,,0,47,47,62,,,,,,,,,,,,,,,2,space,2.7783319,2,1.901,,,,,,,,,,,,,,,,,,2019_Sep_27_1135,59.613904582999865,Cloud_Experiment_FR_REAL,001,51,
images/fcloud80-20_D0.8_4.tif,0.8,2,,,,,,,,,0,48,48,72,,,,,,,,,,,,,,,1,space,3.599577,4,1.252,,,,,,,,,,,,,,,,,,2019_Sep_27_1135,59.613904582999865,Cloud_Experiment_FR_REAL,001,51,
images/fcloud80-20_D0.8_6.tif,0.8,2,,,,,,,,,0,49,49,74,,,,,,,,,,,,,,,2,space,4.83994229999,2,3.484,,,,,,,,,,,,,,,,,,2019_Sep_27_1135,59.613904582999865,Cloud_Experiment_FR_REAL,001,51,
images/fcloud65-35_D1.1_4.tif,1.1,1,,,,,,,,,0,50,50,45,,,,,,,,,,,,,,,None,None,,None,13.206,,,,,,,,,,,,,,,,,,2019_Sep_27_1135,59.613904582999865,Cloud_Experiment_FR_REAL,001,51,
images/fcloud80-20_D1.6_6.tif,1.6,2,,,,,,,,,0,51,51,98,,,,,,,,,,,,,,,1,space,7.29816929999,1,1.485,,,,,,,,,,,,,,,,,,2019_Sep_27_1135,59.613904582999865,Cloud_Experiment_FR_REAL,001,51,
images/fcloud_D1.2_6.tif,1.2,0,,,,,,,,,0,52,52,14,,,,,,,,,,,,,,,2,space,3.027798,4,1.402,,,,,,,,,,,,,,,,,,2019_Sep_27_1135,59.613904582999865,Cloud_Experiment_FR_REAL,001,51,
images/fcloud80-20_D1.8_4.tif,1.8,2,,,,,,,,,0,53,53,102,,,,,,,,,,,,,,,1,space,6.707895,1,0.969,,,,,,,,,,,,,,,,,,2019_Sep_27_1135,59.613904582999865,Cloud_Experiment_FR_REAL,001,51,
images/fcloud_D1.7_5.tif,1.7,0,,,,,,,,,0,54,54,28,,,,,,,,,,,,,,,1,space,7.60233580001,1,1.069,,,,,,,,,,,,,,,,,,2019_Sep_27_1135,59.613904582999865,Cloud_Experiment_FR_REAL,001,51,
images/fcloud_D1.4_6.tif,1.4,0,,,,,,,,,0,55,55,20,,,,,,,,,,,,,,,None,None,,None,11.275,,,,,,,,,,,,,,,,,,2019_Sep_27_1135,59.613904582999865,Cloud_Experiment_FR_REAL,001,51,
images/fcloud80-20_D1.1_4.tif,1.1,2,,,,,,,,,0,56,56,81,,,,,,,,,,,,,,,None,None,,None,20.55,,,,,,,,,,,,,,,,,,2019_Sep_27_1135,59.613904582999865,Cloud_Experiment_FR_REAL,001,51,
images/fcloud80-20_D1.7_4.tif,1.7,2,,,,,,,,,0,57,57,99,,,,,,,,,,,,,,,1,None,,1,1.052,,,,,,,,,,,,,,,,,,2019_Sep_27_1135,59.613904582999865,Cloud_Experiment_FR_REAL,001,51,
images/fcloud_D1.2_4.tif,1.2,0,,,,,,,,,0,58,58,12,,,,,,,,,,,,,,,2,space,4.7495236,2,3.1,,,,,,,,,,,,,,,,,,2019_Sep_27_1135,59.613904582999865,Cloud_Experiment_FR_REAL,001,51,
images/fcloud65-35_D0.8_6.tif,0.8,1,,,,,,,,,0,59,59,38,,,,,,,,,,,,,,,None,None,,None,12.589,,,,,,,,,,,,,,,,,,2019_Sep_27_1135,59.613904582999865,Cloud_Experiment_FR_REAL,001,51,
images/fcloud65-35_D0.8_5.tif,0.8,1,,,,,,,,,0,60,60,37,,,,,,,,,,,,,,,None,None,,None,22.016,,,,,,,,,,,,,,,,,,2019_Sep_27_1135,59.613904582999865,Cloud_Experiment_FR_REAL,001,51,
images/fcloud80-20_D1.4_5.tif,1.4,2,,,,,,,,,0,61,61,91,,,,,,,,,,,,,,,1,space,4.0833322,2,1.119,,,,,,,,,,,,,,,,,,2019_Sep_27_1135,59.613904582999865,Cloud_Experiment_FR_REAL,001,51,
images/fcloud65-35_D1.2_6.tif,1.2,1,,,,,,,,,0,62,62,50,,,,,,,,,,,,,,,None,None,,None,10.842,,,,,,,,,,,,,,,,,,2019_Sep_27_1135,59.613904582999865,Cloud_Experiment_FR_REAL,001,51,
images/fcloud65-35_D1.7_4.tif,1.7,1,,,,,,,,,0,63,63,63,,,,,,,,,,,,,,,1,space,5.6649899,3,2.185,,,,,,,,,,,,,,,,,,2019_Sep_27_1135,59.613904582999865,Cloud_Experiment_FR_REAL,001,51,
images/fcloud_D1.6_5.tif,1.6,0,,,,,,,,,0,64,64,25,,,,,,,,,,,,,,,2,space,2.5285817,4,1.152,,,,,,,,,,,,,,,,,,2019_Sep_27_1135,59.613904582999865,Cloud_Experiment_FR_REAL,001,51,
images/fcloud80-20_D1.4_4.tif,1.4,2,,,,,,,,,0,65,65,90,,,,,,,,,,,,,,,1,space,6.09177130001,2,1.385,,,,,,,,,,,,,,,,,,2019_Sep_27_1135,59.613904582999865,Cloud_Experiment_FR_REAL,001,51,
images/fcloud_D0.9_4.tif,0.9,0,,,,,,,,,0,66,66,3,,,,,,,,,,,,,,,1,space,2.15087310001,2,0.836,,,,,,,,,,,,,,,,,,2019_Sep_27_1135,59.613904582999865,Cloud_Experiment_FR_REAL,001,51,
images/fcloud_D0.9_6.tif,0.9,0,,,,,,,,,0,67,67,5,,,,,,,,,,,,,,,None,None,,None,11.592,,,,,,,,,,,,,,,,,,2019_Sep_27_1135,59.613904582999865,Cloud_Experiment_FR_REAL,001,51,
images/fcloud80-20_D1.3_5.tif,1.3,2,,,,,,,,,0,68,68,88,,,,,,,,,,,,,,,None,None,,None,23.164,,,,,,,,,,,,,,,,,,2019_Sep_27_1135,59.613904582999865,Cloud_Experiment_FR_REAL,001,51,
images/fcloud65-35_D1.8_6.tif,1.8,1,,,,,,,,,0,69,69,68,,,,,,,,,,,,,,,1,space,2.40751629999,1,1.402,,,,,,,,,,,,,,,,,,2019_Sep_27_1135,59.613904582999865,Cloud_Experiment_FR_REAL,001,51,
images/fcloud_D1.4_5.tif,1.4,0,,,,,,,,,0,70,70,19,,,,,,,,,,,,,,,1,space,3.5077459,2,3.184,,,,,,,,,,,,,,,,,,2019_Sep_27_1135,59.613904582999865,Cloud_Experiment_FR_REAL,001,51,
images/fcloud65-35_D1.1_6.tif,1.1,1,,,,,,,,,0,71,71,47,,,,,,,,,,,,,,,None,None,,None,14.09,,,,,,,,,,,,,,,,,,2019_Sep_27_1135,59.613904582999865,Cloud_Experiment_FR_REAL,001,51,
images/fcloud80-20_D1.6_4.tif,1.6,2,,,,,,,,,0,72,72,96,,,,,,,,,,,,,,,None,None,,None,23.599,,,,,,,,,,,,,,,,,,2019_Sep_27_1135,59.613904582999865,Cloud_Experiment_FR_REAL,001,51,
images/fcloud_D1.5_5.tif,1.5,0,,,,,,,,,0,73,73,22,,,,,,,,,,,,,,,1,space,4.62887829999,4,0.903,,,,,,,,,,,,,,,,,,2019_Sep_27_1135,59.613904582999865,Cloud_Experiment_FR_REAL,001,51,
images/fcloud_D1.9_5.tif,1.9,0,,,,,,,,,0,74,74,34,,,,,,,,,,,,,,,1,space,2.9699247,3,1.252,,,,,,,,,,,,,,,,,,2019_Sep_27_1135,59.613904582999865,Cloud_Experiment_FR_REAL,001,51,
images/fcloud80-20_D1.1_5.tif,1.1,2,,,,,,,,,0,75,75,82,,,,,,,,,,,,,,,2,space,3.82122519999,3,2.085,,,,,,,,,,,,,,,,,,2019_Sep_27_1135,59.613904582999865,Cloud_Experiment_FR_REAL,001,51,
images/fcloud_D1_6.tif,1.0,0,,,,,,,,,0,76,76,8,,,,,,,,,,,,,,,3,space,3.6450125,4,1.602,,,,,,,,,,,,,,,,,,2019_Sep_27_1135,59.613904582999865,Cloud_Experiment_FR_REAL,001,51,
images/fcloud80-20_D1_5.tif,1.0,2,,,,,,,,,0,77,77,79,,,,,,,,,,,,,,,1,space,3.28489350001,4,0.785,,,,,,,,,,,,,,,,,,2019_Sep_27_1135,59.613904582999865,Cloud_Experiment_FR_REAL,001,51,
images/fcloud_D1.9_6.tif,1.9,0,,,,,,,,,0,78,78,35,,,,,,,,,,,,,,,None,None,,None,11.024,,,,,,,,,,,,,,,,,,2019_Sep_27_1135,59.613904582999865,Cloud_Experiment_FR_REAL,001,51,
images/fcloud65-35_D1.4_4.tif,1.4,1,,,,,,,,,0,79,79,54,,,,,,,,,,,,,,,None,None,,None,20.534,,,,,,,,,,,,,,,,,,2019_Sep_27_1135,59.613904582999865,Cloud_Experiment_FR_REAL,001,51,
images/fcloud65-35_D1.3_5.tif,1.3,1,,,,,,,,,0,80,80,52,,,,,,,,,,,,,,,1,space,6.2521882,2,1.418,,,,,,,,,,,,,,,,,,2019_Sep_27_1135,59.613904582999865,Cloud_Experiment_FR_REAL,001,51,
images/fcloud65-35_D1.3_6.tif,1.3,1,,,,,,,,,0,81,81,53,,,,,,,,,,,,,,,1,space,3.7164867,4,0.852,,,,,,,,,,,,,,,,,,2019_Sep_27_1135,59.613904582999865,Cloud_Experiment_FR_REAL,001,51,
images/fcloud_D1.8_4.tif,1.8,0,,,,,,,,,0,82,82,30,,,,,,,,,,,,,,,None,None,,None,10.443,,,,,,,,,,,,,,,,,,2019_Sep_27_1135,59.613904582999865,Cloud_Experiment_FR_REAL,001,51,
images/fcloud65-35_D1.9_4.tif,1.9,1,,,,,,,,,0,83,83,69,,,,,,,,,,,,,,,None,None,,None,21.184,,,,,,,,,,,,,,,,,,2019_Sep_27_1135,59.613904582999865,Cloud_Experiment_FR_REAL,001,51,
images/fcloud65-35_D1.4_6.tif,1.4,1,,,,,,,,,0,84,84,56,,,,,,,,,,,,,,,2,space,2.39714659999,4,1.618,,,,,,,,,,,,,,,,,,2019_Sep_27_1135,59.613904582999865,Cloud_Experiment_FR_REAL,001,51,
images/fcloud_D0.9_5.tif,0.9,0,,,,,,,,,0,85,85,4,,,,,,,,,,,,,,,1,space,3.6667515,4,1.585,,,,,,,,,,,,,,,,,,2019_Sep_27_1135,59.613904582999865,Cloud_Experiment_FR_REAL,001,51,
images/fcloud_D1.5_6.tif,1.5,0,,,,,,,,,0,86,86,23,,,,,,,,,,,,,,,2,space,5.8814497,4,3.517,,,,,,,,,,,,,,,,,,2019_Sep_27_1135,59.613904582999865,Cloud_Experiment_FR_REAL,001,51,
images/fcloud_D1.1_4.tif,1.1,0,,,,,,,,,0,87,87,9,,,,,,,,,,,,,,,1,None,,1,1.336,,,,,,,,,,,,,,,,,,2019_Sep_27_1135,59.613904582999865,Cloud_Experiment_FR_REAL,001,51,
images/fcloud65-35_D0.9_5.tif,0.9,1,,,,,,,,,0,88,88,40,,,,,,,,,,,,,,,None,None,,None,10.942,,,,,,,,,,,,,,,,,,2019_Sep_27_1135,59.613904582999865,Cloud_Experiment_FR_REAL,001,51,
images/fcloud_D1.5_4.tif,1.5,0,,,,,,,,,0,89,89,21,,,,,,,,,,,,,,,2,space,3.9246556,3,1.419,,,,,,,,,,,,,,,,,,2019_Sep_27_1135,59.613904582999865,Cloud_Experiment_FR_REAL,001,51,
images/fcloud_D1.9_4.tif,1.9,0,,,,,,,,,0,90,90,33,,,,,,,,,,,,,,,None,None,,None,11.342,,,,,,,,,,,,,,,,,,2019_Sep_27_1135,59.613904582999865,Cloud_Experiment_FR_REAL,001,51,
images/fcloud_D1.4_4.tif,1.4,0,,,,,,,,,0,91,91,18,,,,,,,,,,,,,,,None,None,,None,21.4,,,,,,,,,,,,,,,,,,2019_Sep_27_1135,59.613904582999865,Cloud_Experiment_FR_REAL,001,51,
images/fcloud80-20_D1.7_5.tif,1.7,2,,,,,,,,,0,92,92,100,,,,,,,,,,,,,,,2,space,5.02203040001,1,1.202,,,,,,,,,,,,,,,,,,2019_Sep_27_1135,59.613904582999865,Cloud_Experiment_FR_REAL,001,51,
images/fcloud_D1.7_6.tif,1.7,0,,,,,,,,,0,93,93,29,,,,,,,,,,,,,,,1,None,,1,1.369,,,,,,,,,,,,,,,,,,2019_Sep_27_1135,59.613904582999865,Cloud_Experiment_FR_REAL,001,51,
images/fcloud80-20_D1.5_5.tif,1.5,2,,,,,,,,,0,94,94,94,,,,,,,,,,,,,,,1,space,6.0790628,1,1.369,,,,,,,,,,,,,,,,,,2019_Sep_27_1135,59.613904582999865,Cloud_Experiment_FR_REAL,001,51,
images/fcloud65-35_D1.8_5.tif,1.8,1,,,,,,,,,0,95,95,67,,,,,,,,,,,,,,,None,None,,None,11.309,,,,,,,,,,,,,,,,,,2019_Sep_27_1135,59.613904582999865,Cloud_Experiment_FR_REAL,001,51,
images/fcloud65-35_D0.8_4.tif,0.8,1,,,,,,,,,0,96,96,36,,,,,,,,,,,,,,,1,space,2.34106240001,3,1.302,,,,,,,,,,,,,,,,,,2019_Sep_27_1135,59.613904582999865,Cloud_Experiment_FR_REAL,001,51,
images/fcloud_D0.8_6.tif,0.8,0,,,,,,,,,0,97,97,2,,,,,,,,,,,,,,,None,None,,None,10.56,,,,,,,,,,,,,,,,,,2019_Sep_27_1135,59.613904582999865,Cloud_Experiment_FR_REAL,001,51,
images/fcloud80-20_D1.3_4.tif,1.3,2,,,,,,,,,0,98,98,87,,,,,,,,,,,,,,,1,space,3.34421710001,4,1.335,,,,,,,,,,,,,,,,,,2019_Sep_27_1135,59.613904582999865,Cloud_Experiment_FR_REAL,001,51,
images/fcloud80-20_D1.3_6.tif,1.3,2,,,,,,,,,0,99,99,89,,,,,,,,,,,,,,,None,None,,None,9.892,,,,,,,,,,,,,,,,,,2019_Sep_27_1135,59.613904582999865,Cloud_Experiment_FR_REAL,001,51,
images/fcloud65-35_D1.2_4.tif,1.2,1,,,,,,,,,0,100,100,48,,,,,,,,,,,,,,,None,None,,None,20.051,,,,,,,,,,,,,,,,,,2019_Sep_27_1135,59.613904582999865,Cloud_Experiment_FR_REAL,001,51,
images/fcloud65-35_D1.5_5.tif,1.5,1,,,,,,,,,0,101,101,58,,,,,,,,,,,,,,,None,None,,None,29.459,,,,,,,,,,,,,,,,,,2019_Sep_27_1135,59.613904582999865,Cloud_Experiment_FR_REAL,001,51,
images/fcloud80-20_D1.2_4.tif,1.2,2,,,,,,,,,0,102,102,84,,,,,,,,,,,,,,,1,space,1.2788228,4,1.302,,,,,,,,,,,,,,,,,,2019_Sep_27_1135,59.613904582999865,Cloud_Experiment_FR_REAL,001,51,
images/fcloud_D1_5.tif,1.0,0,,,,,,,,,0,103,103,7,,,,,,,,,,,,,,,1,space,2.18075889999,5,1.152,,,,,,,,,,,,,,,,,,2019_Sep_27_1135,59.613904582999865,Cloud_Experiment_FR_REAL,001,51,
images/fcloud65-35_D0.9_6.tif,0.9,1,,,,,,,,,0,104,104,41,,,,,,,,,,,,,,,None,None,,None,10.925,,,,,,,,,,,,,,,,,,2019_Sep_27_1135,59.613904582999865,Cloud_Experiment_FR_REAL,001,51,
images/fcloud80-20_D1.2_5.tif,1.2,2,,,,,,,,,0,105,105,85,,,,,,,,,,,,,,,1,space,6.28076559999,2,1.367,,,,,,,,,,,,,,,,,,2019_Sep_27_1135,59.613904582999865,Cloud_Experiment_FR_REAL,001,51,
images/fcloud65-35_D1.5_6.tif,1.5,1,,,,,,,,,0,106,106,59,,,,,,,,,,,,,,,None,None,,None,11.907,,,,,,,,,,,,,,,,,,2019_Sep_27_1135,59.613904582999865,Cloud_Experiment_FR_REAL,001,51,
images/fcloud80-20_D1.6_5.tif,1.6,2,,,,,,,,,0,107,107,97,,,,,,,,,,,,,,,None,None,,None,20.566,,,,,,,,,,,,,,,,,,2019_Sep_27_1135,59.613904582999865,Cloud_Experiment_FR_REAL,001,51,
,,,,,,,,,,,,,,,,,,,,,,,,,,,,,,,,,,,,,,,,,,,,,,space,3.4502409,,,,2019_Sep_27_1135,59.613904582999865,Cloud_Experiment_FR_REAL,001,51,
,,,,,,,,,,,,,,,,,,,,,,,,,4,8.575,,,,,,,,,,,,,,,,,,,,,,,,,2019_Sep_27_1135,59.613904582999865,Cloud_Experiment_FR_REAL,001,51,
,,,,,,,,,,,,,,,,,,,,,,,,,,,,,,,,,,5,,,,,,,,,,,,,,,,,2019_Sep_27_1135,59.613904582999865,Cloud_Experiment_FR_REAL,001,51,
,,,,,,,,,,,,,,,,,,,,,,,,,,,,,,,,,,,5,,,,,,,,,,,,,,,,2019_Sep_27_1135,59.613904582999865,Cloud_Experiment_FR_REAL,001,51,
,,,,,,,,,,,,,,,,,,,,,,,,,,,,,,,,,,,,4,,,,,,,,,,,,,,,2019_Sep_27_1135,59.613904582999865,Cloud_Experiment_FR_REAL,001,51,
,,,,,,,,,,,,,,,,,,,,,,,,,,,,,,,,,,,,,4,,,,,,,,,,,,,,2019_Sep_27_1135,59.613904582999865,Cloud_Experiment_FR_REAL,001,51,
,,,,,,,,,,,,,,,,,,,,,,,,,,,,,,,,,,,,,,5,,,,,,,,,,,,,2019_Sep_27_1135,59.613904582999865,Cloud_Experiment_FR_REAL,001,51,
,,,,,,,,,,,,,,,,,,,,,,,,,,,,,,,,,,,,,,,5,,,,,,,,,,,,2019_Sep_27_1135,59.613904582999865,Cloud_Experiment_FR_REAL,001,51,
,,,,,,,,,,,,,,,,,,,,,,,,,,,,,,,,,,,,,,,,6,,,,,,,,,,,2019_Sep_27_1135,59.613904582999865,Cloud_Experiment_FR_REAL,001,51,
,,,,,,,,,,,,,,,,,,,,,,,,,,,,,,,,,,,,,,,,,6,,,,,,,,,,2019_Sep_27_1135,59.613904582999865,Cloud_Experiment_FR_REAL,001,51,
,,,,,,,,,,,,,,,,,,,,,,,,,,,,,,,,,,,,,,,,,,4,,,,,,,,,2019_Sep_27_1135,59.613904582999865,Cloud_Experiment_FR_REAL,001,51,
,,,,,,,,,,,,,,,,,,,,,,,,,,,,,,,,,,,,,,,,,,,6,,,,,,,,2019_Sep_27_1135,59.613904582999865,Cloud_Experiment_FR_REAL,001,51,
,,,,,,,,,,,,,,,,,,,,,,,,,,,,,,,,,,,,,,,,,,,,,,,,space,36.7873762,,2019_Sep_27_1135,59.613904582999865,Cloud_Experiment_FR_REAL,001,51,
images/fcloud65-35_D1.5_9.tif,1.5,1,,,,,,,,,,,,,0,0,0,78,,,,,,,,,,,1,space,3.4093554,4,1.252,,,,,,,,,,,,,,,,,,2019_Sep_27_1135,59.613904582999865,Cloud_Experiment_FR_REAL,001,51,
images/fcloud_D0.9_9.tif,0.9,0,,,,,,,,,,,,,0,1,1,6,,,,,,,,,,,2,space,2.64790190001,4,1.284,,,,,,,,,,,,,,,,,,2019_Sep_27_1135,59.613904582999865,Cloud_Experiment_FR_REAL,001,51,
images/fcloud_D1_8.tif,1.0,0,,,,,,,,,,,,,0,2,2,9,,,,,,,,,,,1,None,,1,0.736,,,,,,,,,,,,,,,,,,2019_Sep_27_1135,59.613904582999865,Cloud_Experiment_FR_REAL,001,51,
images/fcloud80-20_D1.8_8.tif,1.8,2,,,,,,,,,,,,,0,3,3,137,,,,,,,,,,,1,space,2.3898091,1,0.803,,,,,,,,,,,,,,,,,,2019_Sep_27_1135,59.613904582999865,Cloud_Experiment_FR_REAL,001,51,
images/fcloud80-20_D1.4_7.tif,1.4,2,,,,,,,,,,,,,0,4,4,120,,,,,,,,,,,None,None,,None,9.878,,,,,,,,,,,,,,,,,,2019_Sep_27_1135,59.613904582999865,Cloud_Experiment_FR_REAL,001,51,
images/fcloud80-20_D1.7_10.tif,1.7,2,,,,,,,,,,,,,0,5,5,135,,,,,,,,,,,1,space,5.3930536,1,0.636,,,,,,,,,,,,,,,,,,2019_Sep_27_1135,59.613904582999865,Cloud_Experiment_FR_REAL,001,51,
images/fcloud80-20_D1.3_9.tif,1.3,2,,,,,,,,,,,,,0,6,6,118,,,,,,,,,,,1,space,7.46034430001,2,0.851,,,,,,,,,,,,,,,,,,2019_Sep_27_1135,59.613904582999865,Cloud_Experiment_FR_REAL,001,51,
images/fcloud_D1.8_9.tif,1.8,0,,,,,,,,,,,,,0,7,7,42,,,,,,,,,,,1,space,5.5184893,1,0.935,,,,,,,,,,,,,,,,,,2019_Sep_27_1135,59.613904582999865,Cloud_Experiment_FR_REAL,001,51,
images/fcloud_D1_9.tif,1.0,0,,,,,,,,,,,,,0,8,8,10,,,,,,,,,,,None,None,,None,10.809,,,,,,,,,,,,,,,,,,2019_Sep_27_1135,59.613904582999865,Cloud_Experiment_FR_REAL,001,51,
images/fcloud65-35_D1.3_10.tif,1.3,1,,,,,,,,,,,,,0,9,9,71,,,,,,,,,,,1,space,7.64155100001,1,0.519,,,,,,,,,,,,,,,,,,2019_Sep_27_1135,59.613904582999865,Cloud_Experiment_FR_REAL,001,51,
images/fcloud80-20_D1.6_7.tif,1.6,2,,,,,,,,,,,,,0,10,10,128,,,,,,,,,,,1,space,2.92926379999,1,0.584,,,,,,,,,,,,,,,,,,2019_Sep_27_1135,59.613904582999865,Cloud_Experiment_FR_REAL,001,51,
images/fcloud65-35_D1.7_10.tif,1.7,1,,,,,,,,,,,,,0,11,11,87,,,,,,,,,,,1,space,3.8569798,3,0.652,,,,,,,,,,,,,,,,,,2019_Sep_27_1135,59.613904582999865,Cloud_Experiment_FR_REAL,001,51,
images/fcloud_D0.8_8.tif,0.8,0,,,,,,,,,,,,,0,12,12,1,,,,,,,,,,,None,None,,None,9.925,,,,,,,,,,,,,,,,,,2019_Sep_27_1135,59.613904582999865,Cloud_Experiment_FR_REAL,001,51,
images/fcloud80-20_D1.9_10.tif,1.9,2,,,,,,,,,,,,,0,13,13,143,,,,,,,,,,,1,space,2.61421860001,3,1.835,,,,,,,,,,,,,,,,,,2019_Sep_27_1135,59.613904582999865,Cloud_Experiment_FR_REAL,001,51,
images/fcloud65-35_D0.9_9.tif,0.9,1,,,,,,,,,,,,,0,14,14,54,,,,,,,,,,,1,space,2.0150652,2,1.119,,,,,,,,,,,,,,,,,,2019_Sep_27_1135,59.613904582999865,Cloud_Experiment_FR_REAL,001,51,
images/fcloud65-35_D1.8_10.tif,1.8,1,,,,,,,,,,,,,0,15,15,91,,,,,,,,,,,1,space,4.63335429999,4,0.603,,,,,,,,,,,,,,,,,,2019_Sep_27_1135,59.613904582999865,Cloud_Experiment_FR_REAL,001,51,
images/fcloud80-20_D1.7_8.tif,1.7,2,,,,,,,,,,,,,0,16,16,133,,,,,,,,,,,1,space,5.2783553,3,1.153,,,,,,,,,,,,,,,,,,2019_Sep_27_1135,59.613904582999865,Cloud_Experiment_FR_REAL,001,51,
images/fcloud80-20_D1.6_8.tif,1.6,2,,,,,,,,,,,,,0,17,17,129,,,,,,,,,,,None,None,,None,11.143,,,,,,,,,,,,,,,,,,2019_Sep_27_1135,59.613904582999865,Cloud_Experiment_FR_REAL,001,51,
images/fcloud_D0.8_10.tif,0.8,0,,,,,,,,,,,,,0,18,18,3,,,,,,,,,,,None,None,,None,19.953,,,,,,,,,,,,,,,,,,2019_Sep_27_1135,59.613904582999865,Cloud_Experiment_FR_REAL,001,51,
images/fcloud_D1.3_7.tif,1.3,0,,,,,,,,,,,,,0,19,19,20,,,,,,,,,,,None,None,,None,28.411,,,,,,,,,,,,,,,,,,2019_Sep_27_1135,59.613904582999865,Cloud_Experiment_FR_REAL,001,51,
images/fcloud80-20_D1.1_7.tif,1.1,2,,,,,,,,,,,,,0,20,20,108,,,,,,,,,,,None,None,,None,37.47,,,,,,,,,,,,,,,,,,2019_Sep_27_1135,59.613904582999865,Cloud_Experiment_FR_REAL,001,51,
images/fcloud80-20_D1.8_10.tif,1.8,2,,,,,,,,,,,,,0,21,21,139,,,,,,,,,,,1,space,2.1358796,2,1.252,,,,,,,,,,,,,,,,,,2019_Sep_27_1135,59.613904582999865,Cloud_Experiment_FR_REAL,001,51,
images/fcloud80-20_D1.6_9.tif,1.6,2,,,,,,,,,,,,,0,22,22,130,,,,,,,,,,,None,None,,None,10.893,,,,,,,,,,,,,,,,,,2019_Sep_27_1135,59.613904582999865,Cloud_Experiment_FR_REAL,001,51,
images/fcloud_D1.9_9.tif,1.9,0,,,,,,,,,,,,,0,23,23,46,,,,,,,,,,,2,space,6.39075220001,1,1.137,,,,,,,,,,,,,,,,,,2019_Sep_27_1135,59.613904582999865,Cloud_Experiment_FR_REAL,001,51,
images/fcloud65-35_D1.7_9.tif,1.7,1,,,,,,,,,,,,,0,24,24,86,,,,,,,,,,,2,space,5.42301300001,3,1.051,,,,,,,,,,,,,,,,,,2019_Sep_27_1135,59.613904582999865,Cloud_Experiment_FR_REAL,001,51,
images/fcloud65-35_D1.5_10.tif,1.5,1,,,,,,,,,,,,,0,25,25,79,,,,,,,,,,,None,None,,None,10.509,,,,,,,,,,,,,,,,,,2019_Sep_27_1135,59.613904582999865,Cloud_Experiment_FR_REAL,001,51,
images/fcloud80-20_D1.2_7.tif,1.2,2,,,,,,,,,,,,,0,26,26,112,,,,,,,,,,,None,None,,None,20.45,,,,,,,,,,,,,,,,,,2019_Sep_27_1135,59.613904582999865,Cloud_Experiment_FR_REAL,001,51,
images/fcloud_D1.2_8.tif,1.2,0,,,,,,,,,,,,,0,27,27,17,,,,,,,,,,,1,space,2.4624017,3,0.952,,,,,,,,,,,,,,,,,,2019_Sep_27_1135,59.613904582999865,Cloud_Experiment_FR_REAL,001,51,
images/fcloud65-35_D1.8_8.tif,1.8,1,,,,,,,,,,,,,0,28,28,89,,,,,,,,,,,None,None,,None,10.159,,,,,,,,,,,,,,,,,,2019_Sep_27_1135,59.613904582999865,Cloud_Experiment_FR_REAL,001,51,
images/fcloud_D1.6_10.tif,1.6,0,,,,,,,,,,,,,0,29,29,35,,,,,,,,,,,1,None,,1,0.936,,,,,,,,,,,,,,,,,,2019_Sep_27_1135,59.613904582999865,Cloud_Experiment_FR_REAL,001,51,
images/fcloud80-20_D1_10.tif,1.0,2,,,,,,,,,,,,,0,30,30,107,,,,,,,,,,,None,None,,None,15.872,,,,,,,,,,,,,,,,,,2019_Sep_27_1135,59.613904582999865,Cloud_Experiment_FR_REAL,001,51,
images/fcloud_D1.4_9.tif,1.4,0,,,,,,,,,,,,,0,31,31,26,,,,,,,,,,,1,space,6.2766289,3,0.903,,,,,,,,,,,,,,,,,,2019_Sep_27_1135,59.613904582999865,Cloud_Experiment_FR_REAL,001,51,
images/fcloud_D1.4_7.tif,1.4,0,,,,,,,,,,,,,0,32,32,24,,,,,,,,,,,1,None,,1,3.084,,,,,,,,,,,,,,,,,,2019_Sep_27_1135,59.613904582999865,Cloud_Experiment_FR_REAL,001,51,
images/fcloud_D1_7.tif,1.0,0,,,,,,,,,,,,,0,33,33,8,,,,,,,,,,,3,space,2.5676374,2,1.285,,,,,,,,,,,,,,,,,,2019_Sep_27_1135,59.613904582999865,Cloud_Experiment_FR_REAL,001,51,
images/fcloud65-35_D1.1_9.tif,1.1,1,,,,,,,,,,,,,0,34,34,62,,,,,,,,,,,None,None,,None,10.81,,,,,,,,,,,,,,,,,,2019_Sep_27_1135,59.613904582999865,Cloud_Experiment_FR_REAL,001,51,
images/fcloud65-35_D1.3_8.tif,1.3,1,,,,,,,,,,,,,0,35,35,69,,,,,,,,,,,2,space,1.876569,4,2.185,,,,,,,,,,,,,,,,,,2019_Sep_27_1135,59.613904582999865,Cloud_Experiment_FR_REAL,001,51,
images/fcloud65-35_D1.8_7.tif,1.8,1,,,,,,,,,,,,,0,36,36,88,,,,,,,,,,,None,None,,None,11.527,,,,,,,,,,,,,,,,,,2019_Sep_27_1135,59.613904582999865,Cloud_Experiment_FR_REAL,001,51,
images/fcloud_D1.2_7.tif,1.2,0,,,,,,,,,,,,,0,37,37,16,,,,,,,,,,,2,space,5.4204107,3,1.102,,,,,,,,,,,,,,,,,,2019_Sep_27_1135,59.613904582999865,Cloud_Experiment_FR_REAL,001,51,
images/fcloud65-35_D1.6_8.tif,1.6,1,,,,,,,,,,,,,0,38,38,81,,,,,,,,,,,None,None,,None,11.259,,,,,,,,,,,,,,,,,,2019_Sep_27_1135,59.613904582999865,Cloud_Experiment_FR_REAL,001,51,
images/fcloud_D1.4_8.tif,1.4,0,,,,,,,,,,,,,0,39,39,25,,,,,,,,,,,1,space,4.06659229999,3,0.953,,,,,,,,,,,,,,,,,,2019_Sep_27_1135,59.613904582999865,Cloud_Experiment_FR_REAL,001,51,
images/fcloud80-20_D1.3_7.tif,1.3,2,,,,,,,,,,,,,0,40,40,116,,,,,,,,,,,1,None,,2,1.235,,,,,,,,,,,,,,,,,,2019_Sep_27_1135,59.613904582999865,Cloud_Experiment_FR_REAL,001,51,
images/fcloud80-20_D1.8_7.tif,1.8,2,,,,,,,,,,,,,0,41,41,136,,,,,,,,,,,1,space,2.7410581,4,0.667,,,,,,,,,,,,,,,,,,2019_Sep_27_1135,59.613904582999865,Cloud_Experiment_FR_REAL,001,51,
images/fcloud80-20_D0.9_9.tif,0.9,2,,,,,,,,,,,,,0,42,42,102,,,,,,,,,,,None,None,,None,9.744,,,,,,,,,,,,,,,,,,2019_Sep_27_1135,59.613904582999865,Cloud_Experiment_FR_REAL,001,51,
images/fcloud80-20_D1.7_9.tif,1.7,2,,,,,,,,,,,,,0,43,43,134,,,,,,,,,,,1,space,3.32372070001,4,0.836,,,,,,,,,,,,,,,,,,2019_Sep_27_1135,59.613904582999865,Cloud_Experiment_FR_REAL,001,51,
images/fcloud80-20_D1_9.tif,1.0,2,,,,,,,,,,,,,0,44,44,106,,,,,,,,,,,None,None,,None,10.376,,,,,,,,,,,,,,,,,,2019_Sep_27_1135,59.613904582999865,Cloud_Experiment_FR_REAL,001,51,
images/fcloud80-20_D0.8_10.tif,0.8,2,,,,,,,,,,,,,0,45,45,99,,,,,,,,,,,None,None,,None,19.486,,,,,,,,,,,,,,,,,,2019_Sep_27_1135,59.613904582999865,Cloud_Experiment_FR_REAL,001,51,
images/fcloud65-35_D1.7_8.tif,1.7,1,,,,,,,,,,,,,0,46,46,85,,,,,,,,,,,None,None,,None,28.744,,,,,,,,,,,,,,,,,,2019_Sep_27_1135,59.613904582999865,Cloud_Experiment_FR_REAL,001,51,
images/fcloud80-20_D1.5_10.tif,1.5,2,,,,,,,,,,,,,0,47,47,127,,,,,,,,,,,1,space,4.85778250001,2,2.568,,,,,,,,,,,,,,,,,,2019_Sep_27_1135,59.613904582999865,Cloud_Experiment_FR_REAL,001,51,
images/fcloud_D1.8_8.tif,1.8,0,,,,,,,,,,,,,0,48,48,41,,,,,,,,,,,1,space,2.4957438,4,0.684,,,,,,,,,,,,,,,,,,2019_Sep_27_1135,59.613904582999865,Cloud_Experiment_FR_REAL,001,51,
images/fcloud_D1.9_7.tif,1.9,0,,,,,,,,,,,,,0,49,49,44,,,,,,,,,,,1,space,2.9761864,3,0.721,,,,,,,,,,,,,,,,,,2019_Sep_27_1135,59.613904582999865,Cloud_Experiment_FR_REAL,001,51,
images/fcloud65-35_D1.2_10.tif,1.2,1,,,,,,,,,,,,,0,50,50,67,,,,,,,,,,,None,None,,None,9.992,,,,,,,,,,,,,,,,,,2019_Sep_27_1135,59.613904582999865,Cloud_Experiment_FR_REAL,001,51,
images/fcloud65-35_D1.5_7.tif,1.5,1,,,,,,,,,,,,,0,51,51,76,,,,,,,,,,,1,space,1.5475995,3,0.736,,,,,,,,,,,,,,,,,,2019_Sep_27_1135,59.613904582999865,Cloud_Experiment_FR_REAL,001,51,
images/fcloud65-35_D1.2_8.tif,1.2,1,,,,,,,,,,,,,0,52,52,65,,,,,,,,,,,None,None,,None,12.375,,,,,,,,,,,,,,,,,,2019_Sep_27_1135,59.613904582999865,Cloud_Experiment_FR_REAL,001,51,
images/fcloud_D0.8_7.tif,0.8,0,,,,,,,,,,,,,0,53,53,0,,,,,,,,,,,1,space,3.40126700001,4,1.285,,,,,,,,,,,,,,,,,,2019_Sep_27_1135,59.613904582999865,Cloud_Experiment_FR_REAL,001,51,
images/fcloud_D1.3_9.tif,1.3,0,,,,,,,,,,,,,0,54,54,22,,,,,,,,,,,2,space,3.7781192,5,1.385,,,,,,,,,,,,,,,,,,2019_Sep_27_1135,59.613904582999865,Cloud_Experiment_FR_REAL,001,51,
images/fcloud65-35_D1.1_7.tif,1.1,1,,,,,,,,,,,,,0,55,55,60,,,,,,,,,,,1,space,4.8178704,2,1.102,,,,,,,,,,,,,,,,,,2019_Sep_27_1135,59.613904582999865,Cloud_Experiment_FR_REAL,001,51,
images/fcloud65-35_D1.1_8.tif,1.1,1,,,,,,,,,,,,,0,56,56,61,,,,,,,,,,,1,space,4.9230967,1,1.034,,,,,,,,,,,,,,,,,,2019_Sep_27_1135,59.613904582999865,Cloud_Experiment_FR_REAL,001,51,
images/fcloud65-35_D1.4_7.tif,1.4,1,,,,,,,,,,,,,0,57,57,72,,,,,,,,,,,None,None,,None,10.31,,,,,,,,,,,,,,,,,,2019_Sep_27_1135,59.613904582999865,Cloud_Experiment_FR_REAL,001,51,
images/fcloud65-35_D1.9_10.tif,1.9,1,,,,,,,,,,,,,0,58,58,95,,,,,,,,,,,None,None,,None,19.619,,,,,,,,,,,,,,,,,,2019_Sep_27_1135,59.613904582999865,Cloud_Experiment_FR_REAL,001,51,
images/fcloud65-35_D1.1_10.tif,1.1,1,,,,,,,,,,,,,0,59,59,63,,,,,,,,,,,None,None,,None,29.775,,,,,,,,,,,,,,,,,,2019_Sep_27_1135,59.613904582999865,Cloud_Experiment_FR_REAL,001,51,
images/fcloud65-35_D1.4_9.tif,1.4,1,,,,,,,,,,,,,0,60,60,74,,,,,,,,,,,1,space,5.4623893,1,0.819,,,,,,,,,,,,,,,,,,2019_Sep_27_1135,59.613904582999865,Cloud_Experiment_FR_REAL,001,51,
images/fcloud80-20_D0.9_7.tif,0.9,2,,,,,,,,,,,,,0,61,61,100,,,,,,,,,,,1,space,5.36582780001,1,0.836,,,,,,,,,,,,,,,,,,2019_Sep_27_1135,59.613904582999865,Cloud_Experiment_FR_REAL,001,51,
images/fcloud65-35_D1.9_9.tif,1.9,1,,,,,,,,,,,,,0,62,62,94,,,,,,,,,,,None,None,,None,10.476,,,,,,,,,,,,,,,,,,2019_Sep_27_1135,59.613904582999865,Cloud_Experiment_FR_REAL,001,51,
images/fcloud_D1.1_7.tif,1.1,0,,,,,,,,,,,,,0,63,63,12,,,,,,,,,,,1,space,3.85890769999,3,0.936,,,,,,,,,,,,,,,,,,2019_Sep_27_1135,59.613904582999865,Cloud_Experiment_FR_REAL,001,51,
images/fcloud80-20_D1.8_9.tif,1.8,2,,,,,,,,,,,,,0,64,64,138,,,,,,,,,,,None,None,,None,11.341,,,,,,,,,,,,,,,,,,2019_Sep_27_1135,59.613904582999865,Cloud_Experiment_FR_REAL,001,51,
images/fcloud_D1.6_8.tif,1.6,0,,,,,,,,,,,,,0,65,65,33,,,,,,,,,,,1,space,5.7881772,4,0.72,,,,,,,,,,,,,,,,,,2019_Sep_27_1135,59.613904582999865,Cloud_Experiment_FR_REAL,001,51,
images/fcloud65-35_D1.4_8.tif,1.4,1,,,,,,,,,,,,,0,66,66,73,,,,,,,,,,,1,None,,3,0.919,,,,,,,,,,,,,,,,,,2019_Sep_27_1135,59.613904582999865,Cloud_Experiment_FR_REAL,001,51,
images/fcloud65-35_D1.7_7.tif,1.7,1,,,,,,,,,,,,,0,67,67,84,,,,,,,,,,,1,space,1.7152588,2,0.82,,,,,,,,,,,,,,,,,,2019_Sep_27_1135,59.613904582999865,Cloud_Experiment_FR_REAL,001,51,
images/fcloud80-20_D1.3_10.tif,1.3,2,,,,,,,,,,,,,0,68,68,119,,,,,,,,,,,None,None,,None,11.46,,,,,,,,,,,,,,,,,,2019_Sep_27_1135,59.613904582999865,Cloud_Experiment_FR_REAL,001,51,
images/fcloud65-35_D1.8_9.tif,1.8,1,,,,,,,,,,,,,0,69,69,90,,,,,,,,,,,None,None,,None,20.468,,,,,,,,,,,,,,,,,,2019_Sep_27_1135,59.613904582999865,Cloud_Experiment_FR_REAL,001,51,
images/fcloud_D1.3_8.tif,1.3,0,,,,,,,,,,,,,0,70,70,21,,,,,,,,,,,2,space,6.4005297,4,1.685,,,,,,,,,,,,,,,,,,2019_Sep_27_1135,59.613904582999865,Cloud_Experiment_FR_REAL,001,51,
images/fcloud65-35_D1_10.tif,1.0,1,,,,,,,,,,,,,0,71,71,59,,,,,,,,,,,None,None,,None,10.959,,,,,,,,,,,,,,,,,,2019_Sep_27_1135,59.613904582999865,Cloud_Experiment_FR_REAL,001,51,
images/fcloud_D1.9_8.tif,1.9,0,,,,,,,,,,,,,0,72,72,45,,,,,,,,,,,None,None,,None,20.299,,,,,,,,,,,,,,,,,,2019_Sep_27_1135,59.613904582999865,Cloud_Experiment_FR_REAL,001,51,
images/fcloud65-35_D1_8.tif,1.0,1,,,,,,,,,,,,,0,73,73,57,,,,,,,,,,,1,space,6.5080228,1,0.936,,,,,,,,,,,,,,,,,,2019_Sep_27_1135,59.613904582999865,Cloud_Experiment_FR_REAL,001,51,
images/fcloud_D1.9_10.tif,1.9,0,,,,,,,,,,,,,0,74,74,47,,,,,,,,,,,1,space,4.0537,1,0.852,,,,,,,,,,,,,,,,,,2019_Sep_27_1135,59.613904582999865,Cloud_Experiment_FR_REAL,001,51,
images/fcloud80-20_D1.4_10.tif,1.4,2,,,,,,,,,,,,,0,75,75,123,,,,,,,,,,,2,space,3.80858530001,2,0.869,,,,,,,,,,,,,,,,,,2019_Sep_27_1135,59.613904582999865,Cloud_Experiment_FR_REAL,001,51,
images/fcloud_D1.5_8.tif,1.5,0,,,,,,,,,,,,,0,76,76,29,,,,,,,,,,,3,space,1.84931759999,2,0.917,,,,,,,,,,,,,,,,,,2019_Sep_27_1135,59.613904582999865,Cloud_Experiment_FR_REAL,001,51,
images/fcloud65-35_D1.2_7.tif,1.2,1,,,,,,,,,,,,,0,77,77,64,,,,,,,,,,,1,space,5.3975354,2,1.186,,,,,,,,,,,,,,,,,,2019_Sep_27_1135,59.613904582999865,Cloud_Experiment_FR_REAL,001,51,
images/fcloud65-35_D1.3_7.tif,1.3,1,,,,,,,,,,,,,0,78,78,68,,,,,,,,,,,1,space,5.1924674,2,1.119,,,,,,,,,,,,,,,,,,2019_Sep_27_1135,59.613904582999865,Cloud_Experiment_FR_REAL,001,51,
images/fcloud_D0.8_9.tif,0.8,0,,,,,,,,,,,,,0,79,79,2,,,,,,,,,,,3,space,3.28784580001,4,0.953,,,,,,,,,,,,,,,,,,2019_Sep_27_1135,59.613904582999865,Cloud_Experiment_FR_REAL,001,51,
images/fcloud_D1.6_9.tif,1.6,0,,,,,,,,,,,,,0,80,80,34,,,,,,,,,,,1,space,5.2839527,1,0.869,,,,,,,,,,,,,,,,,,2019_Sep_27_1135,59.613904582999865,Cloud_Experiment_FR_REAL,001,51,
images/fcloud_D0.9_10.tif,0.9,0,,,,,,,,,,,,,0,81,81,7,,,,,,,,,,,None,None,,None,12.824,,,,,,,,,,,,,,,,,,2019_Sep_27_1135,59.613904582999865,Cloud_Experiment_FR_REAL,001,51,
images/fcloud80-20_D0.9_10.tif,0.9,2,,,,,,,,,,,,,0,82,82,103,,,,,,,,,,,1,space,4.6382653,4,1.0,,,,,,,,,,,,,,,,,,2019_Sep_27_1135,59.613904582999865,Cloud_Experiment_FR_REAL,001,51,
images/fcloud80-20_D1.2_10.tif,1.2,2,,,,,,,,,,,,,0,83,83,115,,,,,,,,,,,1,space,7.3997737,1,0.869,,,,,,,,,,,,,,,,,,2019_Sep_27_1135,59.613904582999865,Cloud_Experiment_FR_REAL,001,51,
images/fcloud_D1.7_9.tif,1.7,0,,,,,,,,,,,,,0,84,84,38,,,,,,,,,,,3,space,6.24374580001,3,1.403,,,,,,,,,,,,,,,,,,2019_Sep_27_1135,59.613904582999865,Cloud_Experiment_FR_REAL,001,51,
images/fcloud80-20_D0.9_8.tif,0.9,2,,,,,,,,,,,,,0,85,85,101,,,,,,,,,,,None,None,,None,10.677,,,,,,,,,,,,,,,,,,2019_Sep_27_1135,59.613904582999865,Cloud_Experiment_FR_REAL,001,51,
images/fcloud65-35_D0.8_10.tif,0.8,1,,,,,,,,,,,,,0,86,86,51,,,,,,,,,,,1,space,5.2421875,3,0.819,,,,,,,,,,,,,,,,,,2019_Sep_27_1135,59.613904582999865,Cloud_Experiment_FR_REAL,001,51,
images/fcloud65-35_D1.6_10.tif,1.6,1,,,,,,,,,,,,,0,87,87,83,,,,,,,,,,,None,None,,None,11.527,,,,,,,,,,,,,,,,,,2019_Sep_27_1135,59.613904582999865,Cloud_Experiment_FR_REAL,001,51,
images/fcloud_D1.8_7.tif,1.8,0,,,,,,,,,,,,,0,88,88,40,,,,,,,,,,,None,None,,None,21.3,,,,,,,,,,,,,,,,,,2019_Sep_27_1135,59.613904582999865,Cloud_Experiment_FR_REAL,001,51,
images/fcloud65-35_D1.2_9.tif,1.2,1,,,,,,,,,,,,,0,89,89,66,,,,,,,,,,,2,space,4.1741819,1,0.553,,,,,,,,,,,,,,,,,,2019_Sep_27_1135,59.613904582999865,Cloud_Experiment_FR_REAL,001,51,
images/fcloud80-20_D1.1_9.tif,1.1,2,,,,,,,,,,,,,0,90,90,110,,,,,,,,,,,None,None,,None,10.227,,,,,,,,,,,,,,,,,,2019_Sep_27_1135,59.613904582999865,Cloud_Experiment_FR_REAL,001,51,
images/fcloud80-20_D1.4_9.tif,1.4,2,,,,,,,,,,,,,0,91,91,122,,,,,,,,,,,2,space,4.97833140001,2,0.885,,,,,,,,,,,,,,,,,,2019_Sep_27_1135,59.613904582999865,Cloud_Experiment_FR_REAL,001,51,
images/fcloud65-35_D1.6_9.tif,1.6,1,,,,,,,,,,,,,0,92,92,82,,,,,,,,,,,None,None,,None,10.575,,,,,,,,,,,,,,,,,,2019_Sep_27_1135,59.613904582999865,Cloud_Experiment_FR_REAL,001,51,
images/fcloud_D1.1_9.tif,1.1,0,,,,,,,,,,,,,0,93,93,14,,,,,,,,,,,1,space,8.0997756,1,0.886,,,,,,,,,,,,,,,,,,2019_Sep_27_1135,59.613904582999865,Cloud_Experiment_FR_REAL,001,51,
images/fcloud_D1.3_10.tif,1.3,0,,,,,,,,,,,,,0,94,94,23,,,,,,,,,,,2,space,7.2998659,3,0.902,,,,,,,,,,,,,,,,,,2019_Sep_27_1135,59.613904582999865,Cloud_Experiment_FR_REAL,001,51,
images/fcloud65-35_D0.8_8.tif,0.8,1,,,,,,,,,,,,,0,95,95,49,,,,,,,,,,,None,None,,None,9.61,,,,,,,,,,,,,,,,,,2019_Sep_27_1135,59.613904582999865,Cloud_Experiment_FR_REAL,001,51,
images/fcloud80-20_D1.5_7.tif,1.5,2,,,,,,,,,,,,,0,96,96,124,,,,,,,,,,,None,None,,None,19.8,,,,,,,,,,,,,,,,,,2019_Sep_27_1135,59.613904582999865,Cloud_Experiment_FR_REAL,001,51,
images/fcloud80-20_D1.9_8.tif,1.9,2,,,,,,,,,,,,,0,97,97,141,,,,,,,,,,,None,None,,None,28.227,,,,,,,,,,,,,,,,,,2019_Sep_27_1135,59.613904582999865,Cloud_Experiment_FR_REAL,001,51,
images/fcloud80-20_D1.9_7.tif,1.9,2,,,,,,,,,,,,,0,98,98,140,,,,,,,,,,,None,None,,None,37.085,,,,,,,,,,,,,,,,,,2019_Sep_27_1135,59.613904582999865,Cloud_Experiment_FR_REAL,001,51,
images/fcloud80-20_D0.8_7.tif,0.8,2,,,,,,,,,,,,,0,99,99,96,,,,,,,,,,,1,space,4.54785209999,1,0.536,,,,,,,,,,,,,,,,,,2019_Sep_27_1135,59.613904582999865,Cloud_Experiment_FR_REAL,001,51,
images/fcloud_D0.9_7.tif,0.9,0,,,,,,,,,,,,,0,100,100,4,,,,,,,,,,,1,space,4.8823346,4,0.969,,,,,,,,,,,,,,,,,,2019_Sep_27_1135,59.613904582999865,Cloud_Experiment_FR_REAL,001,51,
images/fcloud_D1.5_9.tif,1.5,0,,,,,,,,,,,,,0,101,101,30,,,,,,,,,,,1,space,9.8311212,1,0.802,,,,,,,,,,,,,,,,,,2019_Sep_27_1135,59.613904582999865,Cloud_Experiment_FR_REAL,001,51,
images/fcloud65-35_D0.8_7.tif,0.8,1,,,,,,,,,,,,,0,102,102,48,,,,,,,,,,,1,space,4.4786932,1,1.402,,,,,,,,,,,,,,,,,,2019_Sep_27_1135,59.613904582999865,Cloud_Experiment_FR_REAL,001,51,
images/fcloud65-35_D1.9_7.tif,1.9,1,,,,,,,,,,,,,0,103,103,92,,,,,,,,,,,1,space,4.62988740001,2,0.852,,,,,,,,,,,,,,,,,,2019_Sep_27_1135,59.613904582999865,Cloud_Experiment_FR_REAL,001,51,
images/fcloud_D0.9_8.tif,0.9,0,,,,,,,,,,,,,0,104,104,5,,,,,,,,,,,2,space,4.453299,3,0.936,,,,,,,,,,,,,,,,,,2019_Sep_27_1135,59.613904582999865,Cloud_Experiment_FR_REAL,001,51,
images/fcloud80-20_D1.4_8.tif,1.4,2,,,,,,,,,,,,,0,105,105,121,,,,,,,,,,,2,space,4.43445299999,2,0.952,,,,,,,,,,,,,,,,,,2019_Sep_27_1135,59.613904582999865,Cloud_Experiment_FR_REAL,001,51,
images/fcloud80-20_D1.2_9.tif,1.2,2,,,,,,,,,,,,,0,106,106,114,,,,,,,,,,,None,None,,None,10.725,,,,,,,,,,,,,,,,,,2019_Sep_27_1135,59.613904582999865,Cloud_Experiment_FR_REAL,001,51,
images/fcloud80-20_D1_7.tif,1.0,2,,,,,,,,,,,,,0,107,107,104,,,,,,,,,,,1,space,3.64406799999,1,0.852,,,,,,,,,,,,,,,,,,2019_Sep_27_1135,59.613904582999865,Cloud_Experiment_FR_REAL,001,51,
images/fcloud65-35_D1.4_10.tif,1.4,1,,,,,,,,,,,,,0,108,108,75,,,,,,,,,,,1,space,7.3398259,2,0.786,,,,,,,,,,,,,,,,,,2019_Sep_27_1135,59.613904582999865,Cloud_Experiment_FR_REAL,001,51,
images/fcloud65-35_D0.9_7.tif,0.9,1,,,,,,,,,,,,,0,109,109,52,,,,,,,,,,,None,None,,None,9.228,,,,,,,,,,,,,,,,,,2019_Sep_27_1135,59.613904582999865,Cloud_Experiment_FR_REAL,001,51,
images/fcloud65-35_D1_9.tif,1.0,1,,,,,,,,,,,,,0,110,110,58,,,,,,,,,,,None,None,,None,18.452,,,,,,,,,,,,,,,,,,2019_Sep_27_1135,59.613904582999865,Cloud_Experiment_FR_REAL,001,51,
images/fcloud65-35_D0.9_10.tif,0.9,1,,,,,,,,,,,,,0,111,111,55,,,,,,,,,,,1,space,3.8058343,3,0.885,,,,,,,,,,,,,,,,,,2019_Sep_27_1135,59.613904582999865,Cloud_Experiment_FR_REAL,001,51,
images/fcloud_D1.8_10.tif,1.8,0,,,,,,,,,,,,,0,112,112,43,,,,,,,,,,,None,None,,None,10.593,,,,,,,,,,,,,,,,,,2019_Sep_27_1135,59.613904582999865,Cloud_Experiment_FR_REAL,001,51,
images/fcloud_D1.2_9.tif,1.2,0,,,,,,,,,,,,,0,113,113,18,,,,,,,,,,,1,space,4.83835229999,3,0.719,,,,,,,,,,,,,,,,,,2019_Sep_27_1135,59.613904582999865,Cloud_Experiment_FR_REAL,001,51,
images/fcloud80-20_D1_8.tif,1.0,2,,,,,,,,,,,,,0,114,114,105,,,,,,,,,,,1,space,5.50111680001,3,1.485,,,,,,,,,,,,,,,,,,2019_Sep_27_1135,59.613904582999865,Cloud_Experiment_FR_REAL,001,51,
images/fcloud80-20_D1.5_9.tif,1.5,2,,,,,,,,,,,,,0,115,115,126,,,,,,,,,,,None,None,,None,11.225,,,,,,,,,,,,,,,,,,2019_Sep_27_1135,59.613904582999865,Cloud_Experiment_FR_REAL,001,51,
images/fcloud80-20_D1.3_8.tif,1.3,2,,,,,,,,,,,,,0,116,116,117,,,,,,,,,,,1,space,7.3722846,1,0.836,,,,,,,,,,,,,,,,,,2019_Sep_27_1135,59.613904582999865,Cloud_Experiment_FR_REAL,001,51,
images/fcloud_D1.4_10.tif,1.4,0,,,,,,,,,,,,,0,117,117,27,,,,,,,,,,,4,space,1.9943511,3,2.901,,,,,,,,,,,,,,,,,,2019_Sep_27_1135,59.613904582999865,Cloud_Experiment_FR_REAL,001,51,
images/fcloud65-35_D0.8_9.tif,0.8,1,,,,,,,,,,,,,0,118,118,50,,,,,,,,,,,2,space,4.7360952,2,1.733,,,,,,,,,,,,,,,,,,2019_Sep_27_1135,59.613904582999865,Cloud_Experiment_FR_REAL,001,51,
images/fcloud_D1_10.tif,1.0,0,,,,,,,,,,,,,0,119,119,11,,,,,,,,,,,None,None,,None,12.158,,,,,,,,,,,,,,,,,,2019_Sep_27_1135,59.613904582999865,Cloud_Experiment_FR_REAL,001,51,
images/fcloud65-35_D1_7.tif,1.0,1,,,,,,,,,,,,,0,120,120,56,,,,,,,,,,,None,None,,None,20.8,,,,,,,,,,,,,,,,,,2019_Sep_27_1135,59.613904582999865,Cloud_Experiment_FR_REAL,001,51,
images/fcloud_D1.5_7.tif,1.5,0,,,,,,,,,,,,,0,121,121,28,,,,,,,,,,,3,space,2.8115716,3,1.069,,,,,,,,,,,,,,,,,,2019_Sep_27_1135,59.613904582999865,Cloud_Experiment_FR_REAL,001,51,
images/fcloud80-20_D1.1_10.tif,1.1,2,,,,,,,,,,,,,0,122,122,111,,,,,,,,,,,1,space,7.3522065,1,0.768,,,,,,,,,,,,,,,,,,2019_Sep_27_1135,59.613904582999865,Cloud_Experiment_FR_REAL,001,51,
images/fcloud_D1.6_7.tif,1.6,0,,,,,,,,,,,,,0,123,123,32,,,,,,,,,,,None,None,,None,10.694,,,,,,,,,,,,,,,,,,2019_Sep_27_1135,59.613904582999865,Cloud_Experiment_FR_REAL,001,51,
images/fcloud80-20_D1.9_9.tif,1.9,2,,,,,,,,,,,,,0,124,124,142,,,,,,,,,,,2,space,3.10585199999,1,0.918,,,,,,,,,,,,,,,,,,2019_Sep_27_1135,59.613904582999865,Cloud_Experiment_FR_REAL,001,51,
images/fcloud_D1.1_8.tif,1.1,0,,,,,,,,,,,,,0,125,125,13,,,,,,,,,,,2,space,2.97922729999,4,0.819,,,,,,,,,,,,,,,,,,2019_Sep_27_1135,59.613904582999865,Cloud_Experiment_FR_REAL,001,51,
images/fcloud_D1.7_7.tif,1.7,0,,,,,,,,,,,,,0,126,126,36,,,,,,,,,,,None,None,,None,9.994,,,,,,,,,,,,,,,,,,2019_Sep_27_1135,59.613904582999865,Cloud_Experiment_FR_REAL,001,51,
images/fcloud_D1.5_10.tif,1.5,0,,,,,,,,,,,,,0,127,127,31,,,,,,,,,,,2,space,4.376437,4,0.869,,,,,,,,,,,,,,,,,,2019_Sep_27_1135,59.613904582999865,Cloud_Experiment_FR_REAL,001,51,
images/fcloud65-35_D1.9_8.tif,1.9,1,,,,,,,,,,,,,0,128,128,93,,,,,,,,,,,None,None,,None,9.61,,,,,,,,,,,,,,,,,,2019_Sep_27_1135,59.613904582999865,Cloud_Experiment_FR_REAL,001,51,
images/fcloud80-20_D0.8_8.tif,0.8,2,,,,,,,,,,,,,0,129,129,97,,,,,,,,,,,None,None,,None,18.819,,,,,,,,,,,,,,,,,,2019_Sep_27_1135,59.613904582999865,Cloud_Experiment_FR_REAL,001,51,
images/fcloud65-35_D1.5_8.tif,1.5,1,,,,,,,,,,,,,0,130,130,77,,,,,,,,,,,None,None,,None,28.76,,,,,,,,,,,,,,,,,,2019_Sep_27_1135,59.613904582999865,Cloud_Experiment_FR_REAL,001,51,
images/fcloud80-20_D1.6_10.tif,1.6,2,,,,,,,,,,,,,0,131,131,131,,,,,,,,,,,None,None,,None,38.686,,,,,,,,,,,,,,,,,,2019_Sep_27_1135,59.613904582999865,Cloud_Experiment_FR_REAL,001,51,
images/fcloud80-20_D1.2_8.tif,1.2,2,,,,,,,,,,,,,0,132,132,113,,,,,,,,,,,None,None,,None,48.443,,,,,,,,,,,,,,,,,,2019_Sep_27_1135,59.613904582999865,Cloud_Experiment_FR_REAL,001,51,
images/fcloud80-20_D1.7_7.tif,1.7,2,,,,,,,,,,,,,0,133,133,132,,,,,,,,,,,2,space,3.3065617,3,0.77,,,,,,,,,,,,,,,,,,2019_Sep_27_1135,59.613904582999865,Cloud_Experiment_FR_REAL,001,51,
images/fcloud80-20_D1.5_8.tif,1.5,2,,,,,,,,,,,,,0,134,134,125,,,,,,,,,,,1,space,2.3983531,1,1.435,,,,,,,,,,,,,,,,,,2019_Sep_27_1135,59.613904582999865,Cloud_Experiment_FR_REAL,001,51,
images/fcloud_D1.1_10.tif,1.1,0,,,,,,,,,,,,,0,135,135,15,,,,,,,,,,,1,space,3.163545,2,1.0,,,,,,,,,,,,,,,,,,2019_Sep_27_1135,59.613904582999865,Cloud_Experiment_FR_REAL,001,51,
images/fcloud65-35_D1.6_7.tif,1.6,1,,,,,,,,,,,,,0,136,136,80,,,,,,,,,,,None,None,,None,10.474,,,,,,,,,,,,,,,,,,2019_Sep_27_1135,59.613904582999865,Cloud_Experiment_FR_REAL,001,51,
images/fcloud80-20_D1.1_8.tif,1.1,2,,,,,,,,,,,,,0,137,137,109,,,,,,,,,,,1,space,4.5547529,1,0.819,,,,,,,,,,,,,,,,,,2019_Sep_27_1135,59.613904582999865,Cloud_Experiment_FR_REAL,001,51,
images/fcloud_D1.7_10.tif,1.7,0,,,,,,,,,,,,,0,138,138,39,,,,,,,,,,,1,space,3.3935866,2,1.086,,,,,,,,,,,,,,,,,,2019_Sep_27_1135,59.613904582999865,Cloud_Experiment_FR_REAL,001,51,
images/fcloud_D1.7_8.tif,1.7,0,,,,,,,,,,,,,0,139,139,37,,,,,,,,,,,None,None,,None,10.078,,,,,,,,,,,,,,,,,,2019_Sep_27_1135,59.613904582999865,Cloud_Experiment_FR_REAL,001,51,
images/fcloud65-35_D1.3_9.tif,1.3,1,,,,,,,,,,,,,0,140,140,70,,,,,,,,,,,None,None,,None,19.3,,,,,,,,,,,,,,,,,,2019_Sep_27_1135,59.613904582999865,Cloud_Experiment_FR_REAL,001,51,
images/fcloud65-35_D0.9_8.tif,0.9,1,,,,,,,,,,,,,0,141,141,53,,,,,,,,,,,None,None,,None,28.994,,,,,,,,,,,,,,,,,,2019_Sep_27_1135,59.613904582999865,Cloud_Experiment_FR_REAL,001,51,
images/fcloud80-20_D0.8_9.tif,0.8,2,,,,,,,,,,,,,0,142,142,98,,,,,,,,,,,1,space,1.7370521,3,0.919,,,,,,,,,,,,,,,,,,2019_Sep_27_1135,59.613904582999865,Cloud_Experiment_FR_REAL,001,51,
images/fcloud_D1.2_10.tif,1.2,0,,,,,,,,,,,,,0,143,143,19,,,,,,,,,,,1,space,7.20206210001,4,0.802,,,,,,,,,,,,,,,,,,2019_Sep_27_1135,59.613904582999865,Cloud_Experiment_FR_REAL,001,51,
,,,,,,,,,,,,,,,,,,,,,,,,,3,9.963,,,,,,,,,,,,,,,,,,,,,,,,,2019_Sep_27_1135,59.613904582999865,Cloud_Experiment_FR_REAL,001,51,
,,,,,,,,,,,,,,,,,,,,,,,,,,,,,,,,,,4,,,,,,,,,,,,,,,,,2019_Sep_27_1135,59.613904582999865,Cloud_Experiment_FR_REAL,001,51,
,,,,,,,,,,,,,,,,,,,,,,,,,,,,,,,,,,,3,,,,,,,,,,,,,,,,2019_Sep_27_1135,59.613904582999865,Cloud_Experiment_FR_REAL,001,51,
,,,,,,,,,,,,,,,,,,,,,,,,,,,,,,,,,,,,3,,,,,,,,,,,,,,,2019_Sep_27_1135,59.613904582999865,Cloud_Experiment_FR_REAL,001,51,
,,,,,,,,,,,,,,,,,,,,,,,,,,,,,,,,,,,,,4,,,,,,,,,,,,,,2019_Sep_27_1135,59.613904582999865,Cloud_Experiment_FR_REAL,001,51,
,,,,,,,,,,,,,,,,,,,,,,,,,,,,,,,,,,,,,,3,,,,,,,,,,,,,2019_Sep_27_1135,59.613904582999865,Cloud_Experiment_FR_REAL,001,51,
,,,,,,,,,,,,,,,,,,,,,,,,,,,,,,,,,,,,,,,4,,,,,,,,,,,,2019_Sep_27_1135,59.613904582999865,Cloud_Experiment_FR_REAL,001,51,
,,,,,,,,,,,,,,,,,,,,,,,,,,,,,,,,,,,,,,,,5,,,,,,,,,,,2019_Sep_27_1135,59.613904582999865,Cloud_Experiment_FR_REAL,001,51,
,,,,,,,,,,,,,,,,,,,,,,,,,,,,,,,,,,,,,,,,,5,,,,,,,,,,2019_Sep_27_1135,59.613904582999865,Cloud_Experiment_FR_REAL,001,51,
,,,,,,,,,,,,,,,,,,,,,,,,,,,,,,,,,,,,,,,,,,4,,,,,,,,,2019_Sep_27_1135,59.613904582999865,Cloud_Experiment_FR_REAL,001,51,
,,,,,,,,,,,,,,,,,,,,,,,,,,,,,,,,,,,,,,,,,,,4,,,,,,,,2019_Sep_27_1135,59.613904582999865,Cloud_Experiment_FR_REAL,001,51,
,,,,,,,,,,,,,,,,,,,,,,,,,,,,,,,,,,,,,,,,,,,,,,,,,,3,2019_Sep_27_1135,59.613904582999865,Cloud_Experiment_FR_REAL,001,51,
